trial_type,trial_index,trial_number,time_elapsed,random_id,condition,participant_id,age,gender_id,mus_exp,inst_exp,years_exp,mus_listening,rt,stimulus,response,correct_response,practice,correct,congruent,sound_type,audio,file_name,participant_is_group_member
image-keyboard-response,8,1,33471,p1ap86fhd84,mus,duck,21,male,yes,yes,3,7,576,stimuli/pictures/guitar_acoustic_1.jpg,1,1,TRUE,TRUE,NA,NA,NA,/Users/martincz/GitHub/COGS119/group_wi26_motivated_cues/analysis/../data/raw_data/p1ap86fhd84_1772139272944.csv,FALSE
image-keyboard-response,13,2,37928,p1ap86fhd84,mus,duck,21,male,yes,yes,3,7,1847,stimuli/pictures/guitar_acoustic_2.jpg,1,1,TRUE,TRUE,NA,NA,NA,/Users/martincz/GitHub/COGS119/group_wi26_motivated_cues/analysis/../data/raw_data/p1ap86fhd84_1772139272944.csv,FALSE
image-keyboard-response,18,3,42739,p1ap86fhd84,mus,duck,21,male,yes,yes,3,7,2197,stimuli/pictures/guitar_electric_1.jpg,0,0,TRUE,TRUE,NA,NA,NA,/Users/martincz/GitHub/COGS119/group_wi26_motivated_cues/analysis/../data/raw_data/p1ap86fhd84_1772139272944.csv,FALSE
image-keyboard-response,23,4,46212,p1ap86fhd84,mus,duck,21,male,yes,yes,3,7,867,stimuli/pictures/guitar_acoustic_1.jpg,0,1,TRUE,FALSE,NA,NA,NA,/Users/martincz/GitHub/COGS119/group_wi26_motivated_cues/analysis/../data/raw_data/p1ap86fhd84_1772139272944.csv,FALSE
image-keyboard-response,31,5,58961,p1ap86fhd84,mus,duck,21,male,yes,yes,3,7,574,stimuli/pictures/piano_electric_2.jpg,0,0,NA,TRUE,no,sound,stimuli/sounds/bird_sound_A.wav,/Users/martincz/GitHub/COGS119/group_wi26_motivated_cues/analysis/../data/raw_data/p1ap86fhd84_1772139272944.csv,FALSE
image-keyboard-response,37,6,66303,p1ap86fhd84,mus,duck,21,male,yes,yes,3,7,633,stimuli/pictures/flute_wooden_1.jpg,1,1,NA,TRUE,yes,sound,stimuli/sounds/flute_label_B.wav,/Users/martincz/GitHub/COGS119/group_wi26_motivated_cues/analysis/../data/raw_data/p1ap86fhd84_1772139272944.csv,FALSE
image-keyboard-response,43,7,70265,p1ap86fhd84,mus,duck,21,male,yes,yes,3,7,494,stimuli/pictures/flute_wooden_1.jpg,1,1,NA,TRUE,yes,sound,stimuli/sounds/flute_label_A.wav,/Users/martincz/GitHub/COGS119/group_wi26_motivated_cues/analysis/../data/raw_data/p1ap86fhd84_1772139272944.csv,FALSE
image-keyboard-response,49,8,74333,p1ap86fhd84,mus,duck,21,male,yes,yes,3,7,604,stimuli/pictures/piano_electric_2.jpg,0,0,NA,TRUE,no,sound,stimuli/sounds/drum_label_B.wav,/Users/martincz/GitHub/COGS119/group_wi26_motivated_cues/analysis/../data/raw_data/p1ap86fhd84_1772139272944.csv,FALSE
image-keyboard-response,55,9,78202,p1ap86fhd84,mus,duck,21,male,yes,yes,3,7,552,stimuli/pictures/bird_hawk_1.jpg,0,0,NA,TRUE,no,sound,stimuli/sounds/drum_label_A.wav,/Users/martincz/GitHub/COGS119/group_wi26_motivated_cues/analysis/../data/raw_data/p1ap86fhd84_1772139272944.csv,FALSE
image-keyboard-response,61,10,82098,p1ap86fhd84,mus,duck,21,male,yes,yes,3,7,630,stimuli/pictures/phone_cell_2.jpg,1,1,NA,TRUE,no,sound,stimuli/sounds/phone_sound_B.wav,/Users/martincz/GitHub/COGS119/group_wi26_motivated_cues/analysis/../data/raw_data/p1ap86fhd84_1772139272944.csv,FALSE
image-keyboard-response,67,11,86189,p1ap86fhd84,mus,duck,21,male,yes,yes,3,7,491,stimuli/pictures/flute_metal_1.jpg,1,1,NA,TRUE,yes,sound,stimuli/sounds/flute_label_B.wav,/Users/martincz/GitHub/COGS119/group_wi26_motivated_cues/analysis/../data/raw_data/p1ap86fhd84_1772139272944.csv,FALSE
image-keyboard-response,73,12,90956,p1ap86fhd84,mus,duck,21,male,yes,yes,3,7,516,stimuli/pictures/phone_rotary_2.jpg,1,1,NA,TRUE,yes,sound,stimuli/sounds/phone_sound_B.wav,/Users/martincz/GitHub/COGS119/group_wi26_motivated_cues/analysis/../data/raw_data/p1ap86fhd84_1772139272944.csv,FALSE
image-keyboard-response,79,13,94675,p1ap86fhd84,mus,duck,21,male,yes,yes,3,7,453,stimuli/pictures/phone_rotary_1.jpg,1,1,NA,TRUE,yes,sound,stimuli/sounds/phone_sound_B.wav,/Users/martincz/GitHub/COGS119/group_wi26_motivated_cues/analysis/../data/raw_data/p1ap86fhd84_1772139272944.csv,FALSE
image-keyboard-response,85,14,98548,p1ap86fhd84,mus,duck,21,male,yes,yes,3,7,515,stimuli/pictures/bird_hawk_1.jpg,0,0,NA,TRUE,no,sound,stimuli/sounds/phone_sound_A.wav,/Users/martincz/GitHub/COGS119/group_wi26_motivated_cues/analysis/../data/raw_data/p1ap86fhd84_1772139272944.csv,FALSE
image-keyboard-response,91,15,102368,p1ap86fhd84,mus,duck,21,male,yes,yes,3,7,548,stimuli/pictures/phone_rotary_2.jpg,1,1,NA,TRUE,yes,sound,stimuli/sounds/phone_label_B.wav,/Users/martincz/GitHub/COGS119/group_wi26_motivated_cues/analysis/../data/raw_data/p1ap86fhd84_1772139272944.csv,FALSE
image-keyboard-response,97,16,106339,p1ap86fhd84,mus,duck,21,male,yes,yes,3,7,588,stimuli/pictures/phone_rotary_1.jpg,0,0,NA,TRUE,no,sound,stimuli/sounds/piano_label_A.wav,/Users/martincz/GitHub/COGS119/group_wi26_motivated_cues/analysis/../data/raw_data/p1ap86fhd84_1772139272944.csv,FALSE
image-keyboard-response,103,17,110065,p1ap86fhd84,mus,duck,21,male,yes,yes,3,7,453,stimuli/pictures/piano_electric_1.jpg,1,1,NA,TRUE,yes,sound,stimuli/sounds/piano_label_B.wav,/Users/martincz/GitHub/COGS119/group_wi26_motivated_cues/analysis/../data/raw_data/p1ap86fhd84_1772139272944.csv,FALSE
image-keyboard-response,109,18,114078,p1ap86fhd84,mus,duck,21,male,yes,yes,3,7,637,stimuli/pictures/bird_song_2.jpg,0,1,NA,FALSE,no,sound,stimuli/sounds/bird_sound_A.wav,/Users/martincz/GitHub/COGS119/group_wi26_motivated_cues/analysis/../data/raw_data/p1ap86fhd84_1772139272944.csv,FALSE
image-keyboard-response,115,19,117642,p1ap86fhd84,mus,duck,21,male,yes,yes,3,7,603,stimuli/pictures/piano_electric_2.jpg,1,1,NA,TRUE,yes,sound,stimuli/sounds/piano_sound_B.wav,/Users/martincz/GitHub/COGS119/group_wi26_motivated_cues/analysis/../data/raw_data/p1ap86fhd84_1772139272944.csv,FALSE
image-keyboard-response,121,20,121349,p1ap86fhd84,mus,duck,21,male,yes,yes,3,7,537,stimuli/pictures/drum_bongo_2.jpg,0,0,NA,TRUE,no,sound,stimuli/sounds/bird_sound_B.wav,/Users/martincz/GitHub/COGS119/group_wi26_motivated_cues/analysis/../data/raw_data/p1ap86fhd84_1772139272944.csv,FALSE
image-keyboard-response,127,21,125236,p1ap86fhd84,mus,duck,21,male,yes,yes,3,7,593,stimuli/pictures/piano_electric_1.jpg,0,0,NA,TRUE,no,sound,stimuli/sounds/drum_label_B.wav,/Users/martincz/GitHub/COGS119/group_wi26_motivated_cues/analysis/../data/raw_data/p1ap86fhd84_1772139272944.csv,FALSE
image-keyboard-response,133,22,129559,p1ap86fhd84,mus,duck,21,male,yes,yes,3,7,1019,stimuli/pictures/phone_cell_1.jpg,0,0,NA,TRUE,no,sound,stimuli/sounds/piano_label_A.wav,/Users/martincz/GitHub/COGS119/group_wi26_motivated_cues/analysis/../data/raw_data/p1ap86fhd84_1772139272944.csv,FALSE
image-keyboard-response,139,23,133372,p1ap86fhd84,mus,duck,21,male,yes,yes,3,7,533,stimuli/pictures/drum_bongo_1.jpg,0,0,NA,TRUE,no,sound,stimuli/sounds/bird_sound_B.wav,/Users/martincz/GitHub/COGS119/group_wi26_motivated_cues/analysis/../data/raw_data/p1ap86fhd84_1772139272944.csv,FALSE
image-keyboard-response,145,24,137081,p1ap86fhd84,mus,duck,21,male,yes,yes,3,7,485,stimuli/pictures/piano_electric_1.jpg,1,1,NA,TRUE,no,sound,stimuli/sounds/piano_sound_A.wav,/Users/martincz/GitHub/COGS119/group_wi26_motivated_cues/analysis/../data/raw_data/p1ap86fhd84_1772139272944.csv,FALSE
image-keyboard-response,152,25,145634,p1ap86fhd84,mus,duck,21,male,yes,yes,3,7,507,stimuli/pictures/phone_cell_1.jpg,0,0,NA,TRUE,no,sound,stimuli/sounds/bird_label_B.wav,/Users/martincz/GitHub/COGS119/group_wi26_motivated_cues/analysis/../data/raw_data/p1ap86fhd84_1772139272944.csv,FALSE
image-keyboard-response,158,26,187810,p1ap86fhd84,mus,duck,21,male,yes,yes,3,7,488,stimuli/pictures/piano_electric_2.jpg,1,1,NA,TRUE,yes,sound,stimuli/sounds/piano_label_A.wav,/Users/martincz/GitHub/COGS119/group_wi26_motivated_cues/analysis/../data/raw_data/p1ap86fhd84_1772139272944.csv,FALSE
image-keyboard-response,164,27,191968,p1ap86fhd84,mus,duck,21,male,yes,yes,3,7,494,stimuli/pictures/piano_electric_1.jpg,1,0,NA,FALSE,no,sound,stimuli/sounds/flute_label_A.wav,/Users/martincz/GitHub/COGS119/group_wi26_motivated_cues/analysis/../data/raw_data/p1ap86fhd84_1772139272944.csv,FALSE
image-keyboard-response,170,28,195371,p1ap86fhd84,mus,duck,21,male,yes,yes,3,7,440,stimuli/pictures/phone_rotary_1.jpg,1,1,NA,TRUE,no,sound,stimuli/sounds/phone_sound_A.wav,/Users/martincz/GitHub/COGS119/group_wi26_motivated_cues/analysis/../data/raw_data/p1ap86fhd84_1772139272944.csv,FALSE
image-keyboard-response,176,29,199540,p1ap86fhd84,mus,duck,21,male,yes,yes,3,7,673,stimuli/pictures/piano_grand_2.jpg,1,1,NA,TRUE,yes,sound,stimuli/sounds/piano_label_B.wav,/Users/martincz/GitHub/COGS119/group_wi26_motivated_cues/analysis/../data/raw_data/p1ap86fhd84_1772139272944.csv,FALSE
image-keyboard-response,182,30,203220,p1ap86fhd84,mus,duck,21,male,yes,yes,3,7,501,stimuli/pictures/flute_wooden_1.jpg,0,0,NA,TRUE,no,sound,stimuli/sounds/drum_sound_A.wav,/Users/martincz/GitHub/COGS119/group_wi26_motivated_cues/analysis/../data/raw_data/p1ap86fhd84_1772139272944.csv,FALSE
image-keyboard-response,188,31,206823,p1ap86fhd84,mus,duck,21,male,yes,yes,3,7,446,stimuli/pictures/piano_grand_1.jpg,0,0,NA,TRUE,no,sound,stimuli/sounds/bird_sound_A.wav,/Users/martincz/GitHub/COGS119/group_wi26_motivated_cues/analysis/../data/raw_data/p1ap86fhd84_1772139272944.csv,FALSE
image-keyboard-response,194,32,210603,p1ap86fhd84,mus,duck,21,male,yes,yes,3,7,525,stimuli/pictures/drum_kit_1.jpg,1,1,NA,TRUE,no,sound,stimuli/sounds/drum_sound_B.wav,/Users/martincz/GitHub/COGS119/group_wi26_motivated_cues/analysis/../data/raw_data/p1ap86fhd84_1772139272944.csv,FALSE
image-keyboard-response,200,33,214556,p1ap86fhd84,mus,duck,21,male,yes,yes,3,7,555,stimuli/pictures/flute_metal_2.jpg,1,1,NA,TRUE,yes,sound,stimuli/sounds/flute_sound_A.wav,/Users/martincz/GitHub/COGS119/group_wi26_motivated_cues/analysis/../data/raw_data/p1ap86fhd84_1772139272944.csv,FALSE
image-keyboard-response,206,34,218219,p1ap86fhd84,mus,duck,21,male,yes,yes,3,7,447,stimuli/pictures/drum_bongo_1.jpg,1,1,NA,TRUE,yes,sound,stimuli/sounds/drum_sound_B.wav,/Users/martincz/GitHub/COGS119/group_wi26_motivated_cues/analysis/../data/raw_data/p1ap86fhd84_1772139272944.csv,FALSE
image-keyboard-response,212,35,222060,p1ap86fhd84,mus,duck,21,male,yes,yes,3,7,584,stimuli/pictures/bird_hawk_1.jpg,0,0,NA,TRUE,no,sound,stimuli/sounds/piano_label_B.wav,/Users/martincz/GitHub/COGS119/group_wi26_motivated_cues/analysis/../data/raw_data/p1ap86fhd84_1772139272944.csv,FALSE
image-keyboard-response,218,36,226033,p1ap86fhd84,mus,duck,21,male,yes,yes,3,7,588,stimuli/pictures/bird_song_1.jpg,0,0,NA,TRUE,no,sound,stimuli/sounds/flute_sound_B.wav,/Users/martincz/GitHub/COGS119/group_wi26_motivated_cues/analysis/../data/raw_data/p1ap86fhd84_1772139272944.csv,FALSE
image-keyboard-response,224,37,229902,p1ap86fhd84,mus,duck,21,male,yes,yes,3,7,516,stimuli/pictures/phone_cell_2.jpg,0,0,NA,TRUE,no,sound,stimuli/sounds/bird_label_B.wav,/Users/martincz/GitHub/COGS119/group_wi26_motivated_cues/analysis/../data/raw_data/p1ap86fhd84_1772139272944.csv,FALSE
image-keyboard-response,230,38,233513,p1ap86fhd84,mus,duck,21,male,yes,yes,3,7,485,stimuli/pictures/phone_cell_2.jpg,1,1,NA,TRUE,yes,sound,stimuli/sounds/phone_sound_A.wav,/Users/martincz/GitHub/COGS119/group_wi26_motivated_cues/analysis/../data/raw_data/p1ap86fhd84_1772139272944.csv,FALSE
image-keyboard-response,236,39,237196,p1ap86fhd84,mus,duck,21,male,yes,yes,3,7,403,stimuli/pictures/bird_hawk_1.jpg,1,1,NA,TRUE,yes,sound,stimuli/sounds/bird_sound_A.wav,/Users/martincz/GitHub/COGS119/group_wi26_motivated_cues/analysis/../data/raw_data/p1ap86fhd84_1772139272944.csv,FALSE
image-keyboard-response,242,40,241002,p1ap86fhd84,mus,duck,21,male,yes,yes,3,7,611,stimuli/pictures/piano_grand_2.jpg,0,0,NA,TRUE,no,sound,stimuli/sounds/flute_label_A.wav,/Users/martincz/GitHub/COGS119/group_wi26_motivated_cues/analysis/../data/raw_data/p1ap86fhd84_1772139272944.csv,FALSE
image-keyboard-response,248,41,244738,p1ap86fhd84,mus,duck,21,male,yes,yes,3,7,467,stimuli/pictures/piano_electric_2.jpg,1,1,NA,TRUE,yes,sound,stimuli/sounds/piano_label_B.wav,/Users/martincz/GitHub/COGS119/group_wi26_motivated_cues/analysis/../data/raw_data/p1ap86fhd84_1772139272944.csv,FALSE
image-keyboard-response,254,42,248826,p1ap86fhd84,mus,duck,21,male,yes,yes,3,7,627,stimuli/pictures/phone_cell_2.jpg,0,0,NA,TRUE,no,sound,stimuli/sounds/piano_label_A.wav,/Users/martincz/GitHub/COGS119/group_wi26_motivated_cues/analysis/../data/raw_data/p1ap86fhd84_1772139272944.csv,FALSE
image-keyboard-response,260,43,252531,p1ap86fhd84,mus,duck,21,male,yes,yes,3,7,476,stimuli/pictures/piano_grand_1.jpg,1,1,NA,TRUE,yes,sound,stimuli/sounds/piano_label_A.wav,/Users/martincz/GitHub/COGS119/group_wi26_motivated_cues/analysis/../data/raw_data/p1ap86fhd84_1772139272944.csv,FALSE
image-keyboard-response,266,44,256378,p1ap86fhd84,mus,duck,21,male,yes,yes,3,7,459,stimuli/pictures/piano_grand_2.jpg,1,1,NA,TRUE,yes,sound,stimuli/sounds/piano_label_A.wav,/Users/martincz/GitHub/COGS119/group_wi26_motivated_cues/analysis/../data/raw_data/p1ap86fhd84_1772139272944.csv,FALSE
image-keyboard-response,273,45,262288,p1ap86fhd84,mus,duck,21,male,yes,yes,3,7,551,stimuli/pictures/phone_cell_2.jpg,0,0,NA,TRUE,no,sound,stimuli/sounds/drum_sound_B.wav,/Users/martincz/GitHub/COGS119/group_wi26_motivated_cues/analysis/../data/raw_data/p1ap86fhd84_1772139272944.csv,FALSE
image-keyboard-response,279,46,266007,p1ap86fhd84,mus,duck,21,male,yes,yes,3,7,383,stimuli/pictures/bird_hawk_1.jpg,1,1,NA,TRUE,yes,sound,stimuli/sounds/bird_sound_A.wav,/Users/martincz/GitHub/COGS119/group_wi26_motivated_cues/analysis/../data/raw_data/p1ap86fhd84_1772139272944.csv,FALSE
image-keyboard-response,285,47,269499,p1ap86fhd84,mus,duck,21,male,yes,yes,3,7,488,stimuli/pictures/drum_kit_1.jpg,1,1,NA,TRUE,yes,sound,stimuli/sounds/drum_sound_A.wav,/Users/martincz/GitHub/COGS119/group_wi26_motivated_cues/analysis/../data/raw_data/p1ap86fhd84_1772139272944.csv,FALSE
image-keyboard-response,291,48,273227,p1ap86fhd84,mus,duck,21,male,yes,yes,3,7,518,stimuli/pictures/phone_rotary_1.jpg,0,0,NA,TRUE,no,sound,stimuli/sounds/drum_sound_B.wav,/Users/martincz/GitHub/COGS119/group_wi26_motivated_cues/analysis/../data/raw_data/p1ap86fhd84_1772139272944.csv,FALSE
image-keyboard-response,297,49,277183,p1ap86fhd84,mus,duck,21,male,yes,yes,3,7,464,stimuli/pictures/phone_cell_2.jpg,0,0,NA,TRUE,no,sound,stimuli/sounds/flute_sound_A.wav,/Users/martincz/GitHub/COGS119/group_wi26_motivated_cues/analysis/../data/raw_data/p1ap86fhd84_1772139272944.csv,FALSE
image-keyboard-response,303,50,281043,p1ap86fhd84,mus,duck,21,male,yes,yes,3,7,638,stimuli/pictures/phone_rotary_1.jpg,1,1,NA,TRUE,yes,sound,stimuli/sounds/phone_label_B.wav,/Users/martincz/GitHub/COGS119/group_wi26_motivated_cues/analysis/../data/raw_data/p1ap86fhd84_1772139272944.csv,FALSE
image-keyboard-response,309,51,285003,p1ap86fhd84,mus,duck,21,male,yes,yes,3,7,427,stimuli/pictures/piano_electric_2.jpg,0,0,NA,TRUE,no,sound,stimuli/sounds/phone_sound_B.wav,/Users/martincz/GitHub/COGS119/group_wi26_motivated_cues/analysis/../data/raw_data/p1ap86fhd84_1772139272944.csv,FALSE
image-keyboard-response,315,52,288775,p1ap86fhd84,mus,duck,21,male,yes,yes,3,7,477,stimuli/pictures/bird_song_2.jpg,0,0,NA,TRUE,no,sound,stimuli/sounds/phone_sound_A.wav,/Users/martincz/GitHub/COGS119/group_wi26_motivated_cues/analysis/../data/raw_data/p1ap86fhd84_1772139272944.csv,FALSE
image-keyboard-response,321,53,292330,p1ap86fhd84,mus,duck,21,male,yes,yes,3,7,438,stimuli/pictures/drum_kit_2.jpg,1,1,NA,TRUE,yes,sound,stimuli/sounds/drum_sound_A.wav,/Users/martincz/GitHub/COGS119/group_wi26_motivated_cues/analysis/../data/raw_data/p1ap86fhd84_1772139272944.csv,FALSE
image-keyboard-response,327,54,296052,p1ap86fhd84,mus,duck,21,male,yes,yes,3,7,519,stimuli/pictures/phone_rotary_2.jpg,1,1,NA,TRUE,yes,sound,stimuli/sounds/phone_label_A.wav,/Users/martincz/GitHub/COGS119/group_wi26_motivated_cues/analysis/../data/raw_data/p1ap86fhd84_1772139272944.csv,FALSE
image-keyboard-response,333,55,299650,p1ap86fhd84,mus,duck,21,male,yes,yes,3,7,453,stimuli/pictures/bird_hawk_1.jpg,1,1,NA,TRUE,yes,sound,stimuli/sounds/bird_label_A.wav,/Users/martincz/GitHub/COGS119/group_wi26_motivated_cues/analysis/../data/raw_data/p1ap86fhd84_1772139272944.csv,FALSE
image-keyboard-response,339,56,303310,p1ap86fhd84,mus,duck,21,male,yes,yes,3,7,401,stimuli/pictures/bird_song_2.jpg,0,0,NA,TRUE,no,sound,stimuli/sounds/flute_sound_B.wav,/Users/martincz/GitHub/COGS119/group_wi26_motivated_cues/analysis/../data/raw_data/p1ap86fhd84_1772139272944.csv,FALSE
image-keyboard-response,345,57,307029,p1ap86fhd84,mus,duck,21,male,yes,yes,3,7,503,stimuli/pictures/phone_rotary_2.jpg,1,0,NA,FALSE,no,sound,stimuli/sounds/drum_sound_B.wav,/Users/martincz/GitHub/COGS119/group_wi26_motivated_cues/analysis/../data/raw_data/p1ap86fhd84_1772139272944.csv,FALSE
image-keyboard-response,351,58,311002,p1ap86fhd84,mus,duck,21,male,yes,yes,3,7,384,stimuli/pictures/drum_kit_1.jpg,1,1,NA,TRUE,yes,sound,stimuli/sounds/drum_label_A.wav,/Users/martincz/GitHub/COGS119/group_wi26_motivated_cues/analysis/../data/raw_data/p1ap86fhd84_1772139272944.csv,FALSE
image-keyboard-response,357,59,314833,p1ap86fhd84,mus,duck,21,male,yes,yes,3,7,537,stimuli/pictures/flute_wooden_2.jpg,1,1,NA,TRUE,yes,sound,stimuli/sounds/flute_label_A.wav,/Users/martincz/GitHub/COGS119/group_wi26_motivated_cues/analysis/../data/raw_data/p1ap86fhd84_1772139272944.csv,FALSE
image-keyboard-response,363,60,318590,p1ap86fhd84,mus,duck,21,male,yes,yes,3,7,613,stimuli/pictures/phone_rotary_2.jpg,1,1,NA,TRUE,no,sound,stimuli/sounds/phone_sound_A.wav,/Users/martincz/GitHub/COGS119/group_wi26_motivated_cues/analysis/../data/raw_data/p1ap86fhd84_1772139272944.csv,FALSE
image-keyboard-response,369,61,322538,p1ap86fhd84,mus,duck,21,male,yes,yes,3,7,670,stimuli/pictures/drum_kit_1.jpg,0,0,NA,TRUE,no,sound,stimuli/sounds/piano_sound_A.wav,/Users/martincz/GitHub/COGS119/group_wi26_motivated_cues/analysis/../data/raw_data/p1ap86fhd84_1772139272944.csv,FALSE
image-keyboard-response,375,62,326187,p1ap86fhd84,mus,duck,21,male,yes,yes,3,7,390,stimuli/pictures/bird_hawk_1.jpg,1,1,NA,TRUE,no,sound,stimuli/sounds/bird_sound_B.wav,/Users/martincz/GitHub/COGS119/group_wi26_motivated_cues/analysis/../data/raw_data/p1ap86fhd84_1772139272944.csv,FALSE
image-keyboard-response,381,63,330031,p1ap86fhd84,mus,duck,21,male,yes,yes,3,7,614,stimuli/pictures/drum_kit_2.jpg,0,0,NA,TRUE,no,sound,stimuli/sounds/piano_sound_A.wav,/Users/martincz/GitHub/COGS119/group_wi26_motivated_cues/analysis/../data/raw_data/p1ap86fhd84_1772139272944.csv,FALSE
image-keyboard-response,387,64,333702,p1ap86fhd84,mus,duck,21,male,yes,yes,3,7,477,stimuli/pictures/flute_metal_2.jpg,0,0,NA,TRUE,no,sound,stimuli/sounds/bird_label_A.wav,/Users/martincz/GitHub/COGS119/group_wi26_motivated_cues/analysis/../data/raw_data/p1ap86fhd84_1772139272944.csv,FALSE
image-keyboard-response,394,65,340008,p1ap86fhd84,mus,duck,21,male,yes,yes,3,7,867,stimuli/pictures/bird_hawk_1.jpg,0,0,NA,TRUE,no,sound,stimuli/sounds/flute_sound_B.wav,/Users/martincz/GitHub/COGS119/group_wi26_motivated_cues/analysis/../data/raw_data/p1ap86fhd84_1772139272944.csv,FALSE
image-keyboard-response,400,66,343980,p1ap86fhd84,mus,duck,21,male,yes,yes,3,7,584,stimuli/pictures/drum_bongo_1.jpg,0,0,NA,TRUE,no,sound,stimuli/sounds/piano_sound_A.wav,/Users/martincz/GitHub/COGS119/group_wi26_motivated_cues/analysis/../data/raw_data/p1ap86fhd84_1772139272944.csv,FALSE
image-keyboard-response,406,67,347644,p1ap86fhd84,mus,duck,21,male,yes,yes,3,7,628,stimuli/pictures/drum_bongo_2.jpg,0,0,NA,TRUE,no,sound,stimuli/sounds/flute_label_B.wav,/Users/martincz/GitHub/COGS119/group_wi26_motivated_cues/analysis/../data/raw_data/p1ap86fhd84_1772139272944.csv,FALSE
image-keyboard-response,412,68,351432,p1ap86fhd84,mus,duck,21,male,yes,yes,3,7,567,stimuli/pictures/flute_metal_1.jpg,0,0,NA,TRUE,no,sound,stimuli/sounds/phone_label_B.wav,/Users/martincz/GitHub/COGS119/group_wi26_motivated_cues/analysis/../data/raw_data/p1ap86fhd84_1772139272944.csv,FALSE
image-keyboard-response,418,69,355092,p1ap86fhd84,mus,duck,21,male,yes,yes,3,7,481,stimuli/pictures/piano_grand_2.jpg,0,1,NA,FALSE,no,sound,stimuli/sounds/piano_sound_B.wav,/Users/martincz/GitHub/COGS119/group_wi26_motivated_cues/analysis/../data/raw_data/p1ap86fhd84_1772139272944.csv,FALSE
image-keyboard-response,424,70,359548,p1ap86fhd84,mus,duck,21,male,yes,yes,3,7,788,stimuli/pictures/flute_metal_2.jpg,0,0,NA,TRUE,no,sound,stimuli/sounds/piano_sound_B.wav,/Users/martincz/GitHub/COGS119/group_wi26_motivated_cues/analysis/../data/raw_data/p1ap86fhd84_1772139272944.csv,FALSE
image-keyboard-response,430,71,363469,p1ap86fhd84,mus,duck,21,male,yes,yes,3,7,415,stimuli/pictures/phone_cell_1.jpg,1,1,NA,TRUE,yes,sound,stimuli/sounds/phone_label_B.wav,/Users/martincz/GitHub/COGS119/group_wi26_motivated_cues/analysis/../data/raw_data/p1ap86fhd84_1772139272944.csv,FALSE
image-keyboard-response,436,72,367339,p1ap86fhd84,mus,duck,21,male,yes,yes,3,7,600,stimuli/pictures/drum_bongo_2.jpg,0,0,NA,TRUE,no,sound,stimuli/sounds/piano_sound_A.wav,/Users/martincz/GitHub/COGS119/group_wi26_motivated_cues/analysis/../data/raw_data/p1ap86fhd84_1772139272944.csv,FALSE
image-keyboard-response,442,73,371059,p1ap86fhd84,mus,duck,21,male,yes,yes,3,7,458,stimuli/pictures/bird_song_2.jpg,1,1,NA,TRUE,yes,sound,stimuli/sounds/bird_label_A.wav,/Users/martincz/GitHub/COGS119/group_wi26_motivated_cues/analysis/../data/raw_data/p1ap86fhd84_1772139272944.csv,FALSE
image-keyboard-response,448,74,374860,p1ap86fhd84,mus,duck,21,male,yes,yes,3,7,589,stimuli/pictures/piano_grand_1.jpg,0,0,NA,TRUE,no,sound,stimuli/sounds/drum_label_B.wav,/Users/martincz/GitHub/COGS119/group_wi26_motivated_cues/analysis/../data/raw_data/p1ap86fhd84_1772139272944.csv,FALSE
image-keyboard-response,454,75,378866,p1ap86fhd84,mus,duck,21,male,yes,yes,3,7,682,stimuli/pictures/bird_song_1.jpg,1,1,NA,TRUE,no,sound,stimuli/sounds/bird_sound_A.wav,/Users/martincz/GitHub/COGS119/group_wi26_motivated_cues/analysis/../data/raw_data/p1ap86fhd84_1772139272944.csv,FALSE
image-keyboard-response,460,76,382750,p1ap86fhd84,mus,duck,21,male,yes,yes,3,7,542,stimuli/pictures/piano_grand_1.jpg,0,0,NA,TRUE,no,sound,stimuli/sounds/flute_label_A.wav,/Users/martincz/GitHub/COGS119/group_wi26_motivated_cues/analysis/../data/raw_data/p1ap86fhd84_1772139272944.csv,FALSE
image-keyboard-response,466,77,386923,p1ap86fhd84,mus,duck,21,male,yes,yes,3,7,677,stimuli/pictures/drum_bongo_1.jpg,0,1,NA,FALSE,yes,sound,stimuli/sounds/drum_label_A.wav,/Users/martincz/GitHub/COGS119/group_wi26_motivated_cues/analysis/../data/raw_data/p1ap86fhd84_1772139272944.csv,FALSE
image-keyboard-response,472,78,390669,p1ap86fhd84,mus,duck,21,male,yes,yes,3,7,406,stimuli/pictures/drum_bongo_2.jpg,1,1,NA,TRUE,yes,sound,stimuli/sounds/drum_sound_B.wav,/Users/martincz/GitHub/COGS119/group_wi26_motivated_cues/analysis/../data/raw_data/p1ap86fhd84_1772139272944.csv,FALSE
image-keyboard-response,478,79,394407,p1ap86fhd84,mus,duck,21,male,yes,yes,3,7,423,stimuli/pictures/piano_electric_1.jpg,1,0,NA,FALSE,no,sound,stimuli/sounds/phone_sound_B.wav,/Users/martincz/GitHub/COGS119/group_wi26_motivated_cues/analysis/../data/raw_data/p1ap86fhd84_1772139272944.csv,FALSE
image-keyboard-response,484,80,398350,p1ap86fhd84,mus,duck,21,male,yes,yes,3,7,757,stimuli/pictures/flute_metal_1.jpg,1,1,NA,TRUE,yes,sound,stimuli/sounds/flute_sound_A.wav,/Users/martincz/GitHub/COGS119/group_wi26_motivated_cues/analysis/../data/raw_data/p1ap86fhd84_1772139272944.csv,FALSE
image-keyboard-response,490,81,402187,p1ap86fhd84,mus,duck,21,male,yes,yes,3,7,542,stimuli/pictures/drum_bongo_1.jpg,1,1,NA,TRUE,no,sound,stimuli/sounds/drum_sound_A.wav,/Users/martincz/GitHub/COGS119/group_wi26_motivated_cues/analysis/../data/raw_data/p1ap86fhd84_1772139272944.csv,FALSE
image-keyboard-response,496,82,406023,p1ap86fhd84,mus,duck,21,male,yes,yes,3,7,582,stimuli/pictures/flute_metal_2.jpg,1,1,NA,TRUE,yes,sound,stimuli/sounds/flute_label_A.wav,/Users/martincz/GitHub/COGS119/group_wi26_motivated_cues/analysis/../data/raw_data/p1ap86fhd84_1772139272944.csv,FALSE
image-keyboard-response,502,83,409758,p1ap86fhd84,mus,duck,21,male,yes,yes,3,7,411,stimuli/pictures/phone_cell_1.jpg,1,1,NA,TRUE,yes,sound,stimuli/sounds/phone_sound_A.wav,/Users/martincz/GitHub/COGS119/group_wi26_motivated_cues/analysis/../data/raw_data/p1ap86fhd84_1772139272944.csv,FALSE
image-keyboard-response,508,84,413501,p1ap86fhd84,mus,duck,21,male,yes,yes,3,7,476,stimuli/pictures/drum_kit_1.jpg,1,1,NA,TRUE,yes,sound,stimuli/sounds/drum_label_B.wav,/Users/martincz/GitHub/COGS119/group_wi26_motivated_cues/analysis/../data/raw_data/p1ap86fhd84_1772139272944.csv,FALSE
image-keyboard-response,515,85,418749,p1ap86fhd84,mus,duck,21,male,yes,yes,3,7,663,stimuli/pictures/drum_kit_2.jpg,1,1,NA,TRUE,yes,sound,stimuli/sounds/drum_label_B.wav,/Users/martincz/GitHub/COGS119/group_wi26_motivated_cues/analysis/../data/raw_data/p1ap86fhd84_1772139272944.csv,FALSE
image-keyboard-response,521,86,422698,p1ap86fhd84,mus,duck,21,male,yes,yes,3,7,471,stimuli/pictures/flute_wooden_1.jpg,1,1,NA,TRUE,no,sound,stimuli/sounds/flute_sound_A.wav,/Users/martincz/GitHub/COGS119/group_wi26_motivated_cues/analysis/../data/raw_data/p1ap86fhd84_1772139272944.csv,FALSE
image-keyboard-response,527,87,426886,p1ap86fhd84,mus,duck,21,male,yes,yes,3,7,907,stimuli/pictures/flute_wooden_1.jpg,0,0,NA,TRUE,no,sound,stimuli/sounds/piano_sound_B.wav,/Users/martincz/GitHub/COGS119/group_wi26_motivated_cues/analysis/../data/raw_data/p1ap86fhd84_1772139272944.csv,FALSE
image-keyboard-response,533,88,430589,p1ap86fhd84,mus,duck,21,male,yes,yes,3,7,444,stimuli/pictures/phone_cell_1.jpg,0,0,NA,TRUE,no,sound,stimuli/sounds/flute_sound_A.wav,/Users/martincz/GitHub/COGS119/group_wi26_motivated_cues/analysis/../data/raw_data/p1ap86fhd84_1772139272944.csv,FALSE
image-keyboard-response,539,89,434369,p1ap86fhd84,mus,duck,21,male,yes,yes,3,7,467,stimuli/pictures/flute_metal_1.jpg,1,1,NA,TRUE,yes,sound,stimuli/sounds/flute_label_A.wav,/Users/martincz/GitHub/COGS119/group_wi26_motivated_cues/analysis/../data/raw_data/p1ap86fhd84_1772139272944.csv,FALSE
image-keyboard-response,545,90,438252,p1ap86fhd84,mus,duck,21,male,yes,yes,3,7,619,stimuli/pictures/piano_grand_2.jpg,0,0,NA,TRUE,no,sound,stimuli/sounds/phone_sound_B.wav,/Users/martincz/GitHub/COGS119/group_wi26_motivated_cues/analysis/../data/raw_data/p1ap86fhd84_1772139272944.csv,FALSE
image-keyboard-response,551,91,442033,p1ap86fhd84,mus,duck,21,male,yes,yes,3,7,476,stimuli/pictures/drum_kit_2.jpg,1,1,NA,TRUE,no,sound,stimuli/sounds/drum_sound_B.wav,/Users/martincz/GitHub/COGS119/group_wi26_motivated_cues/analysis/../data/raw_data/p1ap86fhd84_1772139272944.csv,FALSE
image-keyboard-response,557,92,445698,p1ap86fhd84,mus,duck,21,male,yes,yes,3,7,568,stimuli/pictures/piano_grand_2.jpg,0,0,NA,TRUE,no,sound,stimuli/sounds/drum_label_B.wav,/Users/martincz/GitHub/COGS119/group_wi26_motivated_cues/analysis/../data/raw_data/p1ap86fhd84_1772139272944.csv,FALSE
image-keyboard-response,563,93,449677,p1ap86fhd84,mus,duck,21,male,yes,yes,3,7,697,stimuli/pictures/bird_hawk_1.jpg,0,0,NA,TRUE,no,sound,stimuli/sounds/drum_label_A.wav,/Users/martincz/GitHub/COGS119/group_wi26_motivated_cues/analysis/../data/raw_data/p1ap86fhd84_1772139272944.csv,FALSE
image-keyboard-response,569,94,453520,p1ap86fhd84,mus,duck,21,male,yes,yes,3,7,550,stimuli/pictures/bird_song_1.jpg,1,1,NA,TRUE,yes,sound,stimuli/sounds/bird_label_B.wav,/Users/martincz/GitHub/COGS119/group_wi26_motivated_cues/analysis/../data/raw_data/p1ap86fhd84_1772139272944.csv,FALSE
image-keyboard-response,575,95,457893,p1ap86fhd84,mus,duck,21,male,yes,yes,3,7,606,stimuli/pictures/flute_metal_1.jpg,0,0,NA,TRUE,no,sound,stimuli/sounds/piano_sound_B.wav,/Users/martincz/GitHub/COGS119/group_wi26_motivated_cues/analysis/../data/raw_data/p1ap86fhd84_1772139272944.csv,FALSE
image-keyboard-response,581,96,461768,p1ap86fhd84,mus,duck,21,male,yes,yes,3,7,637,stimuli/pictures/phone_rotary_2.jpg,0,0,NA,TRUE,no,sound,stimuli/sounds/flute_sound_A.wav,/Users/martincz/GitHub/COGS119/group_wi26_motivated_cues/analysis/../data/raw_data/p1ap86fhd84_1772139272944.csv,FALSE
image-keyboard-response,587,97,465440,p1ap86fhd84,mus,duck,21,male,yes,yes,3,7,409,stimuli/pictures/phone_rotary_1.jpg,0,0,NA,TRUE,no,sound,stimuli/sounds/bird_label_B.wav,/Users/martincz/GitHub/COGS119/group_wi26_motivated_cues/analysis/../data/raw_data/p1ap86fhd84_1772139272944.csv,FALSE
image-keyboard-response,593,98,469182,p1ap86fhd84,mus,duck,21,male,yes,yes,3,7,491,stimuli/pictures/drum_kit_1.jpg,0,0,NA,TRUE,no,sound,stimuli/sounds/flute_label_B.wav,/Users/martincz/GitHub/COGS119/group_wi26_motivated_cues/analysis/../data/raw_data/p1ap86fhd84_1772139272944.csv,FALSE
image-keyboard-response,599,99,473182,p1ap86fhd84,mus,duck,21,male,yes,yes,3,7,529,stimuli/pictures/piano_electric_1.jpg,0,1,NA,FALSE,yes,sound,stimuli/sounds/piano_sound_B.wav,/Users/martincz/GitHub/COGS119/group_wi26_motivated_cues/analysis/../data/raw_data/p1ap86fhd84_1772139272944.csv,FALSE
image-keyboard-response,605,100,476914,p1ap86fhd84,mus,duck,21,male,yes,yes,3,7,388,stimuli/pictures/piano_electric_1.jpg,1,1,NA,TRUE,yes,sound,stimuli/sounds/piano_label_A.wav,/Users/martincz/GitHub/COGS119/group_wi26_motivated_cues/analysis/../data/raw_data/p1ap86fhd84_1772139272944.csv,FALSE
image-keyboard-response,611,101,480805,p1ap86fhd84,mus,duck,21,male,yes,yes,3,7,439,stimuli/pictures/flute_wooden_1.jpg,1,1,NA,TRUE,yes,sound,stimuli/sounds/flute_sound_B.wav,/Users/martincz/GitHub/COGS119/group_wi26_motivated_cues/analysis/../data/raw_data/p1ap86fhd84_1772139272944.csv,FALSE
image-keyboard-response,617,102,484747,p1ap86fhd84,mus,duck,21,male,yes,yes,3,7,501,stimuli/pictures/bird_song_1.jpg,0,0,NA,TRUE,no,sound,stimuli/sounds/piano_label_B.wav,/Users/martincz/GitHub/COGS119/group_wi26_motivated_cues/analysis/../data/raw_data/p1ap86fhd84_1772139272944.csv,FALSE
image-keyboard-response,623,103,488620,p1ap86fhd84,mus,duck,21,male,yes,yes,3,7,594,stimuli/pictures/drum_bongo_2.jpg,1,1,NA,TRUE,yes,sound,stimuli/sounds/drum_label_A.wav,/Users/martincz/GitHub/COGS119/group_wi26_motivated_cues/analysis/../data/raw_data/p1ap86fhd84_1772139272944.csv,FALSE
image-keyboard-response,629,104,492705,p1ap86fhd84,mus,duck,21,male,yes,yes,3,7,469,stimuli/pictures/flute_metal_2.jpg,0,0,NA,TRUE,no,sound,stimuli/sounds/phone_label_B.wav,/Users/martincz/GitHub/COGS119/group_wi26_motivated_cues/analysis/../data/raw_data/p1ap86fhd84_1772139272944.csv,FALSE
image-keyboard-response,636,105,499196,p1ap86fhd84,mus,duck,21,male,yes,yes,3,7,712,stimuli/pictures/drum_bongo_2.jpg,1,1,NA,TRUE,yes,sound,stimuli/sounds/drum_label_B.wav,/Users/martincz/GitHub/COGS119/group_wi26_motivated_cues/analysis/../data/raw_data/p1ap86fhd84_1772139272944.csv,FALSE
image-keyboard-response,642,106,503280,p1ap86fhd84,mus,duck,21,male,yes,yes,3,7,484,stimuli/pictures/bird_song_1.jpg,1,1,NA,TRUE,yes,sound,stimuli/sounds/bird_sound_B.wav,/Users/martincz/GitHub/COGS119/group_wi26_motivated_cues/analysis/../data/raw_data/p1ap86fhd84_1772139272944.csv,FALSE
image-keyboard-response,648,107,506795,p1ap86fhd84,mus,duck,21,male,yes,yes,3,7,418,stimuli/pictures/bird_song_2.jpg,0,0,NA,TRUE,no,sound,stimuli/sounds/piano_label_B.wav,/Users/martincz/GitHub/COGS119/group_wi26_motivated_cues/analysis/../data/raw_data/p1ap86fhd84_1772139272944.csv,FALSE
image-keyboard-response,654,108,510618,p1ap86fhd84,mus,duck,21,male,yes,yes,3,7,524,stimuli/pictures/flute_wooden_2.jpg,0,0,NA,TRUE,no,sound,stimuli/sounds/drum_sound_A.wav,/Users/martincz/GitHub/COGS119/group_wi26_motivated_cues/analysis/../data/raw_data/p1ap86fhd84_1772139272944.csv,FALSE
image-keyboard-response,660,109,514336,p1ap86fhd84,mus,duck,21,male,yes,yes,3,7,419,stimuli/pictures/piano_electric_1.jpg,0,0,NA,TRUE,no,sound,stimuli/sounds/bird_sound_A.wav,/Users/martincz/GitHub/COGS119/group_wi26_motivated_cues/analysis/../data/raw_data/p1ap86fhd84_1772139272944.csv,FALSE
image-keyboard-response,666,110,518038,p1ap86fhd84,mus,duck,21,male,yes,yes,3,7,522,stimuli/pictures/drum_bongo_1.jpg,0,0,NA,TRUE,no,sound,stimuli/sounds/phone_label_A.wav,/Users/martincz/GitHub/COGS119/group_wi26_motivated_cues/analysis/../data/raw_data/p1ap86fhd84_1772139272944.csv,FALSE
image-keyboard-response,672,111,521985,p1ap86fhd84,mus,duck,21,male,yes,yes,3,7,672,stimuli/pictures/piano_grand_1.jpg,1,1,NA,TRUE,yes,sound,stimuli/sounds/piano_sound_A.wav,/Users/martincz/GitHub/COGS119/group_wi26_motivated_cues/analysis/../data/raw_data/p1ap86fhd84_1772139272944.csv,FALSE
image-keyboard-response,678,112,525967,p1ap86fhd84,mus,duck,21,male,yes,yes,3,7,608,stimuli/pictures/flute_wooden_2.jpg,1,1,NA,TRUE,no,sound,stimuli/sounds/flute_sound_A.wav,/Users/martincz/GitHub/COGS119/group_wi26_motivated_cues/analysis/../data/raw_data/p1ap86fhd84_1772139272944.csv,FALSE
image-keyboard-response,684,113,529958,p1ap86fhd84,mus,duck,21,male,yes,yes,3,7,546,stimuli/pictures/bird_song_1.jpg,1,1,NA,TRUE,yes,sound,stimuli/sounds/bird_label_A.wav,/Users/martincz/GitHub/COGS119/group_wi26_motivated_cues/analysis/../data/raw_data/p1ap86fhd84_1772139272944.csv,FALSE
image-keyboard-response,690,114,533886,p1ap86fhd84,mus,duck,21,male,yes,yes,3,7,700,stimuli/pictures/flute_metal_2.jpg,1,1,NA,TRUE,yes,sound,stimuli/sounds/flute_label_B.wav,/Users/martincz/GitHub/COGS119/group_wi26_motivated_cues/analysis/../data/raw_data/p1ap86fhd84_1772139272944.csv,FALSE
image-keyboard-response,696,115,537629,p1ap86fhd84,mus,duck,21,male,yes,yes,3,7,466,stimuli/pictures/piano_grand_2.jpg,0,0,NA,TRUE,no,sound,stimuli/sounds/bird_sound_A.wav,/Users/martincz/GitHub/COGS119/group_wi26_motivated_cues/analysis/../data/raw_data/p1ap86fhd84_1772139272944.csv,FALSE
image-keyboard-response,702,116,541909,p1ap86fhd84,mus,duck,21,male,yes,yes,3,7,459,stimuli/pictures/drum_kit_2.jpg,1,1,NA,TRUE,yes,sound,stimuli/sounds/drum_label_A.wav,/Users/martincz/GitHub/COGS119/group_wi26_motivated_cues/analysis/../data/raw_data/p1ap86fhd84_1772139272944.csv,FALSE
image-keyboard-response,708,117,545636,p1ap86fhd84,mus,duck,21,male,yes,yes,3,7,511,stimuli/pictures/phone_rotary_1.jpg,0,0,NA,TRUE,no,sound,stimuli/sounds/flute_sound_A.wav,/Users/martincz/GitHub/COGS119/group_wi26_motivated_cues/analysis/../data/raw_data/p1ap86fhd84_1772139272944.csv,FALSE
image-keyboard-response,714,118,549436,p1ap86fhd84,mus,duck,21,male,yes,yes,3,7,434,stimuli/pictures/piano_grand_1.jpg,0,0,NA,TRUE,no,sound,stimuli/sounds/phone_sound_B.wav,/Users/martincz/GitHub/COGS119/group_wi26_motivated_cues/analysis/../data/raw_data/p1ap86fhd84_1772139272944.csv,FALSE
image-keyboard-response,720,119,553062,p1ap86fhd84,mus,duck,21,male,yes,yes,3,7,431,stimuli/pictures/piano_electric_2.jpg,0,0,NA,TRUE,no,sound,stimuli/sounds/flute_label_A.wav,/Users/martincz/GitHub/COGS119/group_wi26_motivated_cues/analysis/../data/raw_data/p1ap86fhd84_1772139272944.csv,FALSE
image-keyboard-response,726,120,556751,p1ap86fhd84,mus,duck,21,male,yes,yes,3,7,425,stimuli/pictures/bird_hawk_1.jpg,1,1,NA,TRUE,yes,sound,stimuli/sounds/bird_label_B.wav,/Users/martincz/GitHub/COGS119/group_wi26_motivated_cues/analysis/../data/raw_data/p1ap86fhd84_1772139272944.csv,FALSE
image-keyboard-response,732,121,560539,p1ap86fhd84,mus,duck,21,male,yes,yes,3,7,509,stimuli/pictures/bird_hawk_1.jpg,0,0,NA,TRUE,no,sound,stimuli/sounds/flute_sound_B.wav,/Users/martincz/GitHub/COGS119/group_wi26_motivated_cues/analysis/../data/raw_data/p1ap86fhd84_1772139272944.csv,FALSE
image-keyboard-response,738,122,564602,p1ap86fhd84,mus,duck,21,male,yes,yes,3,7,589,stimuli/pictures/phone_cell_1.jpg,1,1,NA,TRUE,yes,sound,stimuli/sounds/phone_label_A.wav,/Users/martincz/GitHub/COGS119/group_wi26_motivated_cues/analysis/../data/raw_data/p1ap86fhd84_1772139272944.csv,FALSE
image-keyboard-response,744,123,568909,p1ap86fhd84,mus,duck,21,male,yes,yes,3,7,776,stimuli/pictures/drum_kit_1.jpg,0,0,NA,TRUE,no,sound,stimuli/sounds/phone_label_A.wav,/Users/martincz/GitHub/COGS119/group_wi26_motivated_cues/analysis/../data/raw_data/p1ap86fhd84_1772139272944.csv,FALSE
image-keyboard-response,750,124,572705,p1ap86fhd84,mus,duck,21,male,yes,yes,3,7,445,stimuli/pictures/flute_metal_2.jpg,0,0,NA,TRUE,no,sound,stimuli/sounds/drum_sound_A.wav,/Users/martincz/GitHub/COGS119/group_wi26_motivated_cues/analysis/../data/raw_data/p1ap86fhd84_1772139272944.csv,FALSE
image-keyboard-response,757,125,579326,p1ap86fhd84,mus,duck,21,male,yes,yes,3,7,487,stimuli/pictures/bird_song_1.jpg,0,0,NA,TRUE,no,sound,stimuli/sounds/phone_sound_A.wav,/Users/martincz/GitHub/COGS119/group_wi26_motivated_cues/analysis/../data/raw_data/p1ap86fhd84_1772139272944.csv,FALSE
image-keyboard-response,763,126,583102,p1ap86fhd84,mus,duck,21,male,yes,yes,3,7,567,stimuli/pictures/piano_electric_2.jpg,1,1,NA,TRUE,no,sound,stimuli/sounds/piano_sound_A.wav,/Users/martincz/GitHub/COGS119/group_wi26_motivated_cues/analysis/../data/raw_data/p1ap86fhd84_1772139272944.csv,FALSE
image-keyboard-response,769,127,586904,p1ap86fhd84,mus,duck,21,male,yes,yes,3,7,490,stimuli/pictures/bird_hawk_1.jpg,1,1,NA,TRUE,yes,sound,stimuli/sounds/bird_label_A.wav,/Users/martincz/GitHub/COGS119/group_wi26_motivated_cues/analysis/../data/raw_data/p1ap86fhd84_1772139272944.csv,FALSE
image-keyboard-response,775,128,590724,p1ap86fhd84,mus,duck,21,male,yes,yes,3,7,612,stimuli/pictures/drum_kit_2.jpg,0,0,NA,TRUE,no,sound,stimuli/sounds/flute_label_B.wav,/Users/martincz/GitHub/COGS119/group_wi26_motivated_cues/analysis/../data/raw_data/p1ap86fhd84_1772139272944.csv,FALSE
image-keyboard-response,781,129,594374,p1ap86fhd84,mus,duck,21,male,yes,yes,3,7,479,stimuli/pictures/drum_kit_2.jpg,0,0,NA,TRUE,no,sound,stimuli/sounds/bird_sound_B.wav,/Users/martincz/GitHub/COGS119/group_wi26_motivated_cues/analysis/../data/raw_data/p1ap86fhd84_1772139272944.csv,FALSE
image-keyboard-response,787,130,597920,p1ap86fhd84,mus,duck,21,male,yes,yes,3,7,512,stimuli/pictures/flute_wooden_2.jpg,1,1,NA,TRUE,yes,sound,stimuli/sounds/flute_label_B.wav,/Users/martincz/GitHub/COGS119/group_wi26_motivated_cues/analysis/../data/raw_data/p1ap86fhd84_1772139272944.csv,FALSE
image-keyboard-response,793,131,601508,p1ap86fhd84,mus,duck,21,male,yes,yes,3,7,442,stimuli/pictures/phone_rotary_2.jpg,0,0,NA,TRUE,no,sound,stimuli/sounds/bird_label_B.wav,/Users/martincz/GitHub/COGS119/group_wi26_motivated_cues/analysis/../data/raw_data/p1ap86fhd84_1772139272944.csv,FALSE
image-keyboard-response,799,132,604971,p1ap86fhd84,mus,duck,21,male,yes,yes,3,7,433,stimuli/pictures/phone_cell_2.jpg,1,1,NA,TRUE,yes,sound,stimuli/sounds/phone_label_A.wav,/Users/martincz/GitHub/COGS119/group_wi26_motivated_cues/analysis/../data/raw_data/p1ap86fhd84_1772139272944.csv,FALSE
image-keyboard-response,805,133,608679,p1ap86fhd84,mus,duck,21,male,yes,yes,3,7,399,stimuli/pictures/bird_song_2.jpg,0,0,NA,TRUE,no,sound,stimuli/sounds/drum_label_A.wav,/Users/martincz/GitHub/COGS119/group_wi26_motivated_cues/analysis/../data/raw_data/p1ap86fhd84_1772139272944.csv,FALSE
image-keyboard-response,811,134,612317,p1ap86fhd84,mus,duck,21,male,yes,yes,3,7,420,stimuli/pictures/flute_wooden_2.jpg,0,0,NA,TRUE,no,sound,stimuli/sounds/phone_label_B.wav,/Users/martincz/GitHub/COGS119/group_wi26_motivated_cues/analysis/../data/raw_data/p1ap86fhd84_1772139272944.csv,FALSE
image-keyboard-response,817,135,617114,p1ap86fhd84,mus,duck,21,male,yes,yes,3,7,528,stimuli/pictures/flute_wooden_1.jpg,0,0,NA,TRUE,no,sound,stimuli/sounds/phone_label_B.wav,/Users/martincz/GitHub/COGS119/group_wi26_motivated_cues/analysis/../data/raw_data/p1ap86fhd84_1772139272944.csv,FALSE
image-keyboard-response,823,136,621120,p1ap86fhd84,mus,duck,21,male,yes,yes,3,7,499,stimuli/pictures/phone_rotary_1.jpg,1,1,NA,TRUE,yes,sound,stimuli/sounds/phone_label_A.wav,/Users/martincz/GitHub/COGS119/group_wi26_motivated_cues/analysis/../data/raw_data/p1ap86fhd84_1772139272944.csv,FALSE
image-keyboard-response,829,137,627385,p1ap86fhd84,mus,duck,21,male,yes,yes,3,7,2962,stimuli/pictures/piano_grand_1.jpg,0,1,NA,FALSE,no,sound,stimuli/sounds/piano_sound_B.wav,/Users/martincz/GitHub/COGS119/group_wi26_motivated_cues/analysis/../data/raw_data/p1ap86fhd84_1772139272944.csv,FALSE
image-keyboard-response,835,138,631357,p1ap86fhd84,mus,duck,21,male,yes,yes,3,7,579,stimuli/pictures/flute_metal_2.jpg,1,1,NA,TRUE,no,sound,stimuli/sounds/flute_sound_B.wav,/Users/martincz/GitHub/COGS119/group_wi26_motivated_cues/analysis/../data/raw_data/p1ap86fhd84_1772139272944.csv,FALSE
image-keyboard-response,841,139,635124,p1ap86fhd84,mus,duck,21,male,yes,yes,3,7,423,stimuli/pictures/flute_metal_1.jpg,0,0,NA,TRUE,no,sound,stimuli/sounds/bird_label_A.wav,/Users/martincz/GitHub/COGS119/group_wi26_motivated_cues/analysis/../data/raw_data/p1ap86fhd84_1772139272944.csv,FALSE
image-keyboard-response,847,140,639071,p1ap86fhd84,mus,duck,21,male,yes,yes,3,7,604,stimuli/pictures/bird_song_2.jpg,1,1,NA,TRUE,yes,sound,stimuli/sounds/bird_label_B.wav,/Users/martincz/GitHub/COGS119/group_wi26_motivated_cues/analysis/../data/raw_data/p1ap86fhd84_1772139272944.csv,FALSE
image-keyboard-response,853,141,643096,p1ap86fhd84,mus,duck,21,male,yes,yes,3,7,706,stimuli/pictures/drum_bongo_2.jpg,0,0,NA,TRUE,no,sound,stimuli/sounds/phone_label_A.wav,/Users/martincz/GitHub/COGS119/group_wi26_motivated_cues/analysis/../data/raw_data/p1ap86fhd84_1772139272944.csv,FALSE
image-keyboard-response,859,142,647007,p1ap86fhd84,mus,duck,21,male,yes,yes,3,7,852,stimuli/pictures/flute_wooden_2.jpg,0,0,NA,TRUE,no,sound,stimuli/sounds/bird_label_A.wav,/Users/martincz/GitHub/COGS119/group_wi26_motivated_cues/analysis/../data/raw_data/p1ap86fhd84_1772139272944.csv,FALSE
image-keyboard-response,865,143,650627,p1ap86fhd84,mus,duck,21,male,yes,yes,3,7,432,stimuli/pictures/phone_cell_1.jpg,0,0,NA,TRUE,no,sound,stimuli/sounds/drum_sound_B.wav,/Users/martincz/GitHub/COGS119/group_wi26_motivated_cues/analysis/../data/raw_data/p1ap86fhd84_1772139272944.csv,FALSE
image-keyboard-response,871,144,654589,p1ap86fhd84,mus,duck,21,male,yes,yes,3,7,405,stimuli/pictures/drum_bongo_1.jpg,1,1,NA,TRUE,yes,sound,stimuli/sounds/drum_label_B.wav,/Users/martincz/GitHub/COGS119/group_wi26_motivated_cues/analysis/../data/raw_data/p1ap86fhd84_1772139272944.csv,FALSE
image-keyboard-response,878,145,660803,p1ap86fhd84,mus,duck,21,male,yes,yes,3,7,702,stimuli/pictures/bird_hawk_1.jpg,0,0,NA,TRUE,no,sound,stimuli/sounds/piano_label_B.wav,/Users/martincz/GitHub/COGS119/group_wi26_motivated_cues/analysis/../data/raw_data/p1ap86fhd84_1772139272944.csv,FALSE
image-keyboard-response,884,146,665143,p1ap86fhd84,mus,duck,21,male,yes,yes,3,7,795,stimuli/pictures/bird_song_1.jpg,0,0,NA,TRUE,no,sound,stimuli/sounds/drum_label_A.wav,/Users/martincz/GitHub/COGS119/group_wi26_motivated_cues/analysis/../data/raw_data/p1ap86fhd84_1772139272944.csv,FALSE
image-keyboard-response,890,147,669150,p1ap86fhd84,mus,duck,21,male,yes,yes,3,7,465,stimuli/pictures/bird_hawk_1.jpg,0,0,NA,TRUE,no,sound,stimuli/sounds/phone_sound_A.wav,/Users/martincz/GitHub/COGS119/group_wi26_motivated_cues/analysis/../data/raw_data/p1ap86fhd84_1772139272944.csv,FALSE
image-keyboard-response,896,148,673273,p1ap86fhd84,mus,duck,21,male,yes,yes,3,7,912,stimuli/pictures/drum_kit_1.jpg,0,0,NA,TRUE,no,sound,stimuli/sounds/bird_sound_B.wav,/Users/martincz/GitHub/COGS119/group_wi26_motivated_cues/analysis/../data/raw_data/p1ap86fhd84_1772139272944.csv,FALSE
image-keyboard-response,902,149,677261,p1ap86fhd84,mus,duck,21,male,yes,yes,3,7,751,stimuli/pictures/bird_song_2.jpg,1,1,NA,TRUE,yes,sound,stimuli/sounds/bird_sound_B.wav,/Users/martincz/GitHub/COGS119/group_wi26_motivated_cues/analysis/../data/raw_data/p1ap86fhd84_1772139272944.csv,FALSE
image-keyboard-response,908,150,680909,p1ap86fhd84,mus,duck,21,male,yes,yes,3,7,464,stimuli/pictures/bird_hawk_1.jpg,1,1,NA,TRUE,yes,sound,stimuli/sounds/bird_label_B.wav,/Users/martincz/GitHub/COGS119/group_wi26_motivated_cues/analysis/../data/raw_data/p1ap86fhd84_1772139272944.csv,FALSE
image-keyboard-response,914,151,684687,p1ap86fhd84,mus,duck,21,male,yes,yes,3,7,471,stimuli/pictures/flute_metal_1.jpg,1,1,NA,TRUE,no,sound,stimuli/sounds/flute_sound_B.wav,/Users/martincz/GitHub/COGS119/group_wi26_motivated_cues/analysis/../data/raw_data/p1ap86fhd84_1772139272944.csv,FALSE
image-keyboard-response,920,152,688314,p1ap86fhd84,mus,duck,21,male,yes,yes,3,7,426,stimuli/pictures/bird_hawk_1.jpg,1,1,NA,TRUE,no,sound,stimuli/sounds/bird_sound_B.wav,/Users/martincz/GitHub/COGS119/group_wi26_motivated_cues/analysis/../data/raw_data/p1ap86fhd84_1772139272944.csv,FALSE
image-keyboard-response,926,153,692197,p1ap86fhd84,mus,duck,21,male,yes,yes,3,7,621,stimuli/pictures/flute_wooden_2.jpg,1,1,NA,TRUE,yes,sound,stimuli/sounds/flute_sound_B.wav,/Users/martincz/GitHub/COGS119/group_wi26_motivated_cues/analysis/../data/raw_data/p1ap86fhd84_1772139272944.csv,FALSE
image-keyboard-response,932,154,696017,p1ap86fhd84,mus,duck,21,male,yes,yes,3,7,428,stimuli/pictures/drum_kit_2.jpg,1,0,NA,FALSE,no,sound,stimuli/sounds/phone_label_A.wav,/Users/martincz/GitHub/COGS119/group_wi26_motivated_cues/analysis/../data/raw_data/p1ap86fhd84_1772139272944.csv,FALSE
image-keyboard-response,938,155,699863,p1ap86fhd84,mus,duck,21,male,yes,yes,3,7,511,stimuli/pictures/phone_cell_2.jpg,1,1,NA,TRUE,yes,sound,stimuli/sounds/phone_label_B.wav,/Users/martincz/GitHub/COGS119/group_wi26_motivated_cues/analysis/../data/raw_data/p1ap86fhd84_1772139272944.csv,FALSE
image-keyboard-response,944,156,703560,p1ap86fhd84,mus,duck,21,male,yes,yes,3,7,489,stimuli/pictures/phone_rotary_2.jpg,0,0,NA,TRUE,no,sound,stimuli/sounds/piano_label_A.wav,/Users/martincz/GitHub/COGS119/group_wi26_motivated_cues/analysis/../data/raw_data/p1ap86fhd84_1772139272944.csv,FALSE
image-keyboard-response,950,157,707452,p1ap86fhd84,mus,duck,21,male,yes,yes,3,7,516,stimuli/pictures/drum_bongo_1.jpg,0,0,NA,TRUE,no,sound,stimuli/sounds/flute_label_B.wav,/Users/martincz/GitHub/COGS119/group_wi26_motivated_cues/analysis/../data/raw_data/p1ap86fhd84_1772139272944.csv,FALSE
image-keyboard-response,956,158,711475,p1ap86fhd84,mus,duck,21,male,yes,yes,3,7,549,stimuli/pictures/phone_cell_1.jpg,1,1,NA,TRUE,no,sound,stimuli/sounds/phone_sound_B.wav,/Users/martincz/GitHub/COGS119/group_wi26_motivated_cues/analysis/../data/raw_data/p1ap86fhd84_1772139272944.csv,FALSE
image-keyboard-response,962,159,715078,p1ap86fhd84,mus,duck,21,male,yes,yes,3,7,455,stimuli/pictures/flute_metal_1.jpg,0,0,NA,TRUE,no,sound,stimuli/sounds/drum_sound_A.wav,/Users/martincz/GitHub/COGS119/group_wi26_motivated_cues/analysis/../data/raw_data/p1ap86fhd84_1772139272944.csv,FALSE
image-keyboard-response,968,160,719683,p1ap86fhd84,mus,duck,21,male,yes,yes,3,7,927,stimuli/pictures/drum_bongo_2.jpg,0,1,NA,FALSE,no,sound,stimuli/sounds/drum_sound_A.wav,/Users/martincz/GitHub/COGS119/group_wi26_motivated_cues/analysis/../data/raw_data/p1ap86fhd84_1772139272944.csv,FALSE
image-keyboard-response,974,161,724362,p1ap86fhd84,mus,duck,21,male,yes,yes,3,7,1494,stimuli/pictures/piano_grand_2.jpg,1,1,NA,TRUE,yes,sound,stimuli/sounds/piano_sound_A.wav,/Users/martincz/GitHub/COGS119/group_wi26_motivated_cues/analysis/../data/raw_data/p1ap86fhd84_1772139272944.csv,FALSE
image-keyboard-response,980,162,728256,p1ap86fhd84,mus,duck,21,male,yes,yes,3,7,578,stimuli/pictures/piano_grand_1.jpg,1,1,NA,TRUE,yes,sound,stimuli/sounds/piano_label_B.wav,/Users/martincz/GitHub/COGS119/group_wi26_motivated_cues/analysis/../data/raw_data/p1ap86fhd84_1772139272944.csv,FALSE
image-keyboard-response,986,163,732017,p1ap86fhd84,mus,duck,21,male,yes,yes,3,7,589,stimuli/pictures/flute_wooden_1.jpg,0,0,NA,TRUE,no,sound,stimuli/sounds/bird_label_A.wav,/Users/martincz/GitHub/COGS119/group_wi26_motivated_cues/analysis/../data/raw_data/p1ap86fhd84_1772139272944.csv,FALSE
image-keyboard-response,992,164,735942,p1ap86fhd84,mus,duck,21,male,yes,yes,3,7,685,stimuli/pictures/flute_wooden_2.jpg,0,0,NA,TRUE,no,sound,stimuli/sounds/piano_sound_B.wav,/Users/martincz/GitHub/COGS119/group_wi26_motivated_cues/analysis/../data/raw_data/p1ap86fhd84_1772139272944.csv,FALSE
image-keyboard-response,8,1,136119,p2h35xrhv75,ono,pony,21,female,no,no,0,0,1099,stimuli/pictures/guitar_acoustic_1.jpg,1,1,TRUE,TRUE,NA,NA,NA,/Users/martincz/GitHub/COGS119/group_wi26_motivated_cues/analysis/../data/raw_data/p2h35xrhv75_1772139649218.csv,FALSE
image-keyboard-response,13,2,139415,p2h35xrhv75,ono,pony,21,female,no,no,0,0,687,stimuli/pictures/guitar_acoustic_2.jpg,1,1,TRUE,TRUE,NA,NA,NA,/Users/martincz/GitHub/COGS119/group_wi26_motivated_cues/analysis/../data/raw_data/p2h35xrhv75_1772139649218.csv,FALSE
image-keyboard-response,18,3,143001,p2h35xrhv75,ono,pony,21,female,no,no,0,0,973,stimuli/pictures/guitar_electric_1.jpg,0,0,TRUE,TRUE,NA,NA,NA,/Users/martincz/GitHub/COGS119/group_wi26_motivated_cues/analysis/../data/raw_data/p2h35xrhv75_1772139649218.csv,FALSE
image-keyboard-response,23,4,146080,p2h35xrhv75,ono,pony,21,female,no,no,0,0,472,stimuli/pictures/guitar_acoustic_1.jpg,1,1,TRUE,TRUE,NA,NA,NA,/Users/martincz/GitHub/COGS119/group_wi26_motivated_cues/analysis/../data/raw_data/p2h35xrhv75_1772139649218.csv,FALSE
image-keyboard-response,31,5,151479,p2h35xrhv75,ono,pony,21,female,no,no,0,0,631,stimuli/pictures/motor_dirt_1.jpg,1,1,NA,TRUE,no,sound,stimuli/sounds/motor_sound_B.wav,/Users/martincz/GitHub/COGS119/group_wi26_motivated_cues/analysis/../data/raw_data/p2h35xrhv75_1772139649218.csv,FALSE
image-keyboard-response,37,6,157669,p2h35xrhv75,ono,pony,21,female,no,no,0,0,555,stimuli/pictures/drop_multi_2.jpg,0,0,NA,TRUE,no,sound,stimuli/sounds/dog_label_A.wav,/Users/martincz/GitHub/COGS119/group_wi26_motivated_cues/analysis/../data/raw_data/p2h35xrhv75_1772139649218.csv,FALSE
image-keyboard-response,43,7,161739,p2h35xrhv75,ono,pony,21,female,no,no,0,0,417,stimuli/pictures/hiccup_man_2.jpg,0,0,NA,TRUE,no,sound,stimuli/sounds/motor_label_B.wav,/Users/martincz/GitHub/COGS119/group_wi26_motivated_cues/analysis/../data/raw_data/p2h35xrhv75_1772139649218.csv,FALSE
image-keyboard-response,49,8,165701,p2h35xrhv75,ono,pony,21,female,no,no,0,0,518,stimuli/pictures/dog_york_2.jpg,0,0,NA,TRUE,no,sound,stimuli/sounds/hiccup_label_B.wav,/Users/martincz/GitHub/COGS119/group_wi26_motivated_cues/analysis/../data/raw_data/p2h35xrhv75_1772139649218.csv,FALSE
image-keyboard-response,55,9,170334,p2h35xrhv75,ono,pony,21,female,no,no,0,0,465,stimuli/pictures/hiccup_wom_2.jpg,0,0,NA,TRUE,no,sound,stimuli/sounds/dog_sound_A.wav,/Users/martincz/GitHub/COGS119/group_wi26_motivated_cues/analysis/../data/raw_data/p2h35xrhv75_1772139649218.csv,FALSE
image-keyboard-response,61,10,175959,p2h35xrhv75,ono,pony,21,female,no,no,0,0,572,stimuli/pictures/hiccup_wom_1.jpg,1,1,NA,TRUE,no,sound,stimuli/sounds/hiccup_sound_B.wav,/Users/martincz/GitHub/COGS119/group_wi26_motivated_cues/analysis/../data/raw_data/p2h35xrhv75_1772139649218.csv,FALSE
image-keyboard-response,67,11,181969,p2h35xrhv75,ono,pony,21,female,no,no,0,0,435,stimuli/pictures/motor_dirt_2.jpg,1,1,NA,TRUE,yes,sound,stimuli/sounds/motor_sound_A.wav,/Users/martincz/GitHub/COGS119/group_wi26_motivated_cues/analysis/../data/raw_data/p2h35xrhv75_1772139649218.csv,FALSE
image-keyboard-response,73,12,187104,p2h35xrhv75,ono,pony,21,female,no,no,0,0,819,stimuli/pictures/drop_multi_2.jpg,0,0,NA,TRUE,no,sound,stimuli/sounds/cough_label_B.wav,/Users/martincz/GitHub/COGS119/group_wi26_motivated_cues/analysis/../data/raw_data/p2h35xrhv75_1772139649218.csv,FALSE
image-keyboard-response,79,13,192723,p2h35xrhv75,ono,pony,21,female,no,no,0,0,457,stimuli/pictures/motor_dirt_1.jpg,1,1,NA,TRUE,yes,sound,stimuli/sounds/motor_label_B.wav,/Users/martincz/GitHub/COGS119/group_wi26_motivated_cues/analysis/../data/raw_data/p2h35xrhv75_1772139649218.csv,FALSE
image-keyboard-response,85,14,208909,p2h35xrhv75,ono,pony,21,female,no,no,0,0,1171,stimuli/pictures/drop_multi_1.jpg,1,0,NA,FALSE,no,sound,stimuli/sounds/motor_sound_A.wav,/Users/martincz/GitHub/COGS119/group_wi26_motivated_cues/analysis/../data/raw_data/p2h35xrhv75_1772139649218.csv,FALSE
image-keyboard-response,91,15,212873,p2h35xrhv75,ono,pony,21,female,no,no,0,0,357,stimuli/pictures/cough_wom_1.jpg,1,1,NA,TRUE,yes,sound,stimuli/sounds/cough_sound_A.wav,/Users/martincz/GitHub/COGS119/group_wi26_motivated_cues/analysis/../data/raw_data/p2h35xrhv75_1772139649218.csv,FALSE
image-keyboard-response,97,16,217111,p2h35xrhv75,ono,pony,21,female,no,no,0,0,437,stimuli/pictures/drop_multi_2.jpg,0,0,NA,TRUE,no,sound,stimuli/sounds/motor_sound_A.wav,/Users/martincz/GitHub/COGS119/group_wi26_motivated_cues/analysis/../data/raw_data/p2h35xrhv75_1772139649218.csv,FALSE
image-keyboard-response,103,17,221539,p2h35xrhv75,ono,pony,21,female,no,no,0,0,1105,stimuli/pictures/drop_multi_1.jpg,0,1,NA,FALSE,yes,sound,stimuli/sounds/drop_sound_B.wav,/Users/martincz/GitHub/COGS119/group_wi26_motivated_cues/analysis/../data/raw_data/p2h35xrhv75_1772139649218.csv,FALSE
image-keyboard-response,109,18,226527,p2h35xrhv75,ono,pony,21,female,no,no,0,0,1589,stimuli/pictures/drop_multi_2.jpg,0,1,NA,FALSE,yes,sound,stimuli/sounds/drop_label_B.wav,/Users/martincz/GitHub/COGS119/group_wi26_motivated_cues/analysis/../data/raw_data/p2h35xrhv75_1772139649218.csv,FALSE
image-keyboard-response,115,19,231035,p2h35xrhv75,ono,pony,21,female,no,no,0,0,851,stimuli/pictures/drop_single_1.jpg,0,0,NA,TRUE,no,sound,stimuli/sounds/cough_label_B.wav,/Users/martincz/GitHub/COGS119/group_wi26_motivated_cues/analysis/../data/raw_data/p2h35xrhv75_1772139649218.csv,FALSE
image-keyboard-response,121,20,235512,p2h35xrhv75,ono,pony,21,female,no,no,0,0,696,stimuli/pictures/dog_rott_1.jpg,0,0,NA,TRUE,no,sound,stimuli/sounds/cough_sound_A.wav,/Users/martincz/GitHub/COGS119/group_wi26_motivated_cues/analysis/../data/raw_data/p2h35xrhv75_1772139649218.csv,FALSE
image-keyboard-response,127,21,240199,p2h35xrhv75,ono,pony,21,female,no,no,0,0,1224,stimuli/pictures/dog_rott_2.jpg,1,1,NA,TRUE,no,sound,stimuli/sounds/dog_sound_B.wav,/Users/martincz/GitHub/COGS119/group_wi26_motivated_cues/analysis/../data/raw_data/p2h35xrhv75_1772139649218.csv,FALSE
image-keyboard-response,133,22,245927,p2h35xrhv75,ono,pony,21,female,no,no,0,0,1000,stimuli/pictures/cough_wom_1.jpg,1,1,NA,TRUE,no,sound,stimuli/sounds/cough_sound_B.wav,/Users/martincz/GitHub/COGS119/group_wi26_motivated_cues/analysis/../data/raw_data/p2h35xrhv75_1772139649218.csv,FALSE
image-keyboard-response,139,23,251330,p2h35xrhv75,ono,pony,21,female,no,no,0,0,1207,stimuli/pictures/cough_wom_1.jpg,0,1,NA,FALSE,yes,sound,stimuli/sounds/cough_label_A.wav,/Users/martincz/GitHub/COGS119/group_wi26_motivated_cues/analysis/../data/raw_data/p2h35xrhv75_1772139649218.csv,FALSE
image-keyboard-response,145,24,256312,p2h35xrhv75,ono,pony,21,female,no,no,0,0,615,stimuli/pictures/motor_harley_1.jpg,0,0,NA,TRUE,no,sound,stimuli/sounds/cough_label_A.wav,/Users/martincz/GitHub/COGS119/group_wi26_motivated_cues/analysis/../data/raw_data/p2h35xrhv75_1772139649218.csv,FALSE
image-keyboard-response,152,25,266470,p2h35xrhv75,ono,pony,21,female,no,no,0,0,414,stimuli/pictures/cough_wom_2.jpg,1,1,NA,TRUE,yes,sound,stimuli/sounds/cough_label_A.wav,/Users/martincz/GitHub/COGS119/group_wi26_motivated_cues/analysis/../data/raw_data/p2h35xrhv75_1772139649218.csv,FALSE
image-keyboard-response,158,26,270268,p2h35xrhv75,ono,pony,21,female,no,no,0,0,366,stimuli/pictures/motor_harley_2.jpg,0,0,NA,TRUE,no,sound,stimuli/sounds/hiccup_sound_A.wav,/Users/martincz/GitHub/COGS119/group_wi26_motivated_cues/analysis/../data/raw_data/p2h35xrhv75_1772139649218.csv,FALSE
image-keyboard-response,164,27,274809,p2h35xrhv75,ono,pony,21,female,no,no,0,0,1052,stimuli/pictures/dog_rott_1.jpg,1,1,NA,TRUE,yes,sound,stimuli/sounds/dog_label_A.wav,/Users/martincz/GitHub/COGS119/group_wi26_motivated_cues/analysis/../data/raw_data/p2h35xrhv75_1772139649218.csv,FALSE
image-keyboard-response,170,28,279345,p2h35xrhv75,ono,pony,21,female,no,no,0,0,1190,stimuli/pictures/dog_rott_1.jpg,1,1,NA,TRUE,no,sound,stimuli/sounds/dog_sound_B.wav,/Users/martincz/GitHub/COGS119/group_wi26_motivated_cues/analysis/../data/raw_data/p2h35xrhv75_1772139649218.csv,FALSE
image-keyboard-response,176,29,285266,p2h35xrhv75,ono,pony,21,female,no,no,0,0,691,stimuli/pictures/dog_york_1.jpg,1,1,NA,TRUE,yes,sound,stimuli/sounds/dog_label_A.wav,/Users/martincz/GitHub/COGS119/group_wi26_motivated_cues/analysis/../data/raw_data/p2h35xrhv75_1772139649218.csv,FALSE
image-keyboard-response,182,30,289541,p2h35xrhv75,ono,pony,21,female,no,no,0,0,418,stimuli/pictures/dog_rott_2.jpg,1,1,NA,TRUE,yes,sound,stimuli/sounds/dog_label_B.wav,/Users/martincz/GitHub/COGS119/group_wi26_motivated_cues/analysis/../data/raw_data/p2h35xrhv75_1772139649218.csv,FALSE
image-keyboard-response,188,31,296413,p2h35xrhv75,ono,pony,21,female,no,no,0,0,636,stimuli/pictures/dog_rott_1.jpg,0,0,NA,TRUE,no,sound,stimuli/sounds/drop_sound_B.wav,/Users/martincz/GitHub/COGS119/group_wi26_motivated_cues/analysis/../data/raw_data/p2h35xrhv75_1772139649218.csv,FALSE
image-keyboard-response,194,32,301696,p2h35xrhv75,ono,pony,21,female,no,no,0,0,402,stimuli/pictures/cough_man_1.jpg,1,1,NA,TRUE,no,sound,stimuli/sounds/cough_sound_A.wav,/Users/martincz/GitHub/COGS119/group_wi26_motivated_cues/analysis/../data/raw_data/p2h35xrhv75_1772139649218.csv,FALSE
image-keyboard-response,200,33,315690,p2h35xrhv75,ono,pony,21,female,no,no,0,0,761,stimuli/pictures/drop_multi_1.jpg,0,1,NA,FALSE,no,sound,stimuli/sounds/drop_sound_A.wav,/Users/martincz/GitHub/COGS119/group_wi26_motivated_cues/analysis/../data/raw_data/p2h35xrhv75_1772139649218.csv,FALSE
image-keyboard-response,206,34,319977,p2h35xrhv75,ono,pony,21,female,no,no,0,0,744,stimuli/pictures/hiccup_man_2.jpg,0,0,NA,TRUE,no,sound,stimuli/sounds/dog_sound_A.wav,/Users/martincz/GitHub/COGS119/group_wi26_motivated_cues/analysis/../data/raw_data/p2h35xrhv75_1772139649218.csv,FALSE
image-keyboard-response,212,35,325104,p2h35xrhv75,ono,pony,21,female,no,no,0,0,1386,stimuli/pictures/hiccup_man_1.jpg,1,0,NA,FALSE,no,sound,stimuli/sounds/cough_sound_B.wav,/Users/martincz/GitHub/COGS119/group_wi26_motivated_cues/analysis/../data/raw_data/p2h35xrhv75_1772139649218.csv,FALSE
image-keyboard-response,218,36,329715,p2h35xrhv75,ono,pony,21,female,no,no,0,0,493,stimuli/pictures/drop_single_1.jpg,0,0,NA,TRUE,no,sound,stimuli/sounds/hiccup_sound_B.wav,/Users/martincz/GitHub/COGS119/group_wi26_motivated_cues/analysis/../data/raw_data/p2h35xrhv75_1772139649218.csv,FALSE
image-keyboard-response,224,37,334389,p2h35xrhv75,ono,pony,21,female,no,no,0,0,1198,stimuli/pictures/hiccup_wom_1.jpg,1,1,NA,TRUE,yes,sound,stimuli/sounds/hiccup_label_B.wav,/Users/martincz/GitHub/COGS119/group_wi26_motivated_cues/analysis/../data/raw_data/p2h35xrhv75_1772139649218.csv,FALSE
image-keyboard-response,230,38,338861,p2h35xrhv75,ono,pony,21,female,no,no,0,0,937,stimuli/pictures/motor_harley_1.jpg,1,1,NA,TRUE,no,sound,stimuli/sounds/motor_sound_A.wav,/Users/martincz/GitHub/COGS119/group_wi26_motivated_cues/analysis/../data/raw_data/p2h35xrhv75_1772139649218.csv,FALSE
image-keyboard-response,236,39,344987,p2h35xrhv75,ono,pony,21,female,no,no,0,0,1058,stimuli/pictures/cough_wom_1.jpg,1,0,NA,FALSE,no,sound,stimuli/sounds/drop_sound_A.wav,/Users/martincz/GitHub/COGS119/group_wi26_motivated_cues/analysis/../data/raw_data/p2h35xrhv75_1772139649218.csv,FALSE
image-keyboard-response,242,40,349577,p2h35xrhv75,ono,pony,21,female,no,no,0,0,923,stimuli/pictures/drop_multi_1.jpg,1,1,NA,TRUE,yes,sound,stimuli/sounds/drop_label_B.wav,/Users/martincz/GitHub/COGS119/group_wi26_motivated_cues/analysis/../data/raw_data/p2h35xrhv75_1772139649218.csv,FALSE
image-keyboard-response,248,41,354459,p2h35xrhv75,ono,pony,21,female,no,no,0,0,1070,stimuli/pictures/hiccup_wom_1.jpg,0,0,NA,TRUE,no,sound,stimuli/sounds/cough_sound_B.wav,/Users/martincz/GitHub/COGS119/group_wi26_motivated_cues/analysis/../data/raw_data/p2h35xrhv75_1772139649218.csv,FALSE
image-keyboard-response,254,42,362030,p2h35xrhv75,ono,pony,21,female,no,no,0,0,535,stimuli/pictures/drop_multi_2.jpg,0,0,NA,TRUE,no,sound,stimuli/sounds/hiccup_sound_B.wav,/Users/martincz/GitHub/COGS119/group_wi26_motivated_cues/analysis/../data/raw_data/p2h35xrhv75_1772139649218.csv,FALSE
image-keyboard-response,260,43,367113,p2h35xrhv75,ono,pony,21,female,no,no,0,0,415,stimuli/pictures/drop_multi_1.jpg,0,0,NA,TRUE,no,sound,stimuli/sounds/cough_label_B.wav,/Users/martincz/GitHub/COGS119/group_wi26_motivated_cues/analysis/../data/raw_data/p2h35xrhv75_1772139649218.csv,FALSE
image-keyboard-response,266,44,371286,p2h35xrhv75,ono,pony,21,female,no,no,0,0,486,stimuli/pictures/hiccup_wom_1.jpg,1,1,NA,TRUE,yes,sound,stimuli/sounds/hiccup_label_A.wav,/Users/martincz/GitHub/COGS119/group_wi26_motivated_cues/analysis/../data/raw_data/p2h35xrhv75_1772139649218.csv,FALSE
image-keyboard-response,273,45,379288,p2h35xrhv75,ono,pony,21,female,no,no,0,0,328,stimuli/pictures/motor_harley_2.jpg,1,1,NA,TRUE,yes,sound,stimuli/sounds/motor_sound_B.wav,/Users/martincz/GitHub/COGS119/group_wi26_motivated_cues/analysis/../data/raw_data/p2h35xrhv75_1772139649218.csv,FALSE
image-keyboard-response,279,46,386261,p2h35xrhv75,ono,pony,21,female,no,no,0,0,896,stimuli/pictures/hiccup_wom_1.jpg,1,1,NA,TRUE,yes,sound,stimuli/sounds/hiccup_sound_A.wav,/Users/martincz/GitHub/COGS119/group_wi26_motivated_cues/analysis/../data/raw_data/p2h35xrhv75_1772139649218.csv,FALSE
image-keyboard-response,285,47,390543,p2h35xrhv75,ono,pony,21,female,no,no,0,0,489,stimuli/pictures/dog_rott_1.jpg,0,0,NA,TRUE,no,sound,stimuli/sounds/motor_label_A.wav,/Users/martincz/GitHub/COGS119/group_wi26_motivated_cues/analysis/../data/raw_data/p2h35xrhv75_1772139649218.csv,FALSE
image-keyboard-response,291,48,399563,p2h35xrhv75,ono,pony,21,female,no,no,0,0,2172,stimuli/pictures/motor_harley_2.jpg,0,0,NA,TRUE,no,sound,stimuli/sounds/dog_sound_B.wav,/Users/martincz/GitHub/COGS119/group_wi26_motivated_cues/analysis/../data/raw_data/p2h35xrhv75_1772139649218.csv,FALSE
image-keyboard-response,297,49,403514,p2h35xrhv75,ono,pony,21,female,no,no,0,0,496,stimuli/pictures/hiccup_wom_1.jpg,0,0,NA,TRUE,no,sound,stimuli/sounds/motor_label_B.wav,/Users/martincz/GitHub/COGS119/group_wi26_motivated_cues/analysis/../data/raw_data/p2h35xrhv75_1772139649218.csv,FALSE
image-keyboard-response,303,50,407278,p2h35xrhv75,ono,pony,21,female,no,no,0,0,151,stimuli/pictures/motor_dirt_1.jpg,0,1,NA,FALSE,yes,sound,stimuli/sounds/motor_label_A.wav,/Users/martincz/GitHub/COGS119/group_wi26_motivated_cues/analysis/../data/raw_data/p2h35xrhv75_1772139649218.csv,FALSE
image-keyboard-response,309,51,411448,p2h35xrhv75,ono,pony,21,female,no,no,0,0,218,stimuli/pictures/cough_man_1.jpg,0,0,NA,TRUE,no,sound,stimuli/sounds/hiccup_label_A.wav,/Users/martincz/GitHub/COGS119/group_wi26_motivated_cues/analysis/../data/raw_data/p2h35xrhv75_1772139649218.csv,FALSE
image-keyboard-response,315,52,415400,p2h35xrhv75,ono,pony,21,female,no,no,0,0,516,stimuli/pictures/cough_wom_1.jpg,0,1,NA,FALSE,yes,sound,stimuli/sounds/cough_label_B.wav,/Users/martincz/GitHub/COGS119/group_wi26_motivated_cues/analysis/../data/raw_data/p2h35xrhv75_1772139649218.csv,FALSE
image-keyboard-response,321,53,421537,p2h35xrhv75,ono,pony,21,female,no,no,0,0,2346,stimuli/pictures/motor_dirt_2.jpg,0,0,NA,TRUE,no,sound,stimuli/sounds/drop_label_B.wav,/Users/martincz/GitHub/COGS119/group_wi26_motivated_cues/analysis/../data/raw_data/p2h35xrhv75_1772139649218.csv,FALSE
image-keyboard-response,327,54,429344,p2h35xrhv75,ono,pony,21,female,no,no,0,0,408,stimuli/pictures/motor_dirt_1.jpg,1,1,NA,TRUE,yes,sound,stimuli/sounds/motor_sound_A.wav,/Users/martincz/GitHub/COGS119/group_wi26_motivated_cues/analysis/../data/raw_data/p2h35xrhv75_1772139649218.csv,FALSE
image-keyboard-response,333,55,438201,p2h35xrhv75,ono,pony,21,female,no,no,0,0,489,stimuli/pictures/dog_york_2.jpg,1,1,NA,TRUE,yes,sound,stimuli/sounds/dog_sound_B.wav,/Users/martincz/GitHub/COGS119/group_wi26_motivated_cues/analysis/../data/raw_data/p2h35xrhv75_1772139649218.csv,FALSE
image-keyboard-response,339,56,445005,p2h35xrhv75,ono,pony,21,female,no,no,0,0,899,stimuli/pictures/drop_single_2.jpg,0,0,NA,TRUE,no,sound,stimuli/sounds/cough_label_B.wav,/Users/martincz/GitHub/COGS119/group_wi26_motivated_cues/analysis/../data/raw_data/p2h35xrhv75_1772139649218.csv,FALSE
image-keyboard-response,345,57,452199,p2h35xrhv75,ono,pony,21,female,no,no,0,0,2932,stimuli/pictures/cough_man_2.jpg,1,1,NA,TRUE,yes,sound,stimuli/sounds/cough_label_B.wav,/Users/martincz/GitHub/COGS119/group_wi26_motivated_cues/analysis/../data/raw_data/p2h35xrhv75_1772139649218.csv,FALSE
image-keyboard-response,351,58,456954,p2h35xrhv75,ono,pony,21,female,no,no,0,0,1161,stimuli/pictures/cough_wom_2.jpg,1,1,NA,TRUE,yes,sound,stimuli/sounds/cough_sound_A.wav,/Users/martincz/GitHub/COGS119/group_wi26_motivated_cues/analysis/../data/raw_data/p2h35xrhv75_1772139649218.csv,FALSE
image-keyboard-response,357,59,462030,p2h35xrhv75,ono,pony,21,female,no,no,0,0,316,stimuli/pictures/cough_man_1.jpg,0,0,NA,TRUE,no,sound,stimuli/sounds/dog_label_B.wav,/Users/martincz/GitHub/COGS119/group_wi26_motivated_cues/analysis/../data/raw_data/p2h35xrhv75_1772139649218.csv,FALSE
image-keyboard-response,363,60,466204,p2h35xrhv75,ono,pony,21,female,no,no,0,0,333,stimuli/pictures/drop_multi_1.jpg,0,0,NA,TRUE,no,sound,stimuli/sounds/hiccup_sound_B.wav,/Users/martincz/GitHub/COGS119/group_wi26_motivated_cues/analysis/../data/raw_data/p2h35xrhv75_1772139649218.csv,FALSE
image-keyboard-response,369,61,475474,p2h35xrhv75,ono,pony,21,female,no,no,0,0,1372,stimuli/pictures/drop_multi_1.jpg,0,0,NA,TRUE,no,sound,stimuli/sounds/dog_label_A.wav,/Users/martincz/GitHub/COGS119/group_wi26_motivated_cues/analysis/../data/raw_data/p2h35xrhv75_1772139649218.csv,FALSE
image-keyboard-response,375,62,479272,p2h35xrhv75,ono,pony,21,female,no,no,0,0,313,stimuli/pictures/drop_single_2.jpg,0,0,NA,TRUE,no,sound,stimuli/sounds/motor_sound_A.wav,/Users/martincz/GitHub/COGS119/group_wi26_motivated_cues/analysis/../data/raw_data/p2h35xrhv75_1772139649218.csv,FALSE
image-keyboard-response,381,63,484124,p2h35xrhv75,ono,pony,21,female,no,no,0,0,1018,stimuli/pictures/drop_single_2.jpg,0,0,NA,TRUE,no,sound,stimuli/sounds/hiccup_sound_B.wav,/Users/martincz/GitHub/COGS119/group_wi26_motivated_cues/analysis/../data/raw_data/p2h35xrhv75_1772139649218.csv,FALSE
image-keyboard-response,387,64,488226,p2h35xrhv75,ono,pony,21,female,no,no,0,0,635,stimuli/pictures/dog_rott_1.jpg,1,1,NA,TRUE,yes,sound,stimuli/sounds/dog_sound_A.wav,/Users/martincz/GitHub/COGS119/group_wi26_motivated_cues/analysis/../data/raw_data/p2h35xrhv75_1772139649218.csv,FALSE
image-keyboard-response,394,65,494353,p2h35xrhv75,ono,pony,21,female,no,no,0,0,476,stimuli/pictures/hiccup_man_2.jpg,0,0,NA,TRUE,no,sound,stimuli/sounds/drop_label_A.wav,/Users/martincz/GitHub/COGS119/group_wi26_motivated_cues/analysis/../data/raw_data/p2h35xrhv75_1772139649218.csv,FALSE
image-keyboard-response,400,66,498355,p2h35xrhv75,ono,pony,21,female,no,no,0,0,440,stimuli/pictures/cough_man_2.jpg,1,1,NA,TRUE,yes,sound,stimuli/sounds/cough_label_A.wav,/Users/martincz/GitHub/COGS119/group_wi26_motivated_cues/analysis/../data/raw_data/p2h35xrhv75_1772139649218.csv,FALSE
image-keyboard-response,406,67,502730,p2h35xrhv75,ono,pony,21,female,no,no,0,0,654,stimuli/pictures/hiccup_wom_1.jpg,0,0,NA,TRUE,no,sound,stimuli/sounds/dog_sound_A.wav,/Users/martincz/GitHub/COGS119/group_wi26_motivated_cues/analysis/../data/raw_data/p2h35xrhv75_1772139649218.csv,FALSE
image-keyboard-response,412,68,507663,p2h35xrhv75,ono,pony,21,female,no,no,0,0,1125,stimuli/pictures/dog_york_2.jpg,0,0,NA,TRUE,no,sound,stimuli/sounds/motor_label_A.wav,/Users/martincz/GitHub/COGS119/group_wi26_motivated_cues/analysis/../data/raw_data/p2h35xrhv75_1772139649218.csv,FALSE
image-keyboard-response,418,69,512083,p2h35xrhv75,ono,pony,21,female,no,no,0,0,803,stimuli/pictures/cough_wom_1.jpg,1,0,NA,FALSE,no,sound,stimuli/sounds/hiccup_label_A.wav,/Users/martincz/GitHub/COGS119/group_wi26_motivated_cues/analysis/../data/raw_data/p2h35xrhv75_1772139649218.csv,FALSE
image-keyboard-response,424,70,516872,p2h35xrhv75,ono,pony,21,female,no,no,0,0,1179,stimuli/pictures/dog_rott_2.jpg,1,1,NA,TRUE,yes,sound,stimuli/sounds/dog_label_A.wav,/Users/martincz/GitHub/COGS119/group_wi26_motivated_cues/analysis/../data/raw_data/p2h35xrhv75_1772139649218.csv,FALSE
image-keyboard-response,430,71,524695,p2h35xrhv75,ono,pony,21,female,no,no,0,0,499,stimuli/pictures/cough_wom_1.jpg,0,0,NA,TRUE,no,sound,stimuli/sounds/dog_label_B.wav,/Users/martincz/GitHub/COGS119/group_wi26_motivated_cues/analysis/../data/raw_data/p2h35xrhv75_1772139649218.csv,FALSE
image-keyboard-response,436,72,529913,p2h35xrhv75,ono,pony,21,female,no,no,0,0,995,stimuli/pictures/hiccup_wom_2.jpg,1,1,NA,TRUE,yes,sound,stimuli/sounds/hiccup_label_A.wav,/Users/martincz/GitHub/COGS119/group_wi26_motivated_cues/analysis/../data/raw_data/p2h35xrhv75_1772139649218.csv,FALSE
image-keyboard-response,442,73,534550,p2h35xrhv75,ono,pony,21,female,no,no,0,0,1088,stimuli/pictures/motor_harley_2.jpg,0,0,NA,TRUE,no,sound,stimuli/sounds/drop_label_B.wav,/Users/martincz/GitHub/COGS119/group_wi26_motivated_cues/analysis/../data/raw_data/p2h35xrhv75_1772139649218.csv,FALSE
image-keyboard-response,448,74,538990,p2h35xrhv75,ono,pony,21,female,no,no,0,0,483,stimuli/pictures/cough_wom_2.jpg,1,1,NA,TRUE,no,sound,stimuli/sounds/cough_sound_B.wav,/Users/martincz/GitHub/COGS119/group_wi26_motivated_cues/analysis/../data/raw_data/p2h35xrhv75_1772139649218.csv,FALSE
image-keyboard-response,454,75,543933,p2h35xrhv75,ono,pony,21,female,no,no,0,0,1205,stimuli/pictures/hiccup_man_1.jpg,1,1,NA,TRUE,no,sound,stimuli/sounds/hiccup_sound_A.wav,/Users/martincz/GitHub/COGS119/group_wi26_motivated_cues/analysis/../data/raw_data/p2h35xrhv75_1772139649218.csv,FALSE
image-keyboard-response,460,76,548135,p2h35xrhv75,ono,pony,21,female,no,no,0,0,403,stimuli/pictures/dog_rott_2.jpg,1,1,NA,TRUE,yes,sound,stimuli/sounds/dog_sound_A.wav,/Users/martincz/GitHub/COGS119/group_wi26_motivated_cues/analysis/../data/raw_data/p2h35xrhv75_1772139649218.csv,FALSE
image-keyboard-response,466,77,552766,p2h35xrhv75,ono,pony,21,female,no,no,0,0,1208,stimuli/pictures/hiccup_wom_2.jpg,0,0,NA,TRUE,no,sound,stimuli/sounds/drop_label_A.wav,/Users/martincz/GitHub/COGS119/group_wi26_motivated_cues/analysis/../data/raw_data/p2h35xrhv75_1772139649218.csv,FALSE
image-keyboard-response,472,78,559167,p2h35xrhv75,ono,pony,21,female,no,no,0,0,1055,stimuli/pictures/hiccup_wom_2.jpg,1,1,NA,TRUE,yes,sound,stimuli/sounds/hiccup_sound_A.wav,/Users/martincz/GitHub/COGS119/group_wi26_motivated_cues/analysis/../data/raw_data/p2h35xrhv75_1772139649218.csv,FALSE
image-keyboard-response,478,79,566740,p2h35xrhv75,ono,pony,21,female,no,no,0,0,989,stimuli/pictures/hiccup_man_1.jpg,0,1,NA,FALSE,yes,sound,stimuli/sounds/hiccup_sound_B.wav,/Users/martincz/GitHub/COGS119/group_wi26_motivated_cues/analysis/../data/raw_data/p2h35xrhv75_1772139649218.csv,FALSE
image-keyboard-response,484,80,571312,p2h35xrhv75,ono,pony,21,female,no,no,0,0,1076,stimuli/pictures/drop_single_1.jpg,0,1,NA,FALSE,yes,sound,stimuli/sounds/drop_label_B.wav,/Users/martincz/GitHub/COGS119/group_wi26_motivated_cues/analysis/../data/raw_data/p2h35xrhv75_1772139649218.csv,FALSE
image-keyboard-response,490,81,577619,p2h35xrhv75,ono,pony,21,female,no,no,0,0,1534,stimuli/pictures/cough_man_2.jpg,0,0,NA,TRUE,no,sound,stimuli/sounds/drop_sound_A.wav,/Users/martincz/GitHub/COGS119/group_wi26_motivated_cues/analysis/../data/raw_data/p2h35xrhv75_1772139649218.csv,FALSE
image-keyboard-response,496,82,581851,p2h35xrhv75,ono,pony,21,female,no,no,0,0,485,stimuli/pictures/cough_man_2.jpg,0,0,NA,TRUE,no,sound,stimuli/sounds/dog_label_B.wav,/Users/martincz/GitHub/COGS119/group_wi26_motivated_cues/analysis/../data/raw_data/p2h35xrhv75_1772139649218.csv,FALSE
image-keyboard-response,502,83,589537,p2h35xrhv75,ono,pony,21,female,no,no,0,0,854,stimuli/pictures/cough_wom_2.jpg,0,0,NA,TRUE,no,sound,stimuli/sounds/drop_sound_A.wav,/Users/martincz/GitHub/COGS119/group_wi26_motivated_cues/analysis/../data/raw_data/p2h35xrhv75_1772139649218.csv,FALSE
image-keyboard-response,508,84,594365,p2h35xrhv75,ono,pony,21,female,no,no,0,0,1050,stimuli/pictures/motor_dirt_1.jpg,0,0,NA,TRUE,no,sound,stimuli/sounds/drop_label_B.wav,/Users/martincz/GitHub/COGS119/group_wi26_motivated_cues/analysis/../data/raw_data/p2h35xrhv75_1772139649218.csv,FALSE
image-keyboard-response,515,85,608211,p2h35xrhv75,ono,pony,21,female,no,no,0,0,614,stimuli/pictures/hiccup_wom_2.jpg,1,1,NA,TRUE,yes,sound,stimuli/sounds/hiccup_label_B.wav,/Users/martincz/GitHub/COGS119/group_wi26_motivated_cues/analysis/../data/raw_data/p2h35xrhv75_1772139649218.csv,FALSE
image-keyboard-response,521,86,614113,p2h35xrhv75,ono,pony,21,female,no,no,0,0,1122,stimuli/pictures/motor_dirt_2.jpg,0,0,NA,TRUE,no,sound,stimuli/sounds/dog_sound_B.wav,/Users/martincz/GitHub/COGS119/group_wi26_motivated_cues/analysis/../data/raw_data/p2h35xrhv75_1772139649218.csv,FALSE
image-keyboard-response,527,87,627681,p2h35xrhv75,ono,pony,21,female,no,no,0,0,1630,stimuli/pictures/hiccup_man_1.jpg,0,1,NA,FALSE,yes,sound,stimuli/sounds/hiccup_label_B.wav,/Users/martincz/GitHub/COGS119/group_wi26_motivated_cues/analysis/../data/raw_data/p2h35xrhv75_1772139649218.csv,FALSE
image-keyboard-response,533,88,632722,p2h35xrhv75,ono,pony,21,female,no,no,0,0,1138,stimuli/pictures/hiccup_man_2.jpg,0,1,NA,FALSE,yes,sound,stimuli/sounds/hiccup_label_B.wav,/Users/martincz/GitHub/COGS119/group_wi26_motivated_cues/analysis/../data/raw_data/p2h35xrhv75_1772139649218.csv,FALSE
image-keyboard-response,539,89,637096,p2h35xrhv75,ono,pony,21,female,no,no,0,0,840,stimuli/pictures/drop_single_2.jpg,1,1,NA,TRUE,no,sound,stimuli/sounds/drop_sound_B.wav,/Users/martincz/GitHub/COGS119/group_wi26_motivated_cues/analysis/../data/raw_data/p2h35xrhv75_1772139649218.csv,FALSE
image-keyboard-response,545,90,640925,p2h35xrhv75,ono,pony,21,female,no,no,0,0,454,stimuli/pictures/dog_york_1.jpg,1,1,NA,TRUE,no,sound,stimuli/sounds/dog_sound_A.wav,/Users/martincz/GitHub/COGS119/group_wi26_motivated_cues/analysis/../data/raw_data/p2h35xrhv75_1772139649218.csv,FALSE
image-keyboard-response,551,91,647223,p2h35xrhv75,ono,pony,21,female,no,no,0,0,2281,stimuli/pictures/motor_harley_2.jpg,0,1,NA,FALSE,yes,sound,stimuli/sounds/motor_label_A.wav,/Users/martincz/GitHub/COGS119/group_wi26_motivated_cues/analysis/../data/raw_data/p2h35xrhv75_1772139649218.csv,FALSE
image-keyboard-response,557,92,651291,p2h35xrhv75,ono,pony,21,female,no,no,0,0,462,stimuli/pictures/dog_york_1.jpg,1,0,NA,FALSE,no,sound,stimuli/sounds/cough_sound_A.wav,/Users/martincz/GitHub/COGS119/group_wi26_motivated_cues/analysis/../data/raw_data/p2h35xrhv75_1772139649218.csv,FALSE
image-keyboard-response,563,93,654989,p2h35xrhv75,ono,pony,21,female,no,no,0,0,474,stimuli/pictures/dog_rott_1.jpg,0,0,NA,TRUE,no,sound,stimuli/sounds/hiccup_label_B.wav,/Users/martincz/GitHub/COGS119/group_wi26_motivated_cues/analysis/../data/raw_data/p2h35xrhv75_1772139649218.csv,FALSE
image-keyboard-response,569,94,661512,p2h35xrhv75,ono,pony,21,female,no,no,0,0,421,stimuli/pictures/dog_york_2.jpg,0,1,NA,FALSE,no,sound,stimuli/sounds/dog_sound_A.wav,/Users/martincz/GitHub/COGS119/group_wi26_motivated_cues/analysis/../data/raw_data/p2h35xrhv75_1772139649218.csv,FALSE
image-keyboard-response,575,95,667438,p2h35xrhv75,ono,pony,21,female,no,no,0,0,639,stimuli/pictures/motor_harley_2.jpg,1,1,NA,TRUE,no,sound,stimuli/sounds/motor_sound_A.wav,/Users/martincz/GitHub/COGS119/group_wi26_motivated_cues/analysis/../data/raw_data/p2h35xrhv75_1772139649218.csv,FALSE
image-keyboard-response,581,96,672190,p2h35xrhv75,ono,pony,21,female,no,no,0,0,1139,stimuli/pictures/drop_single_2.jpg,0,1,NA,FALSE,yes,sound,stimuli/sounds/drop_label_B.wav,/Users/martincz/GitHub/COGS119/group_wi26_motivated_cues/analysis/../data/raw_data/p2h35xrhv75_1772139649218.csv,FALSE
image-keyboard-response,587,97,676777,p2h35xrhv75,ono,pony,21,female,no,no,0,0,1293,stimuli/pictures/drop_multi_2.jpg,1,1,NA,TRUE,yes,sound,stimuli/sounds/drop_sound_B.wav,/Users/martincz/GitHub/COGS119/group_wi26_motivated_cues/analysis/../data/raw_data/p2h35xrhv75_1772139649218.csv,FALSE
image-keyboard-response,593,98,684065,p2h35xrhv75,ono,pony,21,female,no,no,0,0,535,stimuli/pictures/hiccup_man_1.jpg,1,1,NA,TRUE,yes,sound,stimuli/sounds/hiccup_label_A.wav,/Users/martincz/GitHub/COGS119/group_wi26_motivated_cues/analysis/../data/raw_data/p2h35xrhv75_1772139649218.csv,FALSE
image-keyboard-response,599,99,688687,p2h35xrhv75,ono,pony,21,female,no,no,0,0,539,stimuli/pictures/drop_single_1.jpg,0,0,NA,TRUE,no,sound,stimuli/sounds/dog_label_A.wav,/Users/martincz/GitHub/COGS119/group_wi26_motivated_cues/analysis/../data/raw_data/p2h35xrhv75_1772139649218.csv,FALSE
image-keyboard-response,605,100,695960,p2h35xrhv75,ono,pony,21,female,no,no,0,0,674,stimuli/pictures/hiccup_man_1.jpg,0,0,NA,TRUE,no,sound,stimuli/sounds/drop_label_A.wav,/Users/martincz/GitHub/COGS119/group_wi26_motivated_cues/analysis/../data/raw_data/p2h35xrhv75_1772139649218.csv,FALSE
image-keyboard-response,611,101,701096,p2h35xrhv75,ono,pony,21,female,no,no,0,0,1065,stimuli/pictures/cough_wom_2.jpg,1,1,NA,TRUE,yes,sound,stimuli/sounds/cough_label_B.wav,/Users/martincz/GitHub/COGS119/group_wi26_motivated_cues/analysis/../data/raw_data/p2h35xrhv75_1772139649218.csv,FALSE
image-keyboard-response,617,102,709795,p2h35xrhv75,ono,pony,21,female,no,no,0,0,669,stimuli/pictures/hiccup_wom_2.jpg,1,0,NA,FALSE,no,sound,stimuli/sounds/cough_sound_B.wav,/Users/martincz/GitHub/COGS119/group_wi26_motivated_cues/analysis/../data/raw_data/p2h35xrhv75_1772139649218.csv,FALSE
image-keyboard-response,623,103,713600,p2h35xrhv75,ono,pony,21,female,no,no,0,0,253,stimuli/pictures/motor_harley_1.jpg,0,0,NA,TRUE,no,sound,stimuli/sounds/drop_label_B.wav,/Users/martincz/GitHub/COGS119/group_wi26_motivated_cues/analysis/../data/raw_data/p2h35xrhv75_1772139649218.csv,FALSE
image-keyboard-response,629,104,717333,p2h35xrhv75,ono,pony,21,female,no,no,0,0,441,stimuli/pictures/cough_man_1.jpg,0,0,NA,TRUE,no,sound,stimuli/sounds/motor_sound_B.wav,/Users/martincz/GitHub/COGS119/group_wi26_motivated_cues/analysis/../data/raw_data/p2h35xrhv75_1772139649218.csv,FALSE
image-keyboard-response,636,105,723781,p2h35xrhv75,ono,pony,21,female,no,no,0,0,979,stimuli/pictures/hiccup_man_1.jpg,0,0,NA,TRUE,no,sound,stimuli/sounds/dog_sound_A.wav,/Users/martincz/GitHub/COGS119/group_wi26_motivated_cues/analysis/../data/raw_data/p2h35xrhv75_1772139649218.csv,FALSE
image-keyboard-response,642,106,729677,p2h35xrhv75,ono,pony,21,female,no,no,0,0,1880,stimuli/pictures/motor_dirt_2.jpg,0,0,NA,TRUE,no,sound,stimuli/sounds/hiccup_sound_A.wav,/Users/martincz/GitHub/COGS119/group_wi26_motivated_cues/analysis/../data/raw_data/p2h35xrhv75_1772139649218.csv,FALSE
image-keyboard-response,648,107,733537,p2h35xrhv75,ono,pony,21,female,no,no,0,0,597,stimuli/pictures/cough_man_2.jpg,0,0,NA,TRUE,no,sound,stimuli/sounds/motor_sound_B.wav,/Users/martincz/GitHub/COGS119/group_wi26_motivated_cues/analysis/../data/raw_data/p2h35xrhv75_1772139649218.csv,FALSE
image-keyboard-response,654,108,738639,p2h35xrhv75,ono,pony,21,female,no,no,0,0,1183,stimuli/pictures/dog_york_1.jpg,1,1,NA,TRUE,yes,sound,stimuli/sounds/dog_label_B.wav,/Users/martincz/GitHub/COGS119/group_wi26_motivated_cues/analysis/../data/raw_data/p2h35xrhv75_1772139649218.csv,FALSE
image-keyboard-response,660,109,743994,p2h35xrhv75,ono,pony,21,female,no,no,0,0,415,stimuli/pictures/motor_dirt_2.jpg,1,1,NA,TRUE,yes,sound,stimuli/sounds/motor_label_A.wav,/Users/martincz/GitHub/COGS119/group_wi26_motivated_cues/analysis/../data/raw_data/p2h35xrhv75_1772139649218.csv,FALSE
image-keyboard-response,666,110,750954,p2h35xrhv75,ono,pony,21,female,no,no,0,0,548,stimuli/pictures/cough_man_2.jpg,0,0,NA,TRUE,no,sound,stimuli/sounds/hiccup_label_A.wav,/Users/martincz/GitHub/COGS119/group_wi26_motivated_cues/analysis/../data/raw_data/p2h35xrhv75_1772139649218.csv,FALSE
image-keyboard-response,672,111,755003,p2h35xrhv75,ono,pony,21,female,no,no,0,0,356,stimuli/pictures/dog_york_1.jpg,0,0,NA,TRUE,no,sound,stimuli/sounds/motor_label_A.wav,/Users/martincz/GitHub/COGS119/group_wi26_motivated_cues/analysis/../data/raw_data/p2h35xrhv75_1772139649218.csv,FALSE
image-keyboard-response,678,112,759043,p2h35xrhv75,ono,pony,21,female,no,no,0,0,607,stimuli/pictures/dog_york_1.jpg,1,1,NA,TRUE,yes,sound,stimuli/sounds/dog_sound_B.wav,/Users/martincz/GitHub/COGS119/group_wi26_motivated_cues/analysis/../data/raw_data/p2h35xrhv75_1772139649218.csv,FALSE
image-keyboard-response,684,113,763419,p2h35xrhv75,ono,pony,21,female,no,no,0,0,363,stimuli/pictures/dog_york_2.jpg,1,1,NA,TRUE,yes,sound,stimuli/sounds/dog_label_A.wav,/Users/martincz/GitHub/COGS119/group_wi26_motivated_cues/analysis/../data/raw_data/p2h35xrhv75_1772139649218.csv,FALSE
image-keyboard-response,690,114,767449,p2h35xrhv75,ono,pony,21,female,no,no,0,0,476,stimuli/pictures/cough_wom_1.jpg,0,0,NA,TRUE,no,sound,stimuli/sounds/motor_sound_B.wav,/Users/martincz/GitHub/COGS119/group_wi26_motivated_cues/analysis/../data/raw_data/p2h35xrhv75_1772139649218.csv,FALSE
image-keyboard-response,696,115,775105,p2h35xrhv75,ono,pony,21,female,no,no,0,0,4129,stimuli/pictures/hiccup_wom_1.jpg,0,0,NA,TRUE,no,sound,stimuli/sounds/drop_label_A.wav,/Users/martincz/GitHub/COGS119/group_wi26_motivated_cues/analysis/../data/raw_data/p2h35xrhv75_1772139649218.csv,FALSE
image-keyboard-response,702,116,779029,p2h35xrhv75,ono,pony,21,female,no,no,0,0,327,stimuli/pictures/motor_harley_1.jpg,0,1,NA,FALSE,yes,sound,stimuli/sounds/motor_label_B.wav,/Users/martincz/GitHub/COGS119/group_wi26_motivated_cues/analysis/../data/raw_data/p2h35xrhv75_1772139649218.csv,FALSE
image-keyboard-response,708,117,782940,p2h35xrhv75,ono,pony,21,female,no,no,0,0,473,stimuli/pictures/motor_harley_1.jpg,0,0,NA,TRUE,no,sound,stimuli/sounds/hiccup_sound_A.wav,/Users/martincz/GitHub/COGS119/group_wi26_motivated_cues/analysis/../data/raw_data/p2h35xrhv75_1772139649218.csv,FALSE
image-keyboard-response,714,118,785446,p2h35xrhv75,ono,pony,21,female,no,no,0,0,133,stimuli/pictures/motor_harley_1.jpg,0,0,NA,TRUE,no,sound,stimuli/sounds/dog_sound_B.wav,/Users/martincz/GitHub/COGS119/group_wi26_motivated_cues/analysis/../data/raw_data/p2h35xrhv75_1772139649218.csv,FALSE
image-keyboard-response,720,119,788830,p2h35xrhv75,ono,pony,21,female,no,no,0,0,298,stimuli/pictures/cough_wom_2.jpg,0,0,NA,TRUE,no,sound,stimuli/sounds/dog_label_B.wav,/Users/martincz/GitHub/COGS119/group_wi26_motivated_cues/analysis/../data/raw_data/p2h35xrhv75_1772139649218.csv,FALSE
image-keyboard-response,726,120,791745,p2h35xrhv75,ono,pony,21,female,no,no,0,0,91,stimuli/pictures/hiccup_man_1.jpg,0,0,NA,TRUE,no,sound,stimuli/sounds/motor_label_B.wav,/Users/martincz/GitHub/COGS119/group_wi26_motivated_cues/analysis/../data/raw_data/p2h35xrhv75_1772139649218.csv,FALSE
image-keyboard-response,732,121,794669,p2h35xrhv75,ono,pony,21,female,no,no,0,0,95,stimuli/pictures/motor_dirt_2.jpg,1,1,NA,TRUE,no,sound,stimuli/sounds/motor_sound_B.wav,/Users/martincz/GitHub/COGS119/group_wi26_motivated_cues/analysis/../data/raw_data/p2h35xrhv75_1772139649218.csv,FALSE
image-keyboard-response,738,122,797889,p2h35xrhv75,ono,pony,21,female,no,no,0,0,196,stimuli/pictures/cough_man_1.jpg,1,1,NA,TRUE,yes,sound,stimuli/sounds/cough_sound_B.wav,/Users/martincz/GitHub/COGS119/group_wi26_motivated_cues/analysis/../data/raw_data/p2h35xrhv75_1772139649218.csv,FALSE
image-keyboard-response,744,123,800956,p2h35xrhv75,ono,pony,21,female,no,no,0,0,185,stimuli/pictures/hiccup_man_2.jpg,0,1,NA,FALSE,yes,sound,stimuli/sounds/hiccup_sound_B.wav,/Users/martincz/GitHub/COGS119/group_wi26_motivated_cues/analysis/../data/raw_data/p2h35xrhv75_1772139649218.csv,FALSE
image-keyboard-response,750,124,804150,p2h35xrhv75,ono,pony,21,female,no,no,0,0,305,stimuli/pictures/dog_rott_1.jpg,0,0,NA,TRUE,no,sound,stimuli/sounds/cough_sound_A.wav,/Users/martincz/GitHub/COGS119/group_wi26_motivated_cues/analysis/../data/raw_data/p2h35xrhv75_1772139649218.csv,FALSE
image-keyboard-response,757,125,810470,p2h35xrhv75,ono,pony,21,female,no,no,0,0,453,stimuli/pictures/cough_man_1.jpg,0,0,NA,TRUE,no,sound,stimuli/sounds/drop_sound_A.wav,/Users/martincz/GitHub/COGS119/group_wi26_motivated_cues/analysis/../data/raw_data/p2h35xrhv75_1772139649218.csv,FALSE
image-keyboard-response,763,126,815328,p2h35xrhv75,ono,pony,21,female,no,no,0,0,738,stimuli/pictures/cough_man_1.jpg,0,1,NA,FALSE,yes,sound,stimuli/sounds/cough_label_B.wav,/Users/martincz/GitHub/COGS119/group_wi26_motivated_cues/analysis/../data/raw_data/p2h35xrhv75_1772139649218.csv,FALSE
image-keyboard-response,769,127,818561,p2h35xrhv75,ono,pony,21,female,no,no,0,0,367,stimuli/pictures/drop_single_1.jpg,0,1,NA,FALSE,yes,sound,stimuli/sounds/drop_sound_A.wav,/Users/martincz/GitHub/COGS119/group_wi26_motivated_cues/analysis/../data/raw_data/p2h35xrhv75_1772139649218.csv,FALSE
image-keyboard-response,775,128,822073,p2h35xrhv75,ono,pony,21,female,no,no,0,0,556,stimuli/pictures/hiccup_man_2.jpg,0,1,NA,FALSE,yes,sound,stimuli/sounds/hiccup_label_A.wav,/Users/martincz/GitHub/COGS119/group_wi26_motivated_cues/analysis/../data/raw_data/p2h35xrhv75_1772139649218.csv,FALSE
image-keyboard-response,781,129,827390,p2h35xrhv75,ono,pony,21,female,no,no,0,0,313,stimuli/pictures/drop_single_2.jpg,0,0,NA,TRUE,no,sound,stimuli/sounds/dog_label_A.wav,/Users/martincz/GitHub/COGS119/group_wi26_motivated_cues/analysis/../data/raw_data/p2h35xrhv75_1772139649218.csv,FALSE
image-keyboard-response,787,130,832006,p2h35xrhv75,ono,pony,21,female,no,no,0,0,834,stimuli/pictures/dog_rott_1.jpg,0,1,NA,FALSE,yes,sound,stimuli/sounds/dog_label_B.wav,/Users/martincz/GitHub/COGS119/group_wi26_motivated_cues/analysis/../data/raw_data/p2h35xrhv75_1772139649218.csv,FALSE
image-keyboard-response,793,131,835868,p2h35xrhv75,ono,pony,21,female,no,no,0,0,480,stimuli/pictures/motor_harley_2.jpg,0,0,NA,TRUE,no,sound,stimuli/sounds/cough_label_A.wav,/Users/martincz/GitHub/COGS119/group_wi26_motivated_cues/analysis/../data/raw_data/p2h35xrhv75_1772139649218.csv,FALSE
image-keyboard-response,799,132,838990,p2h35xrhv75,ono,pony,21,female,no,no,0,0,217,stimuli/pictures/motor_dirt_1.jpg,0,0,NA,TRUE,no,sound,stimuli/sounds/dog_sound_B.wav,/Users/martincz/GitHub/COGS119/group_wi26_motivated_cues/analysis/../data/raw_data/p2h35xrhv75_1772139649218.csv,FALSE
image-keyboard-response,805,133,842009,p2h35xrhv75,ono,pony,21,female,no,no,0,0,247,stimuli/pictures/motor_harley_2.jpg,0,1,NA,FALSE,yes,sound,stimuli/sounds/motor_label_B.wav,/Users/martincz/GitHub/COGS119/group_wi26_motivated_cues/analysis/../data/raw_data/p2h35xrhv75_1772139649218.csv,FALSE
image-keyboard-response,811,134,845901,p2h35xrhv75,ono,pony,21,female,no,no,0,0,660,stimuli/pictures/drop_multi_2.jpg,0,1,NA,FALSE,yes,sound,stimuli/sounds/drop_label_A.wav,/Users/martincz/GitHub/COGS119/group_wi26_motivated_cues/analysis/../data/raw_data/p2h35xrhv75_1772139649218.csv,FALSE
image-keyboard-response,817,135,851531,p2h35xrhv75,ono,pony,21,female,no,no,0,0,271,stimuli/pictures/motor_dirt_2.jpg,1,0,NA,FALSE,no,sound,stimuli/sounds/cough_label_A.wav,/Users/martincz/GitHub/COGS119/group_wi26_motivated_cues/analysis/../data/raw_data/p2h35xrhv75_1772139649218.csv,FALSE
image-keyboard-response,823,136,856174,p2h35xrhv75,ono,pony,21,female,no,no,0,0,1617,stimuli/pictures/cough_man_2.jpg,0,1,NA,FALSE,no,sound,stimuli/sounds/cough_sound_A.wav,/Users/martincz/GitHub/COGS119/group_wi26_motivated_cues/analysis/../data/raw_data/p2h35xrhv75_1772139649218.csv,FALSE
image-keyboard-response,829,137,861772,p2h35xrhv75,ono,pony,21,female,no,no,0,0,844,stimuli/pictures/motor_harley_1.jpg,0,1,NA,FALSE,yes,sound,stimuli/sounds/motor_sound_B.wav,/Users/martincz/GitHub/COGS119/group_wi26_motivated_cues/analysis/../data/raw_data/p2h35xrhv75_1772139649218.csv,FALSE
image-keyboard-response,835,138,865633,p2h35xrhv75,ono,pony,21,female,no,no,0,0,545,stimuli/pictures/drop_multi_2.jpg,0,1,NA,FALSE,no,sound,stimuli/sounds/drop_sound_A.wav,/Users/martincz/GitHub/COGS119/group_wi26_motivated_cues/analysis/../data/raw_data/p2h35xrhv75_1772139649218.csv,FALSE
image-keyboard-response,841,139,870366,p2h35xrhv75,ono,pony,21,female,no,no,0,0,382,stimuli/pictures/cough_man_2.jpg,0,1,NA,FALSE,yes,sound,stimuli/sounds/cough_sound_B.wav,/Users/martincz/GitHub/COGS119/group_wi26_motivated_cues/analysis/../data/raw_data/p2h35xrhv75_1772139649218.csv,FALSE
image-keyboard-response,847,140,874901,p2h35xrhv75,ono,pony,21,female,no,no,0,0,945,stimuli/pictures/hiccup_wom_2.jpg,0,1,NA,FALSE,no,sound,stimuli/sounds/hiccup_sound_B.wav,/Users/martincz/GitHub/COGS119/group_wi26_motivated_cues/analysis/../data/raw_data/p2h35xrhv75_1772139649218.csv,FALSE
image-keyboard-response,853,141,879490,p2h35xrhv75,ono,pony,21,female,no,no,0,0,544,stimuli/pictures/hiccup_man_2.jpg,0,0,NA,TRUE,no,sound,stimuli/sounds/cough_sound_B.wav,/Users/martincz/GitHub/COGS119/group_wi26_motivated_cues/analysis/../data/raw_data/p2h35xrhv75_1772139649218.csv,FALSE
image-keyboard-response,859,142,885145,p2h35xrhv75,ono,pony,21,female,no,no,0,0,1796,stimuli/pictures/cough_wom_2.jpg,0,0,NA,TRUE,no,sound,stimuli/sounds/motor_sound_B.wav,/Users/martincz/GitHub/COGS119/group_wi26_motivated_cues/analysis/../data/raw_data/p2h35xrhv75_1772139649218.csv,FALSE
image-keyboard-response,865,143,889786,p2h35xrhv75,ono,pony,21,female,no,no,0,0,338,stimuli/pictures/drop_single_1.jpg,0,0,NA,TRUE,no,sound,stimuli/sounds/motor_sound_A.wav,/Users/martincz/GitHub/COGS119/group_wi26_motivated_cues/analysis/../data/raw_data/p2h35xrhv75_1772139649218.csv,FALSE
image-keyboard-response,871,144,893868,p2h35xrhv75,ono,pony,21,female,no,no,0,0,319,stimuli/pictures/motor_dirt_1.jpg,0,0,NA,TRUE,no,sound,stimuli/sounds/cough_label_A.wav,/Users/martincz/GitHub/COGS119/group_wi26_motivated_cues/analysis/../data/raw_data/p2h35xrhv75_1772139649218.csv,FALSE
image-keyboard-response,878,145,901197,p2h35xrhv75,ono,pony,21,female,no,no,0,0,2114,stimuli/pictures/hiccup_wom_2.jpg,0,0,NA,TRUE,no,sound,stimuli/sounds/motor_label_B.wav,/Users/martincz/GitHub/COGS119/group_wi26_motivated_cues/analysis/../data/raw_data/p2h35xrhv75_1772139649218.csv,FALSE
image-keyboard-response,884,146,905288,p2h35xrhv75,ono,pony,21,female,no,no,0,0,501,stimuli/pictures/drop_multi_1.jpg,0,1,NA,FALSE,yes,sound,stimuli/sounds/drop_label_A.wav,/Users/martincz/GitHub/COGS119/group_wi26_motivated_cues/analysis/../data/raw_data/p2h35xrhv75_1772139649218.csv,FALSE
image-keyboard-response,890,147,908988,p2h35xrhv75,ono,pony,21,female,no,no,0,0,119,stimuli/pictures/dog_rott_1.jpg,0,0,NA,TRUE,no,sound,stimuli/sounds/drop_sound_B.wav,/Users/martincz/GitHub/COGS119/group_wi26_motivated_cues/analysis/../data/raw_data/p2h35xrhv75_1772139649218.csv,FALSE
image-keyboard-response,896,148,912287,p2h35xrhv75,ono,pony,21,female,no,no,0,0,57,stimuli/pictures/drop_single_1.jpg,0,1,NA,FALSE,yes,sound,stimuli/sounds/drop_label_A.wav,/Users/martincz/GitHub/COGS119/group_wi26_motivated_cues/analysis/../data/raw_data/p2h35xrhv75_1772139649218.csv,FALSE
image-keyboard-response,902,149,915519,p2h35xrhv75,ono,pony,21,female,no,no,0,0,69,stimuli/pictures/motor_dirt_2.jpg,0,1,NA,FALSE,yes,sound,stimuli/sounds/motor_label_B.wav,/Users/martincz/GitHub/COGS119/group_wi26_motivated_cues/analysis/../data/raw_data/p2h35xrhv75_1772139649218.csv,FALSE
image-keyboard-response,908,150,918830,p2h35xrhv75,ono,pony,21,female,no,no,0,0,234,stimuli/pictures/cough_man_1.jpg,0,1,NA,FALSE,yes,sound,stimuli/sounds/cough_label_A.wav,/Users/martincz/GitHub/COGS119/group_wi26_motivated_cues/analysis/../data/raw_data/p2h35xrhv75_1772139649218.csv,FALSE
image-keyboard-response,914,151,922352,p2h35xrhv75,ono,pony,21,female,no,no,0,0,351,stimuli/pictures/dog_rott_1.jpg,0,0,NA,TRUE,no,sound,stimuli/sounds/hiccup_label_B.wav,/Users/martincz/GitHub/COGS119/group_wi26_motivated_cues/analysis/../data/raw_data/p2h35xrhv75_1772139649218.csv,FALSE
image-keyboard-response,920,152,925739,p2h35xrhv75,ono,pony,21,female,no,no,0,0,0,stimuli/pictures/dog_rott_1.jpg,0,0,NA,TRUE,no,sound,stimuli/sounds/motor_label_A.wav,/Users/martincz/GitHub/COGS119/group_wi26_motivated_cues/analysis/../data/raw_data/p2h35xrhv75_1772139649218.csv,FALSE
image-keyboard-response,926,153,929326,p2h35xrhv75,ono,pony,21,female,no,no,0,0,350,stimuli/pictures/drop_single_2.jpg,0,1,NA,FALSE,yes,sound,stimuli/sounds/drop_label_A.wav,/Users/martincz/GitHub/COGS119/group_wi26_motivated_cues/analysis/../data/raw_data/p2h35xrhv75_1772139649218.csv,FALSE
image-keyboard-response,932,154,934064,p2h35xrhv75,ono,pony,21,female,no,no,0,0,372,stimuli/pictures/hiccup_man_2.jpg,0,1,NA,FALSE,no,sound,stimuli/sounds/hiccup_sound_A.wav,/Users/martincz/GitHub/COGS119/group_wi26_motivated_cues/analysis/../data/raw_data/p2h35xrhv75_1772139649218.csv,FALSE
image-keyboard-response,938,155,937557,p2h35xrhv75,ono,pony,21,female,no,no,0,0,154,stimuli/pictures/dog_york_2.jpg,0,1,NA,FALSE,yes,sound,stimuli/sounds/dog_label_B.wav,/Users/martincz/GitHub/COGS119/group_wi26_motivated_cues/analysis/../data/raw_data/p2h35xrhv75_1772139649218.csv,FALSE
image-keyboard-response,944,156,940860,p2h35xrhv75,ono,pony,21,female,no,no,0,0,78,stimuli/pictures/dog_york_1.jpg,0,0,NA,TRUE,no,sound,stimuli/sounds/drop_sound_B.wav,/Users/martincz/GitHub/COGS119/group_wi26_motivated_cues/analysis/../data/raw_data/p2h35xrhv75_1772139649218.csv,FALSE
image-keyboard-response,950,157,944048,p2h35xrhv75,ono,pony,21,female,no,no,0,0,181,stimuli/pictures/dog_york_2.jpg,0,0,NA,TRUE,no,sound,stimuli/sounds/drop_sound_B.wav,/Users/martincz/GitHub/COGS119/group_wi26_motivated_cues/analysis/../data/raw_data/p2h35xrhv75_1772139649218.csv,FALSE
image-keyboard-response,956,158,949075,p2h35xrhv75,ono,pony,21,female,no,no,0,0,2263,stimuli/pictures/dog_york_1.jpg,0,0,NA,TRUE,no,sound,stimuli/sounds/hiccup_label_B.wav,/Users/martincz/GitHub/COGS119/group_wi26_motivated_cues/analysis/../data/raw_data/p2h35xrhv75_1772139649218.csv,FALSE
image-keyboard-response,962,159,954329,p2h35xrhv75,ono,pony,21,female,no,no,0,0,150,stimuli/pictures/dog_york_2.jpg,0,0,NA,TRUE,no,sound,stimuli/sounds/cough_sound_A.wav,/Users/martincz/GitHub/COGS119/group_wi26_motivated_cues/analysis/../data/raw_data/p2h35xrhv75_1772139649218.csv,FALSE
image-keyboard-response,968,160,959014,p2h35xrhv75,ono,pony,21,female,no,no,0,0,458,stimuli/pictures/drop_single_2.jpg,0,1,NA,FALSE,yes,sound,stimuli/sounds/drop_sound_A.wav,/Users/martincz/GitHub/COGS119/group_wi26_motivated_cues/analysis/../data/raw_data/p2h35xrhv75_1772139649218.csv,FALSE
image-keyboard-response,974,161,963376,p2h35xrhv75,ono,pony,21,female,no,no,0,0,507,stimuli/pictures/drop_single_1.jpg,0,1,NA,FALSE,no,sound,stimuli/sounds/drop_sound_B.wav,/Users/martincz/GitHub/COGS119/group_wi26_motivated_cues/analysis/../data/raw_data/p2h35xrhv75_1772139649218.csv,FALSE
image-keyboard-response,980,162,966944,p2h35xrhv75,ono,pony,21,female,no,no,0,0,232,stimuli/pictures/motor_harley_1.jpg,0,1,NA,FALSE,yes,sound,stimuli/sounds/motor_label_A.wav,/Users/martincz/GitHub/COGS119/group_wi26_motivated_cues/analysis/../data/raw_data/p2h35xrhv75_1772139649218.csv,FALSE
image-keyboard-response,986,163,971057,p2h35xrhv75,ono,pony,21,female,no,no,0,0,667,stimuli/pictures/cough_wom_2.jpg,0,0,NA,TRUE,no,sound,stimuli/sounds/hiccup_label_A.wav,/Users/martincz/GitHub/COGS119/group_wi26_motivated_cues/analysis/../data/raw_data/p2h35xrhv75_1772139649218.csv,FALSE
image-keyboard-response,992,164,979259,p2h35xrhv75,ono,pony,21,female,no,no,0,0,277,stimuli/pictures/motor_dirt_1.jpg,0,0,NA,TRUE,no,sound,stimuli/sounds/hiccup_sound_A.wav,/Users/martincz/GitHub/COGS119/group_wi26_motivated_cues/analysis/../data/raw_data/p2h35xrhv75_1772139649218.csv,FALSE
image-keyboard-response,8,1,37665,p3jrtd2k7rr,mus,penguin,19,female,yes,yes,12,2-3 hr,503,stimuli/pictures/guitar_acoustic_1.jpg,1,1,TRUE,TRUE,NA,NA,NA,/Users/martincz/GitHub/COGS119/group_wi26_motivated_cues/analysis/../data/raw_data/p3jrtd2k7rr_1772139310549.csv,FALSE
image-keyboard-response,13,2,40869,p3jrtd2k7rr,mus,penguin,19,female,yes,yes,12,2-3 hr,588,stimuli/pictures/guitar_acoustic_2.jpg,1,1,TRUE,TRUE,NA,NA,NA,/Users/martincz/GitHub/COGS119/group_wi26_motivated_cues/analysis/../data/raw_data/p3jrtd2k7rr_1772139310549.csv,FALSE
image-keyboard-response,18,3,44255,p3jrtd2k7rr,mus,penguin,19,female,yes,yes,12,2-3 hr,774,stimuli/pictures/guitar_electric_1.jpg,0,0,TRUE,TRUE,NA,NA,NA,/Users/martincz/GitHub/COGS119/group_wi26_motivated_cues/analysis/../data/raw_data/p3jrtd2k7rr_1772139310549.csv,FALSE
image-keyboard-response,23,4,47582,p3jrtd2k7rr,mus,penguin,19,female,yes,yes,12,2-3 hr,718,stimuli/pictures/guitar_acoustic_1.jpg,0,1,TRUE,FALSE,NA,NA,NA,/Users/martincz/GitHub/COGS119/group_wi26_motivated_cues/analysis/../data/raw_data/p3jrtd2k7rr_1772139310549.csv,FALSE
image-keyboard-response,31,5,55489,p3jrtd2k7rr,mus,penguin,19,female,yes,yes,12,2-3 hr,808,stimuli/pictures/piano_grand_1.jpg,0,0,NA,TRUE,no,sound,stimuli/sounds/phone_sound_B.wav,/Users/martincz/GitHub/COGS119/group_wi26_motivated_cues/analysis/../data/raw_data/p3jrtd2k7rr_1772139310549.csv,FALSE
image-keyboard-response,37,6,60850,p3jrtd2k7rr,mus,penguin,19,female,yes,yes,12,2-3 hr,708,stimuli/pictures/phone_rotary_1.jpg,1,1,NA,TRUE,yes,sound,stimuli/sounds/phone_sound_B.wav,/Users/martincz/GitHub/COGS119/group_wi26_motivated_cues/analysis/../data/raw_data/p3jrtd2k7rr_1772139310549.csv,FALSE
image-keyboard-response,43,7,66236,p3jrtd2k7rr,mus,penguin,19,female,yes,yes,12,2-3 hr,611,stimuli/pictures/piano_grand_2.jpg,0,0,NA,TRUE,no,sound,stimuli/sounds/drum_label_B.wav,/Users/martincz/GitHub/COGS119/group_wi26_motivated_cues/analysis/../data/raw_data/p3jrtd2k7rr_1772139310549.csv,FALSE
image-keyboard-response,49,8,71580,p3jrtd2k7rr,mus,penguin,19,female,yes,yes,12,2-3 hr,602,stimuli/pictures/drum_bongo_2.jpg,0,0,NA,TRUE,no,sound,stimuli/sounds/piano_sound_A.wav,/Users/martincz/GitHub/COGS119/group_wi26_motivated_cues/analysis/../data/raw_data/p3jrtd2k7rr_1772139310549.csv,FALSE
image-keyboard-response,55,9,75854,p3jrtd2k7rr,mus,penguin,19,female,yes,yes,12,2-3 hr,657,stimuli/pictures/bird_song_1.jpg,0,0,NA,TRUE,no,sound,stimuli/sounds/piano_label_B.wav,/Users/martincz/GitHub/COGS119/group_wi26_motivated_cues/analysis/../data/raw_data/p3jrtd2k7rr_1772139310549.csv,FALSE
image-keyboard-response,61,10,80208,p3jrtd2k7rr,mus,penguin,19,female,yes,yes,12,2-3 hr,669,stimuli/pictures/piano_electric_2.jpg,1,1,NA,TRUE,yes,sound,stimuli/sounds/piano_label_A.wav,/Users/martincz/GitHub/COGS119/group_wi26_motivated_cues/analysis/../data/raw_data/p3jrtd2k7rr_1772139310549.csv,FALSE
image-keyboard-response,67,11,84112,p3jrtd2k7rr,mus,penguin,19,female,yes,yes,12,2-3 hr,558,stimuli/pictures/bird_song_1.jpg,0,0,NA,TRUE,no,sound,stimuli/sounds/drum_label_A.wav,/Users/martincz/GitHub/COGS119/group_wi26_motivated_cues/analysis/../data/raw_data/p3jrtd2k7rr_1772139310549.csv,FALSE
image-keyboard-response,73,12,88343,p3jrtd2k7rr,mus,penguin,19,female,yes,yes,12,2-3 hr,586,stimuli/pictures/flute_wooden_1.jpg,0,0,NA,TRUE,no,sound,stimuli/sounds/phone_label_B.wav,/Users/martincz/GitHub/COGS119/group_wi26_motivated_cues/analysis/../data/raw_data/p3jrtd2k7rr_1772139310549.csv,FALSE
image-keyboard-response,79,13,92236,p3jrtd2k7rr,mus,penguin,19,female,yes,yes,12,2-3 hr,452,stimuli/pictures/phone_cell_1.jpg,0,0,NA,TRUE,no,sound,stimuli/sounds/bird_label_B.wav,/Users/martincz/GitHub/COGS119/group_wi26_motivated_cues/analysis/../data/raw_data/p3jrtd2k7rr_1772139310549.csv,FALSE
image-keyboard-response,85,14,96219,p3jrtd2k7rr,mus,penguin,19,female,yes,yes,12,2-3 hr,652,stimuli/pictures/piano_electric_1.jpg,1,1,NA,TRUE,yes,sound,stimuli/sounds/piano_sound_B.wav,/Users/martincz/GitHub/COGS119/group_wi26_motivated_cues/analysis/../data/raw_data/p3jrtd2k7rr_1772139310549.csv,FALSE
image-keyboard-response,91,15,100173,p3jrtd2k7rr,mus,penguin,19,female,yes,yes,12,2-3 hr,518,stimuli/pictures/piano_electric_2.jpg,0,0,NA,TRUE,no,sound,stimuli/sounds/flute_label_A.wav,/Users/martincz/GitHub/COGS119/group_wi26_motivated_cues/analysis/../data/raw_data/p3jrtd2k7rr_1772139310549.csv,FALSE
