"success","timeout","failed_images","failed_audio","failed_video","trial_type","trial_index","plugin_version","time_elapsed","random_id","condition","participant","age","gender_id","mus_exp","inst_exp","years_exp","mus_listening","rt","stimulus","response","correct_response","practice","correct","congruent","sound_type","audio","question_order"
"true","false","[]","[]","[]","preload","0","2.0.0","1789","p1ap86fhd84","mus","duck","21","male","yes","yes","3","7","","","","","","","","","",""
"","","","","","html-keyboard-response","1","2.0.0","2673","p1ap86fhd84","mus","duck","21","male","yes","yes","3","7","883","Welcome to the experiment! Press any key to begin."," ","","","","","","",""
"true","","","","","fullscreen","2","null","5070","p1ap86fhd84","mus","duck","21","male","yes","yes","3","7","1394","","","","","","","","",""
"","","","","","survey-text","3","2.0.0","7912","p1ap86fhd84","mus","duck","21","male","yes","yes","3","7","2825","","{""participant_id"":""duck""}","","","","","","",""
"","","","","","html-keyboard-response","4","2.0.0","27416","p1ap86fhd84","mus","duck","21","male","yes","yes","3","7","19503","
    <p> Please use headphones for the duration of the study.</p>
    <p> Within each trial, you will hear a sound and then be presented with an image in the center of your screen.</p>
    <p>Press the <b>'1'</b> key if what you hear <u>matches</u> what you see.</p>
    <p>Press the <b>'0'</b> key if what you hear <u>does not match</u> what you see.</p>
    <p>Try to respond as quickly and accurately as you can.</p>
    <p> Press any key to begin.</p>
    "," ","","","","","","",""
"","","","","","html-keyboard-response","5","2.0.0","31280","p1ap86fhd84","mus","duck","21","male","yes","yes","3","7","3862","
    <div style=""font-size:28px;"">
      <p>You will now complete 4 short practice trials.</p>
      <p>This is just to help you get familiar with the task.</p>
      <p>Press any key to begin.</p>
    </div>
  "," ","","","","","","",""
"","","","","","html-keyboard-response","6","2.0.0","31783","p1ap86fhd84","mus","duck","21","male","yes","yes","3","7","null","<div style=""font-size:60px;"">+</div>","null","","","","","","",""
"","","","","","audio-keyboard-response","7","2.0.0","32891","p1ap86fhd84","mus","duck","21","male","yes","yes","3","7","null","stimuli/sounds/guitar_label_A.wav","null","","","","","","",""
"","","","","","image-keyboard-response","8","2.0.0","33471","p1ap86fhd84","mus","duck","21","male","yes","yes","3","7","576","stimuli/pictures/guitar_acoustic_1.jpg","1","1","true","true","","","",""
"","","","","","audio-keyboard-response","9","2.0.0","34274","p1ap86fhd84","mus","duck","21","male","yes","yes","3","7","null","stimuli/sounds/bleep.wav","null","","","","","","",""
"","","","","","html-keyboard-response","10","2.0.0","34976","p1ap86fhd84","mus","duck","21","male","yes","yes","3","7","null","<p style='color:green; font-size:30px;'>Correct!</p>","null","","","","","","",""
"","","","","","html-keyboard-response","11","2.0.0","35478","p1ap86fhd84","mus","duck","21","male","yes","yes","3","7","null","<div style=""font-size:60px;"">+</div>","null","","","","","","",""
"","","","","","audio-keyboard-response","12","2.0.0","36078","p1ap86fhd84","mus","duck","21","male","yes","yes","3","7","null","stimuli/sounds/guitar_sound_B.wav","null","","","","","","",""
"","","","","","image-keyboard-response","13","2.0.0","37928","p1ap86fhd84","mus","duck","21","male","yes","yes","3","7","1847","stimuli/pictures/guitar_acoustic_2.jpg","1","1","true","true","","","",""
"","","","","","audio-keyboard-response","14","2.0.0","38730","p1ap86fhd84","mus","duck","21","male","yes","yes","3","7","null","stimuli/sounds/bleep.wav","null","","","","","","",""
"","","","","","html-keyboard-response","15","2.0.0","39432","p1ap86fhd84","mus","duck","21","male","yes","yes","3","7","null","<p style='color:green; font-size:30px;'>Correct!</p>","null","","","","","","",""
"","","","","","html-keyboard-response","16","2.0.0","39934","p1ap86fhd84","mus","duck","21","male","yes","yes","3","7","null","<div style=""font-size:60px;"">+</div>","null","","","","","","",""
"","","","","","audio-keyboard-response","17","2.0.0","40537","p1ap86fhd84","mus","duck","21","male","yes","yes","3","7","null","stimuli/sounds/flute_sound_A.wav","null","","","","","","",""
"","","","","","image-keyboard-response","18","2.0.0","42739","p1ap86fhd84","mus","duck","21","male","yes","yes","3","7","2197","stimuli/pictures/guitar_electric_1.jpg","0","0","true","true","","","",""
"","","","","","audio-keyboard-response","19","2.0.0","43541","p1ap86fhd84","mus","duck","21","male","yes","yes","3","7","null","stimuli/sounds/bleep.wav","null","","","","","","",""
"","","","","","html-keyboard-response","20","2.0.0","44243","p1ap86fhd84","mus","duck","21","male","yes","yes","3","7","null","<p style='color:green; font-size:30px;'>Correct!</p>","null","","","","","","",""
"","","","","","html-keyboard-response","21","2.0.0","44745","p1ap86fhd84","mus","duck","21","male","yes","yes","3","7","null","<div style=""font-size:60px;"">+</div>","null","","","","","","",""
"","","","","","audio-keyboard-response","22","2.0.0","45345","p1ap86fhd84","mus","duck","21","male","yes","yes","3","7","null","stimuli/sounds/guitar_sound_A.wav","null","","","","","","",""
"","","","","","image-keyboard-response","23","2.0.0","46212","p1ap86fhd84","mus","duck","21","male","yes","yes","3","7","867","stimuli/pictures/guitar_acoustic_1.jpg","0","1","true","false","","","",""
"","","","","","audio-keyboard-response","24","2.0.0","47015","p1ap86fhd84","mus","duck","21","male","yes","yes","3","7","null","stimuli/sounds/buzz.wav","null","","","","","","",""
"","","","","","html-keyboard-response","25","2.0.0","47717","p1ap86fhd84","mus","duck","21","male","yes","yes","3","7","null","<p style='color:red; font-size:30px;'>Incorrect</p>","null","","","","","","",""
"","","","","","html-keyboard-response","26","2.0.0","51237","p1ap86fhd84","mus","duck","21","male","yes","yes","3","7","3519","<p>Practice complete. Press any key to begin the real experiment.</p>"," ","","","","","","",""
"","","","","","html-keyboard-response","27","2.0.0","56532","p1ap86fhd84","mus","duck","21","male","yes","yes","3","7","5294","<div style=""font-size:30px;"">Press space to start the trial</div>"," ","","","","","","",""
"","","","","","html-keyboard-response","28","2.0.0","56783","p1ap86fhd84","mus","duck","21","male","yes","yes","3","7","null","<div style=""font-size:60px;"">+</div>","null","","","","","","",""
"","","","","","audio-keyboard-response","29","2.0.0","57382","p1ap86fhd84","mus","duck","21","male","yes","yes","3","7","null","stimuli/sounds/bird_sound_A.wav","null","","","","","","",""
"","","","","","html-keyboard-response","30","2.0.0","58383","p1ap86fhd84","mus","duck","21","male","yes","yes","3","7","null","","null","","","","","","",""
"","","","","","image-keyboard-response","31","2.0.0","58961","p1ap86fhd84","mus","duck","21","male","yes","yes","3","7","574","stimuli/pictures/piano_electric_2.jpg","0","0","","true","no","sound","stimuli/sounds/bird_sound_A.wav",""
"","","","","","audio-keyboard-response","32","2.0.0","59963","p1ap86fhd84","mus","duck","21","male","yes","yes","3","7","null","stimuli/sounds/bleep.wav","null","","","","","","",""
"","","","","","html-keyboard-response","33","2.0.0","63807","p1ap86fhd84","mus","duck","21","male","yes","yes","3","7","3741","<div style=""font-size:30px;"">Press space to start the trial</div>"," ","","","","","","",""
"","","","","","html-keyboard-response","34","2.0.0","64059","p1ap86fhd84","mus","duck","21","male","yes","yes","3","7","null","<div style=""font-size:60px;"">+</div>","null","","","","","","",""
"","","","","","audio-keyboard-response","35","2.0.0","64665","p1ap86fhd84","mus","duck","21","male","yes","yes","3","7","null","stimuli/sounds/flute_label_B.wav","null","","","","","","",""
"","","","","","html-keyboard-response","36","2.0.0","65666","p1ap86fhd84","mus","duck","21","male","yes","yes","3","7","null","","null","","","","","","",""
"","","","","","image-keyboard-response","37","2.0.0","66303","p1ap86fhd84","mus","duck","21","male","yes","yes","3","7","633","stimuli/pictures/flute_wooden_1.jpg","1","1","","true","yes","sound","stimuli/sounds/flute_label_B.wav",""
"","","","","","audio-keyboard-response","38","2.0.0","67305","p1ap86fhd84","mus","duck","21","male","yes","yes","3","7","null","stimuli/sounds/bleep.wav","null","","","","","","",""
"","","","","","html-keyboard-response","39","2.0.0","67913","p1ap86fhd84","mus","duck","21","male","yes","yes","3","7","506","<div style=""font-size:30px;"">Press space to start the trial</div>"," ","","","","","","",""
"","","","","","html-keyboard-response","40","2.0.0","68165","p1ap86fhd84","mus","duck","21","male","yes","yes","3","7","null","<div style=""font-size:60px;"">+</div>","null","","","","","","",""
"","","","","","audio-keyboard-response","41","2.0.0","68769","p1ap86fhd84","mus","duck","21","male","yes","yes","3","7","null","stimuli/sounds/flute_label_A.wav","null","","","","","","",""
"","","","","","html-keyboard-response","42","2.0.0","69770","p1ap86fhd84","mus","duck","21","male","yes","yes","3","7","null","","null","","","","","","",""
"","","","","","image-keyboard-response","43","2.0.0","70265","p1ap86fhd84","mus","duck","21","male","yes","yes","3","7","494","stimuli/pictures/flute_wooden_1.jpg","1","1","","true","yes","sound","stimuli/sounds/flute_label_A.wav",""
"","","","","","audio-keyboard-response","44","2.0.0","71267","p1ap86fhd84","mus","duck","21","male","yes","yes","3","7","null","stimuli/sounds/bleep.wav","null","","","","","","",""
"","","","","","html-keyboard-response","45","2.0.0","71875","p1ap86fhd84","mus","duck","21","male","yes","yes","3","7","506","<div style=""font-size:30px;"">Press space to start the trial</div>"," ","","","","","","",""
"","","","","","html-keyboard-response","46","2.0.0","72126","p1ap86fhd84","mus","duck","21","male","yes","yes","3","7","null","<div style=""font-size:60px;"">+</div>","null","","","","","","",""
"","","","","","audio-keyboard-response","47","2.0.0","72726","p1ap86fhd84","mus","duck","21","male","yes","yes","3","7","null","stimuli/sounds/drum_label_B.wav","null","","","","","","",""
"","","","","","html-keyboard-response","48","2.0.0","73728","p1ap86fhd84","mus","duck","21","male","yes","yes","3","7","null","","null","","","","","","",""
"","","","","","image-keyboard-response","49","2.0.0","74333","p1ap86fhd84","mus","duck","21","male","yes","yes","3","7","604","stimuli/pictures/piano_electric_2.jpg","0","0","","true","no","sound","stimuli/sounds/drum_label_B.wav",""
"","","","","","audio-keyboard-response","50","2.0.0","75335","p1ap86fhd84","mus","duck","21","male","yes","yes","3","7","null","stimuli/sounds/bleep.wav","null","","","","","","",""
"","","","","","html-keyboard-response","51","2.0.0","75795","p1ap86fhd84","mus","duck","21","male","yes","yes","3","7","359","<div style=""font-size:30px;"">Press space to start the trial</div>"," ","","","","","","",""
"","","","","","html-keyboard-response","52","2.0.0","76047","p1ap86fhd84","mus","duck","21","male","yes","yes","3","7","null","<div style=""font-size:60px;"">+</div>","null","","","","","","",""
"","","","","","audio-keyboard-response","53","2.0.0","76646","p1ap86fhd84","mus","duck","21","male","yes","yes","3","7","null","stimuli/sounds/drum_label_A.wav","null","","","","","","",""
"","","","","","html-keyboard-response","54","2.0.0","77648","p1ap86fhd84","mus","duck","21","male","yes","yes","3","7","null","","null","","","","","","",""
"","","","","","image-keyboard-response","55","2.0.0","78202","p1ap86fhd84","mus","duck","21","male","yes","yes","3","7","552","stimuli/pictures/bird_hawk_1.jpg","0","0","","true","no","sound","stimuli/sounds/drum_label_A.wav",""
"","","","","","audio-keyboard-response","56","2.0.0","79204","p1ap86fhd84","mus","duck","21","male","yes","yes","3","7","null","stimuli/sounds/bleep.wav","null","","","","","","",""
"","","","","","html-keyboard-response","57","2.0.0","79611","p1ap86fhd84","mus","duck","21","male","yes","yes","3","7","305","<div style=""font-size:30px;"">Press space to start the trial</div>"," ","","","","","","",""
"","","","","","html-keyboard-response","58","2.0.0","79864","p1ap86fhd84","mus","duck","21","male","yes","yes","3","7","null","<div style=""font-size:60px;"">+</div>","null","","","","","","",""
"","","","","","audio-keyboard-response","59","2.0.0","80465","p1ap86fhd84","mus","duck","21","male","yes","yes","3","7","null","stimuli/sounds/phone_sound_B.wav","null","","","","","","",""
"","","","","","html-keyboard-response","60","2.0.0","81466","p1ap86fhd84","mus","duck","21","male","yes","yes","3","7","null","","null","","","","","","",""
"","","","","","image-keyboard-response","61","2.0.0","82098","p1ap86fhd84","mus","duck","21","male","yes","yes","3","7","630","stimuli/pictures/phone_cell_2.jpg","1","1","","true","no","sound","stimuli/sounds/phone_sound_B.wav",""
"","","","","","audio-keyboard-response","62","2.0.0","83100","p1ap86fhd84","mus","duck","21","male","yes","yes","3","7","null","stimuli/sounds/bleep.wav","null","","","","","","",""
"","","","","","html-keyboard-response","63","2.0.0","83836","p1ap86fhd84","mus","duck","21","male","yes","yes","3","7","634","<div style=""font-size:30px;"">Press space to start the trial</div>"," ","","","","","","",""
"","","","","","html-keyboard-response","64","2.0.0","84088","p1ap86fhd84","mus","duck","21","male","yes","yes","3","7","null","<div style=""font-size:60px;"">+</div>","null","","","","","","",""
"","","","","","audio-keyboard-response","65","2.0.0","84694","p1ap86fhd84","mus","duck","21","male","yes","yes","3","7","null","stimuli/sounds/flute_label_B.wav","null","","","","","","",""
"","","","","","html-keyboard-response","66","2.0.0","85696","p1ap86fhd84","mus","duck","21","male","yes","yes","3","7","null","","null","","","","","","",""
"","","","","","image-keyboard-response","67","2.0.0","86189","p1ap86fhd84","mus","duck","21","male","yes","yes","3","7","491","stimuli/pictures/flute_metal_1.jpg","1","1","","true","yes","sound","stimuli/sounds/flute_label_B.wav",""
"","","","","","audio-keyboard-response","68","2.0.0","87192","p1ap86fhd84","mus","duck","21","male","yes","yes","3","7","null","stimuli/sounds/bleep.wav","null","","","","","","",""
"","","","","","html-keyboard-response","69","2.0.0","88580","p1ap86fhd84","mus","duck","21","male","yes","yes","3","7","1286","<div style=""font-size:30px;"">Press space to start the trial</div>"," ","","","","","","",""
"","","","","","html-keyboard-response","70","2.0.0","88832","p1ap86fhd84","mus","duck","21","male","yes","yes","3","7","null","<div style=""font-size:60px;"">+</div>","null","","","","","","",""
"","","","","","audio-keyboard-response","71","2.0.0","89433","p1ap86fhd84","mus","duck","21","male","yes","yes","3","7","null","stimuli/sounds/phone_sound_B.wav","null","","","","","","",""
"","","","","","html-keyboard-response","72","2.0.0","90434","p1ap86fhd84","mus","duck","21","male","yes","yes","3","7","null","","null","","","","","","",""
"","","","","","image-keyboard-response","73","2.0.0","90956","p1ap86fhd84","mus","duck","21","male","yes","yes","3","7","516","stimuli/pictures/phone_rotary_2.jpg","1","1","","true","yes","sound","stimuli/sounds/phone_sound_B.wav",""
"","","","","","audio-keyboard-response","74","2.0.0","91958","p1ap86fhd84","mus","duck","21","male","yes","yes","3","7","null","stimuli/sounds/bleep.wav","null","","","","","","",""
"","","","","","html-keyboard-response","75","2.0.0","92365","p1ap86fhd84","mus","duck","21","male","yes","yes","3","7","306","<div style=""font-size:30px;"">Press space to start the trial</div>"," ","","","","","","",""
"","","","","","html-keyboard-response","76","2.0.0","92617","p1ap86fhd84","mus","duck","21","male","yes","yes","3","7","null","<div style=""font-size:60px;"">+</div>","null","","","","","","",""
"","","","","","audio-keyboard-response","77","2.0.0","93217","p1ap86fhd84","mus","duck","21","male","yes","yes","3","7","null","stimuli/sounds/phone_sound_B.wav","null","","","","","","",""
"","","","","","html-keyboard-response","78","2.0.0","94219","p1ap86fhd84","mus","duck","21","male","yes","yes","3","7","null","","null","","","","","","",""
"","","","","","image-keyboard-response","79","2.0.0","94675","p1ap86fhd84","mus","duck","21","male","yes","yes","3","7","453","stimuli/pictures/phone_rotary_1.jpg","1","1","","true","yes","sound","stimuli/sounds/phone_sound_B.wav",""
"","","","","","audio-keyboard-response","80","2.0.0","95677","p1ap86fhd84","mus","duck","21","male","yes","yes","3","7","null","stimuli/sounds/bleep.wav","null","","","","","","",""
"","","","","","html-keyboard-response","81","2.0.0","96179","p1ap86fhd84","mus","duck","21","male","yes","yes","3","7","400","<div style=""font-size:30px;"">Press space to start the trial</div>"," ","","","","","","",""
"","","","","","html-keyboard-response","82","2.0.0","96430","p1ap86fhd84","mus","duck","21","male","yes","yes","3","7","null","<div style=""font-size:60px;"">+</div>","null","","","","","","",""
"","","","","","audio-keyboard-response","83","2.0.0","97030","p1ap86fhd84","mus","duck","21","male","yes","yes","3","7","null","stimuli/sounds/phone_sound_A.wav","null","","","","","","",""
"","","","","","html-keyboard-response","84","2.0.0","98032","p1ap86fhd84","mus","duck","21","male","yes","yes","3","7","null","","null","","","","","","",""
"","","","","","image-keyboard-response","85","2.0.0","98548","p1ap86fhd84","mus","duck","21","male","yes","yes","3","7","515","stimuli/pictures/bird_hawk_1.jpg","0","0","","true","no","sound","stimuli/sounds/phone_sound_A.wav",""
"","","","","","audio-keyboard-response","86","2.0.0","99551","p1ap86fhd84","mus","duck","21","male","yes","yes","3","7","null","stimuli/sounds/bleep.wav","null","","","","","","",""
"","","","","","html-keyboard-response","87","2.0.0","99966","p1ap86fhd84","mus","duck","21","male","yes","yes","3","7","313","<div style=""font-size:30px;"">Press space to start the trial</div>"," ","","","","","","",""
"","","","","","html-keyboard-response","88","2.0.0","100217","p1ap86fhd84","mus","duck","21","male","yes","yes","3","7","null","<div style=""font-size:60px;"">+</div>","null","","","","","","",""
"","","","","","audio-keyboard-response","89","2.0.0","100817","p1ap86fhd84","mus","duck","21","male","yes","yes","3","7","null","stimuli/sounds/phone_label_B.wav","null","","","","","","",""
"","","","","","html-keyboard-response","90","2.0.0","101819","p1ap86fhd84","mus","duck","21","male","yes","yes","3","7","null","","null","","","","","","",""
"","","","","","image-keyboard-response","91","2.0.0","102368","p1ap86fhd84","mus","duck","21","male","yes","yes","3","7","548","stimuli/pictures/phone_rotary_2.jpg","1","1","","true","yes","sound","stimuli/sounds/phone_label_B.wav",""
"","","","","","audio-keyboard-response","92","2.0.0","103370","p1ap86fhd84","mus","duck","21","male","yes","yes","3","7","null","stimuli/sounds/bleep.wav","null","","","","","","",""
"","","","","","html-keyboard-response","93","2.0.0","103870","p1ap86fhd84","mus","duck","21","male","yes","yes","3","7","399","<div style=""font-size:30px;"">Press space to start the trial</div>"," ","","","","","","",""
"","","","","","html-keyboard-response","94","2.0.0","104122","p1ap86fhd84","mus","duck","21","male","yes","yes","3","7","null","<div style=""font-size:60px;"">+</div>","null","","","","","","",""
"","","","","","audio-keyboard-response","95","2.0.0","104748","p1ap86fhd84","mus","duck","21","male","yes","yes","3","7","null","stimuli/sounds/piano_label_A.wav","null","","","","","","",""
"","","","","","html-keyboard-response","96","2.0.0","105749","p1ap86fhd84","mus","duck","21","male","yes","yes","3","7","null","","null","","","","","","",""
"","","","","","image-keyboard-response","97","2.0.0","106339","p1ap86fhd84","mus","duck","21","male","yes","yes","3","7","588","stimuli/pictures/phone_rotary_1.jpg","0","0","","true","no","sound","stimuli/sounds/piano_label_A.wav",""
"","","","","","audio-keyboard-response","98","2.0.0","107341","p1ap86fhd84","mus","duck","21","male","yes","yes","3","7","null","stimuli/sounds/bleep.wav","null","","","","","","",""
"","","","","","html-keyboard-response","99","2.0.0","107754","p1ap86fhd84","mus","duck","21","male","yes","yes","3","7","312","<div style=""font-size:30px;"">Press space to start the trial</div>"," ","","","","","","",""
"","","","","","html-keyboard-response","100","2.0.0","108006","p1ap86fhd84","mus","duck","21","male","yes","yes","3","7","null","<div style=""font-size:60px;"">+</div>","null","","","","","","",""
"","","","","","audio-keyboard-response","101","2.0.0","108609","p1ap86fhd84","mus","duck","21","male","yes","yes","3","7","null","stimuli/sounds/piano_label_B.wav","null","","","","","","",""
"","","","","","html-keyboard-response","102","2.0.0","109610","p1ap86fhd84","mus","duck","21","male","yes","yes","3","7","null","","null","","","","","","",""
"","","","","","image-keyboard-response","103","2.0.0","110065","p1ap86fhd84","mus","duck","21","male","yes","yes","3","7","453","stimuli/pictures/piano_electric_1.jpg","1","1","","true","yes","sound","stimuli/sounds/piano_label_B.wav",""
"","","","","","audio-keyboard-response","104","2.0.0","111068","p1ap86fhd84","mus","duck","21","male","yes","yes","3","7","null","stimuli/sounds/bleep.wav","null","","","","","","",""
"","","","","","html-keyboard-response","105","2.0.0","111583","p1ap86fhd84","mus","duck","21","male","yes","yes","3","7","414","<div style=""font-size:30px;"">Press space to start the trial</div>"," ","","","","","","",""
"","","","","","html-keyboard-response","106","2.0.0","111835","p1ap86fhd84","mus","duck","21","male","yes","yes","3","7","null","<div style=""font-size:60px;"">+</div>","null","","","","","","",""
"","","","","","audio-keyboard-response","107","2.0.0","112436","p1ap86fhd84","mus","duck","21","male","yes","yes","3","7","null","stimuli/sounds/bird_sound_A.wav","null","","","","","","",""
"","","","","","html-keyboard-response","108","2.0.0","113438","p1ap86fhd84","mus","duck","21","male","yes","yes","3","7","null","","null","","","","","","",""
"","","","","","image-keyboard-response","109","2.0.0","114078","p1ap86fhd84","mus","duck","21","male","yes","yes","3","7","637","stimuli/pictures/bird_song_2.jpg","0","1","","false","no","sound","stimuli/sounds/bird_sound_A.wav",""
"","","","","","audio-keyboard-response","110","2.0.0","114319","p1ap86fhd84","mus","duck","21","male","yes","yes","3","7","240","stimuli/sounds/buzz.wav","1","","","","","","",""
"","","","","","html-keyboard-response","111","2.0.0","115178","p1ap86fhd84","mus","duck","21","male","yes","yes","3","7","757","<div style=""font-size:30px;"">Press space to start the trial</div>"," ","","","","","","",""
"","","","","","html-keyboard-response","112","2.0.0","115430","p1ap86fhd84","mus","duck","21","male","yes","yes","3","7","null","<div style=""font-size:60px;"">+</div>","null","","","","","","",""
"","","","","","audio-keyboard-response","113","2.0.0","116036","p1ap86fhd84","mus","duck","21","male","yes","yes","3","7","null","stimuli/sounds/piano_sound_B.wav","null","","","","","","",""
"","","","","","html-keyboard-response","114","2.0.0","117038","p1ap86fhd84","mus","duck","21","male","yes","yes","3","7","null","","null","","","","","","",""
"","","","","","image-keyboard-response","115","2.0.0","117642","p1ap86fhd84","mus","duck","21","male","yes","yes","3","7","603","stimuli/pictures/piano_electric_2.jpg","1","1","","true","yes","sound","stimuli/sounds/piano_sound_B.wav",""
"","","","","","audio-keyboard-response","116","2.0.0","118643","p1ap86fhd84","mus","duck","21","male","yes","yes","3","7","null","stimuli/sounds/bleep.wav","null","","","","","","",""
"","","","","","html-keyboard-response","117","2.0.0","118955","p1ap86fhd84","mus","duck","21","male","yes","yes","3","7","210","<div style=""font-size:30px;"">Press space to start the trial</div>"," ","","","","","","",""
"","","","","","html-keyboard-response","118","2.0.0","119206","p1ap86fhd84","mus","duck","21","male","yes","yes","3","7","null","<div style=""font-size:60px;"">+</div>","null","","","","","","",""
"","","","","","audio-keyboard-response","119","2.0.0","119806","p1ap86fhd84","mus","duck","21","male","yes","yes","3","7","null","stimuli/sounds/bird_sound_B.wav","null","","","","","","",""
"","","","","","html-keyboard-response","120","2.0.0","120808","p1ap86fhd84","mus","duck","21","male","yes","yes","3","7","null","","null","","","","","","",""
"","","","","","image-keyboard-response","121","2.0.0","121349","p1ap86fhd84","mus","duck","21","male","yes","yes","3","7","537","stimuli/pictures/drum_bongo_2.jpg","0","0","","true","no","sound","stimuli/sounds/bird_sound_B.wav",""
"","","","","","audio-keyboard-response","122","2.0.0","122351","p1ap86fhd84","mus","duck","21","male","yes","yes","3","7","null","stimuli/sounds/bleep.wav","null","","","","","","",""
"","","","","","html-keyboard-response","123","2.0.0","122790","p1ap86fhd84","mus","duck","21","male","yes","yes","3","7","337","<div style=""font-size:30px;"">Press space to start the trial</div>"," ","","","","","","",""
"","","","","","html-keyboard-response","124","2.0.0","123042","p1ap86fhd84","mus","duck","21","male","yes","yes","3","7","null","<div style=""font-size:60px;"">+</div>","null","","","","","","",""
"","","","","","audio-keyboard-response","125","2.0.0","123641","p1ap86fhd84","mus","duck","21","male","yes","yes","3","7","null","stimuli/sounds/drum_label_B.wav","null","","","","","","",""
"","","","","","html-keyboard-response","126","2.0.0","124643","p1ap86fhd84","mus","duck","21","male","yes","yes","3","7","null","","null","","","","","","",""
"","","","","","image-keyboard-response","127","2.0.0","125236","p1ap86fhd84","mus","duck","21","male","yes","yes","3","7","593","stimuli/pictures/piano_electric_1.jpg","0","0","","true","no","sound","stimuli/sounds/drum_label_B.wav",""
"","","","","","audio-keyboard-response","128","2.0.0","126238","p1ap86fhd84","mus","duck","21","male","yes","yes","3","7","null","stimuli/sounds/bleep.wav","null","","","","","","",""
"","","","","","html-keyboard-response","129","2.0.0","126656","p1ap86fhd84","mus","duck","21","male","yes","yes","3","7","317","<div style=""font-size:30px;"">Press space to start the trial</div>"," ","","","","","","",""
"","","","","","html-keyboard-response","130","2.0.0","126908","p1ap86fhd84","mus","duck","21","male","yes","yes","3","7","null","<div style=""font-size:60px;"">+</div>","null","","","","","","",""
"","","","","","audio-keyboard-response","131","2.0.0","127535","p1ap86fhd84","mus","duck","21","male","yes","yes","3","7","null","stimuli/sounds/piano_label_A.wav","null","","","","","","",""
"","","","","","html-keyboard-response","132","2.0.0","128536","p1ap86fhd84","mus","duck","21","male","yes","yes","3","7","null","","null","","","","","","",""
"","","","","","image-keyboard-response","133","2.0.0","129559","p1ap86fhd84","mus","duck","21","male","yes","yes","3","7","1019","stimuli/pictures/phone_cell_1.jpg","0","0","","true","no","sound","stimuli/sounds/piano_label_A.wav",""
"","","","","","audio-keyboard-response","134","2.0.0","130561","p1ap86fhd84","mus","duck","21","male","yes","yes","3","7","null","stimuli/sounds/bleep.wav","null","","","","","","",""
"","","","","","html-keyboard-response","135","2.0.0","130982","p1ap86fhd84","mus","duck","21","male","yes","yes","3","7","318","<div style=""font-size:30px;"">Press space to start the trial</div>"," ","","","","","","",""
"","","","","","html-keyboard-response","136","2.0.0","131234","p1ap86fhd84","mus","duck","21","male","yes","yes","3","7","null","<div style=""font-size:60px;"">+</div>","null","","","","","","",""
"","","","","","audio-keyboard-response","137","2.0.0","131833","p1ap86fhd84","mus","duck","21","male","yes","yes","3","7","null","stimuli/sounds/bird_sound_B.wav","null","","","","","","",""
"","","","","","html-keyboard-response","138","2.0.0","132835","p1ap86fhd84","mus","duck","21","male","yes","yes","3","7","null","","null","","","","","","",""
"","","","","","image-keyboard-response","139","2.0.0","133372","p1ap86fhd84","mus","duck","21","male","yes","yes","3","7","533","stimuli/pictures/drum_bongo_1.jpg","0","0","","true","no","sound","stimuli/sounds/bird_sound_B.wav",""
"","","","","","audio-keyboard-response","140","2.0.0","134373","p1ap86fhd84","mus","duck","21","male","yes","yes","3","7","null","stimuli/sounds/bleep.wav","null","","","","","","",""
"","","","","","html-keyboard-response","141","2.0.0","134734","p1ap86fhd84","mus","duck","21","male","yes","yes","3","7","259","<div style=""font-size:30px;"">Press space to start the trial</div>"," ","","","","","","",""
"","","","","","html-keyboard-response","142","2.0.0","134985","p1ap86fhd84","mus","duck","21","male","yes","yes","3","7","null","<div style=""font-size:60px;"">+</div>","null","","","","","","",""
"","","","","","audio-keyboard-response","143","2.0.0","135593","p1ap86fhd84","mus","duck","21","male","yes","yes","3","7","null","stimuli/sounds/piano_sound_A.wav","null","","","","","","",""
"","","","","","html-keyboard-response","144","2.0.0","136595","p1ap86fhd84","mus","duck","21","male","yes","yes","3","7","null","","null","","","","","","",""
"","","","","","image-keyboard-response","145","2.0.0","137081","p1ap86fhd84","mus","duck","21","male","yes","yes","3","7","485","stimuli/pictures/piano_electric_1.jpg","1","1","","true","no","sound","stimuli/sounds/piano_sound_A.wav",""
"","","","","","audio-keyboard-response","146","2.0.0","138083","p1ap86fhd84","mus","duck","21","male","yes","yes","3","7","null","stimuli/sounds/bleep.wav","null","","","","","","",""
"","","","","","html-keyboard-response","147","2.0.0","142570","p1ap86fhd84","mus","duck","21","male","yes","yes","3","7","4386","<p>You have completed a block. Press R when you are ready to continue</p>","r","","","","","","",""
"","","","","","html-keyboard-response","148","2.0.0","143273","p1ap86fhd84","mus","duck","21","male","yes","yes","3","7","701","<div style=""font-size:30px;"">Press space to start the trial</div>"," ","","","","","","",""
"","","","","","html-keyboard-response","149","2.0.0","143525","p1ap86fhd84","mus","duck","21","male","yes","yes","3","7","null","<div style=""font-size:60px;"">+</div>","null","","","","","","",""
"","","","","","audio-keyboard-response","150","2.0.0","144124","p1ap86fhd84","mus","duck","21","male","yes","yes","3","7","null","stimuli/sounds/bird_label_B.wav","null","","","","","","",""
"","","","","","html-keyboard-response","151","2.0.0","145125","p1ap86fhd84","mus","duck","21","male","yes","yes","3","7","null","","null","","","","","","",""
"","","","","","image-keyboard-response","152","2.0.0","145634","p1ap86fhd84","mus","duck","21","male","yes","yes","3","7","507","stimuli/pictures/phone_cell_1.jpg","0","0","","true","no","sound","stimuli/sounds/bird_label_B.wav",""
"","","","","","audio-keyboard-response","153","2.0.0","146636","p1ap86fhd84","mus","duck","21","male","yes","yes","3","7","null","stimuli/sounds/bleep.wav","null","","","","","","",""
"","","","","","html-keyboard-response","154","2.0.0","185440","p1ap86fhd84","mus","duck","21","male","yes","yes","3","7","38702","<div style=""font-size:30px;"">Press space to start the trial</div>"," ","","","","","","",""
"","","","","","html-keyboard-response","155","2.0.0","185692","p1ap86fhd84","mus","duck","21","male","yes","yes","3","7","null","<div style=""font-size:60px;"">+</div>","null","","","","","","",""
"","","","","","audio-keyboard-response","156","2.0.0","186319","p1ap86fhd84","mus","duck","21","male","yes","yes","3","7","null","stimuli/sounds/piano_label_A.wav","null","","","","","","",""
"","","","","","html-keyboard-response","157","2.0.0","187321","p1ap86fhd84","mus","duck","21","male","yes","yes","3","7","null","","null","","","","","","",""
"","","","","","image-keyboard-response","158","2.0.0","187810","p1ap86fhd84","mus","duck","21","male","yes","yes","3","7","488","stimuli/pictures/piano_electric_2.jpg","1","1","","true","yes","sound","stimuli/sounds/piano_label_A.wav",""
"","","","","","audio-keyboard-response","159","2.0.0","188812","p1ap86fhd84","mus","duck","21","male","yes","yes","3","7","null","stimuli/sounds/bleep.wav","null","","","","","","",""
"","","","","","html-keyboard-response","160","2.0.0","189617","p1ap86fhd84","mus","duck","21","male","yes","yes","3","7","703","<div style=""font-size:30px;"">Press space to start the trial</div>"," ","","","","","","",""
"","","","","","html-keyboard-response","161","2.0.0","189869","p1ap86fhd84","mus","duck","21","male","yes","yes","3","7","null","<div style=""font-size:60px;"">+</div>","null","","","","","","",""
"","","","","","audio-keyboard-response","162","2.0.0","190471","p1ap86fhd84","mus","duck","21","male","yes","yes","3","7","null","stimuli/sounds/flute_label_A.wav","null","","","","","","",""
"","","","","","html-keyboard-response","163","2.0.0","191473","p1ap86fhd84","mus","duck","21","male","yes","yes","3","7","null","","null","","","","","","",""
"","","","","","image-keyboard-response","164","2.0.0","191968","p1ap86fhd84","mus","duck","21","male","yes","yes","3","7","494","stimuli/pictures/piano_electric_1.jpg","1","0","","false","no","sound","stimuli/sounds/flute_label_A.wav",""
"","","","","","audio-keyboard-response","165","2.0.0","192970","p1ap86fhd84","mus","duck","21","male","yes","yes","3","7","null","stimuli/sounds/buzz.wav","null","","","","","","",""
"","","","","","html-keyboard-response","166","2.0.0","193077","p1ap86fhd84","mus","duck","21","male","yes","yes","3","7","5","<div style=""font-size:30px;"">Press space to start the trial</div>"," ","","","","","","",""
"","","","","","html-keyboard-response","167","2.0.0","193328","p1ap86fhd84","mus","duck","21","male","yes","yes","3","7","null","<div style=""font-size:60px;"">+</div>","null","","","","","","",""
"","","","","","audio-keyboard-response","168","2.0.0","193927","p1ap86fhd84","mus","duck","21","male","yes","yes","3","7","null","stimuli/sounds/phone_sound_A.wav","null","","","","","","",""
"","","","","","html-keyboard-response","169","2.0.0","194929","p1ap86fhd84","mus","duck","21","male","yes","yes","3","7","null","","null","","","","","","",""
"","","","","","image-keyboard-response","170","2.0.0","195371","p1ap86fhd84","mus","duck","21","male","yes","yes","3","7","440","stimuli/pictures/phone_rotary_1.jpg","1","1","","true","no","sound","stimuli/sounds/phone_sound_A.wav",""
"","","","","","audio-keyboard-response","171","2.0.0","196373","p1ap86fhd84","mus","duck","21","male","yes","yes","3","7","null","stimuli/sounds/bleep.wav","null","","","","","","",""
"","","","","","html-keyboard-response","172","2.0.0","197009","p1ap86fhd84","mus","duck","21","male","yes","yes","3","7","533","<div style=""font-size:30px;"">Press space to start the trial</div>"," ","","","","","","",""
"","","","","","html-keyboard-response","173","2.0.0","197260","p1ap86fhd84","mus","duck","21","male","yes","yes","3","7","null","<div style=""font-size:60px;"">+</div>","null","","","","","","",""
"","","","","","audio-keyboard-response","174","2.0.0","197863","p1ap86fhd84","mus","duck","21","male","yes","yes","3","7","null","stimuli/sounds/piano_label_B.wav","null","","","","","","",""
"","","","","","html-keyboard-response","175","2.0.0","198864","p1ap86fhd84","mus","duck","21","male","yes","yes","3","7","null","","null","","","","","","",""
"","","","","","image-keyboard-response","176","2.0.0","199540","p1ap86fhd84","mus","duck","21","male","yes","yes","3","7","673","stimuli/pictures/piano_grand_2.jpg","1","1","","true","yes","sound","stimuli/sounds/piano_label_B.wav",""
"","","","","","audio-keyboard-response","177","2.0.0","200542","p1ap86fhd84","mus","duck","21","male","yes","yes","3","7","null","stimuli/sounds/bleep.wav","null","","","","","","",""
"","","","","","html-keyboard-response","178","2.0.0","200865","p1ap86fhd84","mus","duck","21","male","yes","yes","3","7","220","<div style=""font-size:30px;"">Press space to start the trial</div>"," ","","","","","","",""
"","","","","","html-keyboard-response","179","2.0.0","201116","p1ap86fhd84","mus","duck","21","male","yes","yes","3","7","null","<div style=""font-size:60px;"">+</div>","null","","","","","","",""
"","","","","","audio-keyboard-response","180","2.0.0","201716","p1ap86fhd84","mus","duck","21","male","yes","yes","3","7","null","stimuli/sounds/drum_sound_A.wav","null","","","","","","",""
"","","","","","html-keyboard-response","181","2.0.0","202718","p1ap86fhd84","mus","duck","21","male","yes","yes","3","7","null","","null","","","","","","",""
"","","","","","image-keyboard-response","182","2.0.0","203220","p1ap86fhd84","mus","duck","21","male","yes","yes","3","7","501","stimuli/pictures/flute_wooden_1.jpg","0","0","","true","no","sound","stimuli/sounds/drum_sound_A.wav",""
"","","","","","audio-keyboard-response","183","2.0.0","204222","p1ap86fhd84","mus","duck","21","male","yes","yes","3","7","null","stimuli/sounds/bleep.wav","null","","","","","","",""
"","","","","","html-keyboard-response","184","2.0.0","204522","p1ap86fhd84","mus","duck","21","male","yes","yes","3","7","198","<div style=""font-size:30px;"">Press space to start the trial</div>"," ","","","","","","",""
"","","","","","html-keyboard-response","185","2.0.0","204774","p1ap86fhd84","mus","duck","21","male","yes","yes","3","7","null","<div style=""font-size:60px;"">+</div>","null","","","","","","",""
"","","","","","audio-keyboard-response","186","2.0.0","205372","p1ap86fhd84","mus","duck","21","male","yes","yes","3","7","null","stimuli/sounds/bird_sound_A.wav","null","","","","","","",""
"","","","","","html-keyboard-response","187","2.0.0","206374","p1ap86fhd84","mus","duck","21","male","yes","yes","3","7","null","","null","","","","","","",""
"","","","","","image-keyboard-response","188","2.0.0","206823","p1ap86fhd84","mus","duck","21","male","yes","yes","3","7","446","stimuli/pictures/piano_grand_1.jpg","0","0","","true","no","sound","stimuli/sounds/bird_sound_A.wav",""
"","","","","","audio-keyboard-response","189","2.0.0","207824","p1ap86fhd84","mus","duck","21","male","yes","yes","3","7","null","stimuli/sounds/bleep.wav","null","","","","","","",""
"","","","","","html-keyboard-response","190","2.0.0","208222","p1ap86fhd84","mus","duck","21","male","yes","yes","3","7","296","<div style=""font-size:30px;"">Press space to start the trial</div>"," ","","","","","","",""
"","","","","","html-keyboard-response","191","2.0.0","208474","p1ap86fhd84","mus","duck","21","male","yes","yes","3","7","null","<div style=""font-size:60px;"">+</div>","null","","","","","","",""
"","","","","","audio-keyboard-response","192","2.0.0","209074","p1ap86fhd84","mus","duck","21","male","yes","yes","3","7","null","stimuli/sounds/drum_sound_B.wav","null","","","","","","",""
"","","","","","html-keyboard-response","193","2.0.0","210075","p1ap86fhd84","mus","duck","21","male","yes","yes","3","7","null","","null","","","","","","",""
"","","","","","image-keyboard-response","194","2.0.0","210603","p1ap86fhd84","mus","duck","21","male","yes","yes","3","7","525","stimuli/pictures/drum_kit_1.jpg","1","1","","true","no","sound","stimuli/sounds/drum_sound_B.wav",""
"","","","","","audio-keyboard-response","195","2.0.0","211605","p1ap86fhd84","mus","duck","21","male","yes","yes","3","7","null","stimuli/sounds/bleep.wav","null","","","","","","",""
"","","","","","html-keyboard-response","196","2.0.0","212141","p1ap86fhd84","mus","duck","21","male","yes","yes","3","7","435","<div style=""font-size:30px;"">Press space to start the trial</div>"," ","","","","","","",""
"","","","","","html-keyboard-response","197","2.0.0","212393","p1ap86fhd84","mus","duck","21","male","yes","yes","3","7","null","<div style=""font-size:60px;"">+</div>","null","","","","","","",""
"","","","","","audio-keyboard-response","198","2.0.0","212997","p1ap86fhd84","mus","duck","21","male","yes","yes","3","7","null","stimuli/sounds/flute_sound_A.wav","null","","","","","","",""
"","","","","","html-keyboard-response","199","2.0.0","213998","p1ap86fhd84","mus","duck","21","male","yes","yes","3","7","null","","null","","","","","","",""
"","","","","","image-keyboard-response","200","2.0.0","214556","p1ap86fhd84","mus","duck","21","male","yes","yes","3","7","555","stimuli/pictures/flute_metal_2.jpg","1","1","","true","yes","sound","stimuli/sounds/flute_sound_A.wav",""
"","","","","","audio-keyboard-response","201","2.0.0","215558","p1ap86fhd84","mus","duck","21","male","yes","yes","3","7","null","stimuli/sounds/bleep.wav","null","","","","","","",""
"","","","","","html-keyboard-response","202","2.0.0","215918","p1ap86fhd84","mus","duck","21","male","yes","yes","3","7","260","<div style=""font-size:30px;"">Press space to start the trial</div>"," ","","","","","","",""
"","","","","","html-keyboard-response","203","2.0.0","216170","p1ap86fhd84","mus","duck","21","male","yes","yes","3","7","null","<div style=""font-size:60px;"">+</div>","null","","","","","","",""
"","","","","","audio-keyboard-response","204","2.0.0","216770","p1ap86fhd84","mus","duck","21","male","yes","yes","3","7","null","stimuli/sounds/drum_sound_B.wav","null","","","","","","",""
"","","","","","html-keyboard-response","205","2.0.0","217771","p1ap86fhd84","mus","duck","21","male","yes","yes","3","7","null","","null","","","","","","",""
"","","","","","image-keyboard-response","206","2.0.0","218219","p1ap86fhd84","mus","duck","21","male","yes","yes","3","7","447","stimuli/pictures/drum_bongo_1.jpg","1","1","","true","yes","sound","stimuli/sounds/drum_sound_B.wav",""
"","","","","","audio-keyboard-response","207","2.0.0","219221","p1ap86fhd84","mus","duck","21","male","yes","yes","3","7","null","stimuli/sounds/bleep.wav","null","","","","","","",""
"","","","","","html-keyboard-response","208","2.0.0","219620","p1ap86fhd84","mus","duck","21","male","yes","yes","3","7","296","<div style=""font-size:30px;"">Press space to start the trial</div>"," ","","","","","","",""
"","","","","","html-keyboard-response","209","2.0.0","219872","p1ap86fhd84","mus","duck","21","male","yes","yes","3","7","null","<div style=""font-size:60px;"">+</div>","null","","","","","","",""
"","","","","","audio-keyboard-response","210","2.0.0","220474","p1ap86fhd84","mus","duck","21","male","yes","yes","3","7","null","stimuli/sounds/piano_label_B.wav","null","","","","","","",""
"","","","","","html-keyboard-response","211","2.0.0","221475","p1ap86fhd84","mus","duck","21","male","yes","yes","3","7","null","","null","","","","","","",""
"","","","","","image-keyboard-response","212","2.0.0","222060","p1ap86fhd84","mus","duck","21","male","yes","yes","3","7","584","stimuli/pictures/bird_hawk_1.jpg","0","0","","true","no","sound","stimuli/sounds/piano_label_B.wav",""
"","","","","","audio-keyboard-response","213","2.0.0","223062","p1ap86fhd84","mus","duck","21","male","yes","yes","3","7","null","stimuli/sounds/bleep.wav","null","","","","","","",""
"","","","","","html-keyboard-response","214","2.0.0","223579","p1ap86fhd84","mus","duck","21","male","yes","yes","3","7","415","<div style=""font-size:30px;"">Press space to start the trial</div>"," ","","","","","","",""
"","","","","","html-keyboard-response","215","2.0.0","223831","p1ap86fhd84","mus","duck","21","male","yes","yes","3","7","null","<div style=""font-size:60px;"">+</div>","null","","","","","","",""
"","","","","","audio-keyboard-response","216","2.0.0","224439","p1ap86fhd84","mus","duck","21","male","yes","yes","3","7","null","stimuli/sounds/flute_sound_B.wav","null","","","","","","",""
"","","","","","html-keyboard-response","217","2.0.0","225441","p1ap86fhd84","mus","duck","21","male","yes","yes","3","7","null","","null","","","","","","",""
"","","","","","image-keyboard-response","218","2.0.0","226033","p1ap86fhd84","mus","duck","21","male","yes","yes","3","7","588","stimuli/pictures/bird_song_1.jpg","0","0","","true","no","sound","stimuli/sounds/flute_sound_B.wav",""
"","","","","","audio-keyboard-response","219","2.0.0","227035","p1ap86fhd84","mus","duck","21","male","yes","yes","3","7","null","stimuli/sounds/bleep.wav","null","","","","","","",""
"","","","","","html-keyboard-response","220","2.0.0","227528","p1ap86fhd84","mus","duck","21","male","yes","yes","3","7","391","<div style=""font-size:30px;"">Press space to start the trial</div>"," ","","","","","","",""
"","","","","","html-keyboard-response","221","2.0.0","227780","p1ap86fhd84","mus","duck","21","male","yes","yes","3","7","null","<div style=""font-size:60px;"">+</div>","null","","","","","","",""
"","","","","","audio-keyboard-response","222","2.0.0","228381","p1ap86fhd84","mus","duck","21","male","yes","yes","3","7","null","stimuli/sounds/bird_label_B.wav","null","","","","","","",""
"","","","","","html-keyboard-response","223","2.0.0","229384","p1ap86fhd84","mus","duck","21","male","yes","yes","3","7","null","","null","","","","","","",""
"","","","","","image-keyboard-response","224","2.0.0","229902","p1ap86fhd84","mus","duck","21","male","yes","yes","3","7","516","stimuli/pictures/phone_cell_2.jpg","0","0","","true","no","sound","stimuli/sounds/bird_label_B.wav",""
"","","","","","audio-keyboard-response","225","2.0.0","230905","p1ap86fhd84","mus","duck","21","male","yes","yes","3","7","null","stimuli/sounds/bleep.wav","null","","","","","","",""
"","","","","","html-keyboard-response","226","2.0.0","231175","p1ap86fhd84","mus","duck","21","male","yes","yes","3","7","168","<div style=""font-size:30px;"">Press space to start the trial</div>"," ","","","","","","",""
"","","","","","html-keyboard-response","227","2.0.0","231427","p1ap86fhd84","mus","duck","21","male","yes","yes","3","7","null","<div style=""font-size:60px;"">+</div>","null","","","","","","",""
"","","","","","audio-keyboard-response","228","2.0.0","232026","p1ap86fhd84","mus","duck","21","male","yes","yes","3","7","null","stimuli/sounds/phone_sound_A.wav","null","","","","","","",""
"","","","","","html-keyboard-response","229","2.0.0","233027","p1ap86fhd84","mus","duck","21","male","yes","yes","3","7","null","","null","","","","","","",""
"","","","","","image-keyboard-response","230","2.0.0","233513","p1ap86fhd84","mus","duck","21","male","yes","yes","3","7","485","stimuli/pictures/phone_cell_2.jpg","1","1","","true","yes","sound","stimuli/sounds/phone_sound_A.wav",""
"","","","","","audio-keyboard-response","231","2.0.0","234515","p1ap86fhd84","mus","duck","21","male","yes","yes","3","7","null","stimuli/sounds/bleep.wav","null","","","","","","",""
"","","","","","html-keyboard-response","232","2.0.0","234939","p1ap86fhd84","mus","duck","21","male","yes","yes","3","7","322","<div style=""font-size:30px;"">Press space to start the trial</div>"," ","","","","","","",""
"","","","","","html-keyboard-response","233","2.0.0","235191","p1ap86fhd84","mus","duck","21","male","yes","yes","3","7","null","<div style=""font-size:60px;"">+</div>","null","","","","","","",""
"","","","","","audio-keyboard-response","234","2.0.0","235791","p1ap86fhd84","mus","duck","21","male","yes","yes","3","7","null","stimuli/sounds/bird_sound_A.wav","null","","","","","","",""
"","","","","","html-keyboard-response","235","2.0.0","236793","p1ap86fhd84","mus","duck","21","male","yes","yes","3","7","null","","null","","","","","","",""
"","","","","","image-keyboard-response","236","2.0.0","237196","p1ap86fhd84","mus","duck","21","male","yes","yes","3","7","403","stimuli/pictures/bird_hawk_1.jpg","1","1","","true","yes","sound","stimuli/sounds/bird_sound_A.wav",""
"","","","","","audio-keyboard-response","237","2.0.0","238199","p1ap86fhd84","mus","duck","21","male","yes","yes","3","7","null","stimuli/sounds/bleep.wav","null","","","","","","",""
"","","","","","html-keyboard-response","238","2.0.0","238533","p1ap86fhd84","mus","duck","21","male","yes","yes","3","7","233","<div style=""font-size:30px;"">Press space to start the trial</div>"," ","","","","","","",""
"","","","","","html-keyboard-response","239","2.0.0","238785","p1ap86fhd84","mus","duck","21","male","yes","yes","3","7","null","<div style=""font-size:60px;"">+</div>","null","","","","","","",""
"","","","","","audio-keyboard-response","240","2.0.0","239389","p1ap86fhd84","mus","duck","21","male","yes","yes","3","7","null","stimuli/sounds/flute_label_A.wav","null","","","","","","",""
"","","","","","html-keyboard-response","241","2.0.0","240390","p1ap86fhd84","mus","duck","21","male","yes","yes","3","7","null","","null","","","","","","",""
"","","","","","image-keyboard-response","242","2.0.0","241002","p1ap86fhd84","mus","duck","21","male","yes","yes","3","7","611","stimuli/pictures/piano_grand_2.jpg","0","0","","true","no","sound","stimuli/sounds/flute_label_A.wav",""
"","","","","","audio-keyboard-response","243","2.0.0","242005","p1ap86fhd84","mus","duck","21","male","yes","yes","3","7","null","stimuli/sounds/bleep.wav","null","","","","","","",""
"","","","","","html-keyboard-response","244","2.0.0","242415","p1ap86fhd84","mus","duck","21","male","yes","yes","3","7","308","<div style=""font-size:30px;"">Press space to start the trial</div>"," ","","","","","","",""
"","","","","","html-keyboard-response","245","2.0.0","242666","p1ap86fhd84","mus","duck","21","male","yes","yes","3","7","null","<div style=""font-size:60px;"">+</div>","null","","","","","","",""
"","","","","","audio-keyboard-response","246","2.0.0","243269","p1ap86fhd84","mus","duck","21","male","yes","yes","3","7","null","stimuli/sounds/piano_label_B.wav","null","","","","","","",""
"","","","","","html-keyboard-response","247","2.0.0","244270","p1ap86fhd84","mus","duck","21","male","yes","yes","3","7","null","","null","","","","","","",""
"","","","","","image-keyboard-response","248","2.0.0","244738","p1ap86fhd84","mus","duck","21","male","yes","yes","3","7","467","stimuli/pictures/piano_electric_2.jpg","1","1","","true","yes","sound","stimuli/sounds/piano_label_B.wav",""
"","","","","","audio-keyboard-response","249","2.0.0","245740","p1ap86fhd84","mus","duck","21","male","yes","yes","3","7","null","stimuli/sounds/bleep.wav","null","","","","","","",""
"","","","","","html-keyboard-response","250","2.0.0","246318","p1ap86fhd84","mus","duck","21","male","yes","yes","3","7","476","<div style=""font-size:30px;"">Press space to start the trial</div>"," ","","","","","","",""
"","","","","","html-keyboard-response","251","2.0.0","246570","p1ap86fhd84","mus","duck","21","male","yes","yes","3","7","null","<div style=""font-size:60px;"">+</div>","null","","","","","","",""
"","","","","","audio-keyboard-response","252","2.0.0","247197","p1ap86fhd84","mus","duck","21","male","yes","yes","3","7","null","stimuli/sounds/piano_label_A.wav","null","","","","","","",""
"","","","","","html-keyboard-response","253","2.0.0","248199","p1ap86fhd84","mus","duck","21","male","yes","yes","3","7","null","","null","","","","","","",""
"","","","","","image-keyboard-response","254","2.0.0","248826","p1ap86fhd84","mus","duck","21","male","yes","yes","3","7","627","stimuli/pictures/phone_cell_2.jpg","0","0","","true","no","sound","stimuli/sounds/piano_label_A.wav",""
"","","","","","audio-keyboard-response","255","2.0.0","249829","p1ap86fhd84","mus","duck","21","male","yes","yes","3","7","null","stimuli/sounds/bleep.wav","null","","","","","","",""
"","","","","","html-keyboard-response","256","2.0.0","250174","p1ap86fhd84","mus","duck","21","male","yes","yes","3","7","243","<div style=""font-size:30px;"">Press space to start the trial</div>"," ","","","","","","",""
"","","","","","html-keyboard-response","257","2.0.0","250426","p1ap86fhd84","mus","duck","21","male","yes","yes","3","7","null","<div style=""font-size:60px;"">+</div>","null","","","","","","",""
"","","","","","audio-keyboard-response","258","2.0.0","251053","p1ap86fhd84","mus","duck","21","male","yes","yes","3","7","null","stimuli/sounds/piano_label_A.wav","null","","","","","","",""
"","","","","","html-keyboard-response","259","2.0.0","252054","p1ap86fhd84","mus","duck","21","male","yes","yes","3","7","null","","null","","","","","","",""
"","","","","","image-keyboard-response","260","2.0.0","252531","p1ap86fhd84","mus","duck","21","male","yes","yes","3","7","476","stimuli/pictures/piano_grand_1.jpg","1","1","","true","yes","sound","stimuli/sounds/piano_label_A.wav",""
"","","","","","audio-keyboard-response","261","2.0.0","253533","p1ap86fhd84","mus","duck","21","male","yes","yes","3","7","null","stimuli/sounds/bleep.wav","null","","","","","","",""
"","","","","","html-keyboard-response","262","2.0.0","254038","p1ap86fhd84","mus","duck","21","male","yes","yes","3","7","404","<div style=""font-size:30px;"">Press space to start the trial</div>"," ","","","","","","",""
"","","","","","html-keyboard-response","263","2.0.0","254290","p1ap86fhd84","mus","duck","21","male","yes","yes","3","7","null","<div style=""font-size:60px;"">+</div>","null","","","","","","",""
"","","","","","audio-keyboard-response","264","2.0.0","254917","p1ap86fhd84","mus","duck","21","male","yes","yes","3","7","null","stimuli/sounds/piano_label_A.wav","null","","","","","","",""
"","","","","","html-keyboard-response","265","2.0.0","255918","p1ap86fhd84","mus","duck","21","male","yes","yes","3","7","null","","null","","","","","","",""
"","","","","","image-keyboard-response","266","2.0.0","256378","p1ap86fhd84","mus","duck","21","male","yes","yes","3","7","459","stimuli/pictures/piano_grand_2.jpg","1","1","","true","yes","sound","stimuli/sounds/piano_label_A.wav",""
"","","","","","audio-keyboard-response","267","2.0.0","257380","p1ap86fhd84","mus","duck","21","male","yes","yes","3","7","null","stimuli/sounds/bleep.wav","null","","","","","","",""
"","","","","","html-keyboard-response","268","2.0.0","259366","p1ap86fhd84","mus","duck","21","male","yes","yes","3","7","1884","<p>You have completed a block. Press R when you are ready to continue</p>","r","","","","","","",""
"","","","","","html-keyboard-response","269","2.0.0","259885","p1ap86fhd84","mus","duck","21","male","yes","yes","3","7","518","<div style=""font-size:30px;"">Press space to start the trial</div>"," ","","","","","","",""
"","","","","","html-keyboard-response","270","2.0.0","260137","p1ap86fhd84","mus","duck","21","male","yes","yes","3","7","null","<div style=""font-size:60px;"">+</div>","null","","","","","","",""
"","","","","","audio-keyboard-response","271","2.0.0","260736","p1ap86fhd84","mus","duck","21","male","yes","yes","3","7","null","stimuli/sounds/drum_sound_B.wav","null","","","","","","",""
"","","","","","html-keyboard-response","272","2.0.0","261737","p1ap86fhd84","mus","duck","21","male","yes","yes","3","7","null","","null","","","","","","",""
"","","","","","image-keyboard-response","273","2.0.0","262288","p1ap86fhd84","mus","duck","21","male","yes","yes","3","7","551","stimuli/pictures/phone_cell_2.jpg","0","0","","true","no","sound","stimuli/sounds/drum_sound_B.wav",""
"","","","","","audio-keyboard-response","274","2.0.0","263290","p1ap86fhd84","mus","duck","21","male","yes","yes","3","7","null","stimuli/sounds/bleep.wav","null","","","","","","",""
"","","","","","html-keyboard-response","275","2.0.0","263769","p1ap86fhd84","mus","duck","21","male","yes","yes","3","7","377","<div style=""font-size:30px;"">Press space to start the trial</div>"," ","","","","","","",""
"","","","","","html-keyboard-response","276","2.0.0","264021","p1ap86fhd84","mus","duck","21","male","yes","yes","3","7","null","<div style=""font-size:60px;"">+</div>","null","","","","","","",""
"","","","","","audio-keyboard-response","277","2.0.0","264621","p1ap86fhd84","mus","duck","21","male","yes","yes","3","7","null","stimuli/sounds/bird_sound_A.wav","null","","","","","","",""
"","","","","","html-keyboard-response","278","2.0.0","265623","p1ap86fhd84","mus","duck","21","male","yes","yes","3","7","null","","null","","","","","","",""
"","","","","","image-keyboard-response","279","2.0.0","266007","p1ap86fhd84","mus","duck","21","male","yes","yes","3","7","383","stimuli/pictures/bird_hawk_1.jpg","1","1","","true","yes","sound","stimuli/sounds/bird_sound_A.wav",""
"","","","","","audio-keyboard-response","280","2.0.0","267008","p1ap86fhd84","mus","duck","21","male","yes","yes","3","7","null","stimuli/sounds/bleep.wav","null","","","","","","",""
"","","","","","html-keyboard-response","281","2.0.0","267155","p1ap86fhd84","mus","duck","21","male","yes","yes","3","7","46","<div style=""font-size:30px;"">Press space to start the trial</div>"," ","","","","","","",""
"","","","","","html-keyboard-response","282","2.0.0","267407","p1ap86fhd84","mus","duck","21","male","yes","yes","3","7","null","<div style=""font-size:60px;"">+</div>","null","","","","","","",""
"","","","","","audio-keyboard-response","283","2.0.0","268008","p1ap86fhd84","mus","duck","21","male","yes","yes","3","7","null","stimuli/sounds/drum_sound_A.wav","null","","","","","","",""
"","","","","","html-keyboard-response","284","2.0.0","269009","p1ap86fhd84","mus","duck","21","male","yes","yes","3","7","null","","null","","","","","","",""
"","","","","","image-keyboard-response","285","2.0.0","269499","p1ap86fhd84","mus","duck","21","male","yes","yes","3","7","488","stimuli/pictures/drum_kit_1.jpg","1","1","","true","yes","sound","stimuli/sounds/drum_sound_A.wav",""
"","","","","","audio-keyboard-response","286","2.0.0","270501","p1ap86fhd84","mus","duck","21","male","yes","yes","3","7","null","stimuli/sounds/bleep.wav","null","","","","","","",""
"","","","","","html-keyboard-response","287","2.0.0","270854","p1ap86fhd84","mus","duck","21","male","yes","yes","3","7","252","<div style=""font-size:30px;"">Press space to start the trial</div>"," ","","","","","","",""
"","","","","","html-keyboard-response","288","2.0.0","271106","p1ap86fhd84","mus","duck","21","male","yes","yes","3","7","null","<div style=""font-size:60px;"">+</div>","null","","","","","","",""
"","","","","","audio-keyboard-response","289","2.0.0","271706","p1ap86fhd84","mus","duck","21","male","yes","yes","3","7","null","stimuli/sounds/drum_sound_B.wav","null","","","","","","",""
"","","","","","html-keyboard-response","290","2.0.0","272708","p1ap86fhd84","mus","duck","21","male","yes","yes","3","7","null","","null","","","","","","",""
"","","","","","image-keyboard-response","291","2.0.0","273227","p1ap86fhd84","mus","duck","21","male","yes","yes","3","7","518","stimuli/pictures/phone_rotary_1.jpg","0","0","","true","no","sound","stimuli/sounds/drum_sound_B.wav",""
"","","","","","audio-keyboard-response","292","2.0.0","274229","p1ap86fhd84","mus","duck","21","male","yes","yes","3","7","null","stimuli/sounds/bleep.wav","null","","","","","","",""
"","","","","","html-keyboard-response","293","2.0.0","274864","p1ap86fhd84","mus","duck","21","male","yes","yes","3","7","533","<div style=""font-size:30px;"">Press space to start the trial</div>"," ","","","","","","",""
"","","","","","html-keyboard-response","294","2.0.0","275116","p1ap86fhd84","mus","duck","21","male","yes","yes","3","7","null","<div style=""font-size:60px;"">+</div>","null","","","","","","",""
"","","","","","audio-keyboard-response","295","2.0.0","275717","p1ap86fhd84","mus","duck","21","male","yes","yes","3","7","null","stimuli/sounds/flute_sound_A.wav","null","","","","","","",""
"","","","","","html-keyboard-response","296","2.0.0","276718","p1ap86fhd84","mus","duck","21","male","yes","yes","3","7","null","","null","","","","","","",""
"","","","","","image-keyboard-response","297","2.0.0","277183","p1ap86fhd84","mus","duck","21","male","yes","yes","3","7","464","stimuli/pictures/phone_cell_2.jpg","0","0","","true","no","sound","stimuli/sounds/flute_sound_A.wav",""
"","","","","","audio-keyboard-response","298","2.0.0","278185","p1ap86fhd84","mus","duck","21","male","yes","yes","3","7","null","stimuli/sounds/bleep.wav","null","","","","","","",""
"","","","","","html-keyboard-response","299","2.0.0","278552","p1ap86fhd84","mus","duck","21","male","yes","yes","3","7","265","<div style=""font-size:30px;"">Press space to start the trial</div>"," ","","","","","","",""
"","","","","","html-keyboard-response","300","2.0.0","278804","p1ap86fhd84","mus","duck","21","male","yes","yes","3","7","null","<div style=""font-size:60px;"">+</div>","null","","","","","","",""
"","","","","","audio-keyboard-response","301","2.0.0","279402","p1ap86fhd84","mus","duck","21","male","yes","yes","3","7","null","stimuli/sounds/phone_label_B.wav","null","","","","","","",""
"","","","","","html-keyboard-response","302","2.0.0","280404","p1ap86fhd84","mus","duck","21","male","yes","yes","3","7","null","","null","","","","","","",""
"","","","","","image-keyboard-response","303","2.0.0","281043","p1ap86fhd84","mus","duck","21","male","yes","yes","3","7","638","stimuli/pictures/phone_rotary_1.jpg","1","1","","true","yes","sound","stimuli/sounds/phone_label_B.wav",""
"","","","","","audio-keyboard-response","304","2.0.0","282045","p1ap86fhd84","mus","duck","21","male","yes","yes","3","7","null","stimuli/sounds/bleep.wav","null","","","","","","",""
"","","","","","html-keyboard-response","305","2.0.0","282722","p1ap86fhd84","mus","duck","21","male","yes","yes","3","7","575","<div style=""font-size:30px;"">Press space to start the trial</div>"," ","","","","","","",""
"","","","","","html-keyboard-response","306","2.0.0","282974","p1ap86fhd84","mus","duck","21","male","yes","yes","3","7","null","<div style=""font-size:60px;"">+</div>","null","","","","","","",""
"","","","","","audio-keyboard-response","307","2.0.0","283573","p1ap86fhd84","mus","duck","21","male","yes","yes","3","7","null","stimuli/sounds/phone_sound_B.wav","null","","","","","","",""
"","","","","","html-keyboard-response","308","2.0.0","284575","p1ap86fhd84","mus","duck","21","male","yes","yes","3","7","null","","null","","","","","","",""
"","","","","","image-keyboard-response","309","2.0.0","285003","p1ap86fhd84","mus","duck","21","male","yes","yes","3","7","427","stimuli/pictures/piano_electric_2.jpg","0","0","","true","no","sound","stimuli/sounds/phone_sound_B.wav",""
"","","","","","audio-keyboard-response","310","2.0.0","286005","p1ap86fhd84","mus","duck","21","male","yes","yes","3","7","null","stimuli/sounds/bleep.wav","null","","","","","","",""
"","","","","","html-keyboard-response","311","2.0.0","286446","p1ap86fhd84","mus","duck","21","male","yes","yes","3","7","339","<div style=""font-size:30px;"">Press space to start the trial</div>"," ","","","","","","",""
"","","","","","html-keyboard-response","312","2.0.0","286697","p1ap86fhd84","mus","duck","21","male","yes","yes","3","7","null","<div style=""font-size:60px;"">+</div>","null","","","","","","",""
"","","","","","audio-keyboard-response","313","2.0.0","287296","p1ap86fhd84","mus","duck","21","male","yes","yes","3","7","null","stimuli/sounds/phone_sound_A.wav","null","","","","","","",""
"","","","","","html-keyboard-response","314","2.0.0","288297","p1ap86fhd84","mus","duck","21","male","yes","yes","3","7","null","","null","","","","","","",""
"","","","","","image-keyboard-response","315","2.0.0","288775","p1ap86fhd84","mus","duck","21","male","yes","yes","3","7","477","stimuli/pictures/bird_song_2.jpg","0","0","","true","no","sound","stimuli/sounds/phone_sound_A.wav",""
"","","","","","audio-keyboard-response","316","2.0.0","289777","p1ap86fhd84","mus","duck","21","male","yes","yes","3","7","null","stimuli/sounds/bleep.wav","null","","","","","","",""
"","","","","","html-keyboard-response","317","2.0.0","290037","p1ap86fhd84","mus","duck","21","male","yes","yes","3","7","158","<div style=""font-size:30px;"">Press space to start the trial</div>"," ","","","","","","",""
"","","","","","html-keyboard-response","318","2.0.0","290289","p1ap86fhd84","mus","duck","21","male","yes","yes","3","7","null","<div style=""font-size:60px;"">+</div>","null","","","","","","",""
"","","","","","audio-keyboard-response","319","2.0.0","290888","p1ap86fhd84","mus","duck","21","male","yes","yes","3","7","null","stimuli/sounds/drum_sound_A.wav","null","","","","","","",""
"","","","","","html-keyboard-response","320","2.0.0","291889","p1ap86fhd84","mus","duck","21","male","yes","yes","3","7","null","","null","","","","","","",""
"","","","","","image-keyboard-response","321","2.0.0","292330","p1ap86fhd84","mus","duck","21","male","yes","yes","3","7","438","stimuli/pictures/drum_kit_2.jpg","1","1","","true","yes","sound","stimuli/sounds/drum_sound_A.wav",""
"","","","","","audio-keyboard-response","322","2.0.0","293332","p1ap86fhd84","mus","duck","21","male","yes","yes","3","7","null","stimuli/sounds/bleep.wav","null","","","","","","",""
"","","","","","html-keyboard-response","323","2.0.0","293679","p1ap86fhd84","mus","duck","21","male","yes","yes","3","7","245","<div style=""font-size:30px;"">Press space to start the trial</div>"," ","","","","","","",""
"","","","","","html-keyboard-response","324","2.0.0","293931","p1ap86fhd84","mus","duck","21","male","yes","yes","3","7","null","<div style=""font-size:60px;"">+</div>","null","","","","","","",""
"","","","","","audio-keyboard-response","325","2.0.0","294531","p1ap86fhd84","mus","duck","21","male","yes","yes","3","7","null","stimuli/sounds/phone_label_A.wav","null","","","","","","",""
"","","","","","html-keyboard-response","326","2.0.0","295532","p1ap86fhd84","mus","duck","21","male","yes","yes","3","7","null","","null","","","","","","",""
"","","","","","image-keyboard-response","327","2.0.0","296052","p1ap86fhd84","mus","duck","21","male","yes","yes","3","7","519","stimuli/pictures/phone_rotary_2.jpg","1","1","","true","yes","sound","stimuli/sounds/phone_label_A.wav",""
"","","","","","audio-keyboard-response","328","2.0.0","297053","p1ap86fhd84","mus","duck","21","male","yes","yes","3","7","null","stimuli/sounds/bleep.wav","null","","","","","","",""
"","","","","","html-keyboard-response","329","2.0.0","297344","p1ap86fhd84","mus","duck","21","male","yes","yes","3","7","189","<div style=""font-size:30px;"">Press space to start the trial</div>"," ","","","","","","",""
"","","","","","html-keyboard-response","330","2.0.0","297596","p1ap86fhd84","mus","duck","21","male","yes","yes","3","7","null","<div style=""font-size:60px;"">+</div>","null","","","","","","",""
"","","","","","audio-keyboard-response","331","2.0.0","298195","p1ap86fhd84","mus","duck","21","male","yes","yes","3","7","null","stimuli/sounds/bird_label_A.wav","null","","","","","","",""
"","","","","","html-keyboard-response","332","2.0.0","299196","p1ap86fhd84","mus","duck","21","male","yes","yes","3","7","null","","null","","","","","","",""
"","","","","","image-keyboard-response","333","2.0.0","299650","p1ap86fhd84","mus","duck","21","male","yes","yes","3","7","453","stimuli/pictures/bird_hawk_1.jpg","1","1","","true","yes","sound","stimuli/sounds/bird_label_A.wav",""
"","","","","","audio-keyboard-response","334","2.0.0","300652","p1ap86fhd84","mus","duck","21","male","yes","yes","3","7","null","stimuli/sounds/bleep.wav","null","","","","","","",""
"","","","","","html-keyboard-response","335","2.0.0","301048","p1ap86fhd84","mus","duck","21","male","yes","yes","3","7","294","<div style=""font-size:30px;"">Press space to start the trial</div>"," ","","","","","","",""
"","","","","","html-keyboard-response","336","2.0.0","301300","p1ap86fhd84","mus","duck","21","male","yes","yes","3","7","null","<div style=""font-size:60px;"">+</div>","null","","","","","","",""
"","","","","","audio-keyboard-response","337","2.0.0","301907","p1ap86fhd84","mus","duck","21","male","yes","yes","3","7","null","stimuli/sounds/flute_sound_B.wav","null","","","","","","",""
"","","","","","html-keyboard-response","338","2.0.0","302908","p1ap86fhd84","mus","duck","21","male","yes","yes","3","7","null","","null","","","","","","",""
"","","","","","image-keyboard-response","339","2.0.0","303310","p1ap86fhd84","mus","duck","21","male","yes","yes","3","7","401","stimuli/pictures/bird_song_2.jpg","0","0","","true","no","sound","stimuli/sounds/flute_sound_B.wav",""
"","","","","","audio-keyboard-response","340","2.0.0","304312","p1ap86fhd84","mus","duck","21","male","yes","yes","3","7","null","stimuli/sounds/bleep.wav","null","","","","","","",""
"","","","","","html-keyboard-response","341","2.0.0","304671","p1ap86fhd84","mus","duck","21","male","yes","yes","3","7","258","<div style=""font-size:30px;"">Press space to start the trial</div>"," ","","","","","","",""
"","","","","","html-keyboard-response","342","2.0.0","304923","p1ap86fhd84","mus","duck","21","male","yes","yes","3","7","null","<div style=""font-size:60px;"">+</div>","null","","","","","","",""
"","","","","","audio-keyboard-response","343","2.0.0","305523","p1ap86fhd84","mus","duck","21","male","yes","yes","3","7","null","stimuli/sounds/drum_sound_B.wav","null","","","","","","",""
"","","","","","html-keyboard-response","344","2.0.0","306524","p1ap86fhd84","mus","duck","21","male","yes","yes","3","7","null","","null","","","","","","",""
"","","","","","image-keyboard-response","345","2.0.0","307029","p1ap86fhd84","mus","duck","21","male","yes","yes","3","7","503","stimuli/pictures/phone_rotary_2.jpg","1","0","","false","no","sound","stimuli/sounds/drum_sound_B.wav",""
"","","","","","audio-keyboard-response","346","2.0.0","308031","p1ap86fhd84","mus","duck","21","male","yes","yes","3","7","null","stimuli/sounds/buzz.wav","null","","","","","","",""
"","","","","","html-keyboard-response","347","2.0.0","308765","p1ap86fhd84","mus","duck","21","male","yes","yes","3","7","633","<div style=""font-size:30px;"">Press space to start the trial</div>"," ","","","","","","",""
"","","","","","html-keyboard-response","348","2.0.0","309017","p1ap86fhd84","mus","duck","21","male","yes","yes","3","7","null","<div style=""font-size:60px;"">+</div>","null","","","","","","",""
"","","","","","audio-keyboard-response","349","2.0.0","309616","p1ap86fhd84","mus","duck","21","male","yes","yes","3","7","null","stimuli/sounds/drum_label_A.wav","null","","","","","","",""
"","","","","","html-keyboard-response","350","2.0.0","310617","p1ap86fhd84","mus","duck","21","male","yes","yes","3","7","null","","null","","","","","","",""
"","","","","","image-keyboard-response","351","2.0.0","311002","p1ap86fhd84","mus","duck","21","male","yes","yes","3","7","384","stimuli/pictures/drum_kit_1.jpg","1","1","","true","yes","sound","stimuli/sounds/drum_label_A.wav",""
"","","","","","audio-keyboard-response","352","2.0.0","312005","p1ap86fhd84","mus","duck","21","male","yes","yes","3","7","null","stimuli/sounds/bleep.wav","null","","","","","","",""
"","","","","","html-keyboard-response","353","2.0.0","312436","p1ap86fhd84","mus","duck","21","male","yes","yes","3","7","329","<div style=""font-size:30px;"">Press space to start the trial</div>"," ","","","","","","",""
"","","","","","html-keyboard-response","354","2.0.0","312687","p1ap86fhd84","mus","duck","21","male","yes","yes","3","7","null","<div style=""font-size:60px;"">+</div>","null","","","","","","",""
"","","","","","audio-keyboard-response","355","2.0.0","313291","p1ap86fhd84","mus","duck","21","male","yes","yes","3","7","null","stimuli/sounds/flute_label_A.wav","null","","","","","","",""
"","","","","","html-keyboard-response","356","2.0.0","314292","p1ap86fhd84","mus","duck","21","male","yes","yes","3","7","null","","null","","","","","","",""
"","","","","","image-keyboard-response","357","2.0.0","314833","p1ap86fhd84","mus","duck","21","male","yes","yes","3","7","537","stimuli/pictures/flute_wooden_2.jpg","1","1","","true","yes","sound","stimuli/sounds/flute_label_A.wav",""
"","","","","","audio-keyboard-response","358","2.0.0","315835","p1ap86fhd84","mus","duck","21","male","yes","yes","3","7","null","stimuli/sounds/bleep.wav","null","","","","","","",""
"","","","","","html-keyboard-response","359","2.0.0","316124","p1ap86fhd84","mus","duck","21","male","yes","yes","3","7","188","<div style=""font-size:30px;"">Press space to start the trial</div>"," ","","","","","","",""
"","","","","","html-keyboard-response","360","2.0.0","316376","p1ap86fhd84","mus","duck","21","male","yes","yes","3","7","null","<div style=""font-size:60px;"">+</div>","null","","","","","","",""
"","","","","","audio-keyboard-response","361","2.0.0","316976","p1ap86fhd84","mus","duck","21","male","yes","yes","3","7","null","stimuli/sounds/phone_sound_A.wav","null","","","","","","",""
"","","","","","html-keyboard-response","362","2.0.0","317976","p1ap86fhd84","mus","duck","21","male","yes","yes","3","7","null","","null","","","","","","",""
"","","","","","image-keyboard-response","363","2.0.0","318590","p1ap86fhd84","mus","duck","21","male","yes","yes","3","7","613","stimuli/pictures/phone_rotary_2.jpg","1","1","","true","no","sound","stimuli/sounds/phone_sound_A.wav",""
"","","","","","audio-keyboard-response","364","2.0.0","319592","p1ap86fhd84","mus","duck","21","male","yes","yes","3","7","null","stimuli/sounds/bleep.wav","null","","","","","","",""
"","","","","","html-keyboard-response","365","2.0.0","320004","p1ap86fhd84","mus","duck","21","male","yes","yes","3","7","310","<div style=""font-size:30px;"">Press space to start the trial</div>"," ","","","","","","",""
"","","","","","html-keyboard-response","366","2.0.0","320256","p1ap86fhd84","mus","duck","21","male","yes","yes","3","7","null","<div style=""font-size:60px;"">+</div>","null","","","","","","",""
"","","","","","audio-keyboard-response","367","2.0.0","320864","p1ap86fhd84","mus","duck","21","male","yes","yes","3","7","null","stimuli/sounds/piano_sound_A.wav","null","","","","","","",""
"","","","","","html-keyboard-response","368","2.0.0","321866","p1ap86fhd84","mus","duck","21","male","yes","yes","3","7","null","","null","","","","","","",""
"","","","","","image-keyboard-response","369","2.0.0","322538","p1ap86fhd84","mus","duck","21","male","yes","yes","3","7","670","stimuli/pictures/drum_kit_1.jpg","0","0","","true","no","sound","stimuli/sounds/piano_sound_A.wav",""
"","","","","","audio-keyboard-response","370","2.0.0","323539","p1ap86fhd84","mus","duck","21","male","yes","yes","3","7","null","stimuli/sounds/bleep.wav","null","","","","","","",""
"","","","","","html-keyboard-response","371","2.0.0","323942","p1ap86fhd84","mus","duck","21","male","yes","yes","3","7","301","<div style=""font-size:30px;"">Press space to start the trial</div>"," ","","","","","","",""
"","","","","","html-keyboard-response","372","2.0.0","324194","p1ap86fhd84","mus","duck","21","male","yes","yes","3","7","null","<div style=""font-size:60px;"">+</div>","null","","","","","","",""
"","","","","","audio-keyboard-response","373","2.0.0","324795","p1ap86fhd84","mus","duck","21","male","yes","yes","3","7","null","stimuli/sounds/bird_sound_B.wav","null","","","","","","",""
"","","","","","html-keyboard-response","374","2.0.0","325796","p1ap86fhd84","mus","duck","21","male","yes","yes","3","7","null","","null","","","","","","",""
"","","","","","image-keyboard-response","375","2.0.0","326187","p1ap86fhd84","mus","duck","21","male","yes","yes","3","7","390","stimuli/pictures/bird_hawk_1.jpg","1","1","","true","no","sound","stimuli/sounds/bird_sound_B.wav",""
"","","","","","audio-keyboard-response","376","2.0.0","327189","p1ap86fhd84","mus","duck","21","male","yes","yes","3","7","null","stimuli/sounds/bleep.wav","null","","","","","","",""
"","","","","","html-keyboard-response","377","2.0.0","327554","p1ap86fhd84","mus","duck","21","male","yes","yes","3","7","263","<div style=""font-size:30px;"">Press space to start the trial</div>"," ","","","","","","",""
"","","","","","html-keyboard-response","378","2.0.0","327806","p1ap86fhd84","mus","duck","21","male","yes","yes","3","7","null","<div style=""font-size:60px;"">+</div>","null","","","","","","",""
"","","","","","audio-keyboard-response","379","2.0.0","328413","p1ap86fhd84","mus","duck","21","male","yes","yes","3","7","null","stimuli/sounds/piano_sound_A.wav","null","","","","","","",""
"","","","","","html-keyboard-response","380","2.0.0","329415","p1ap86fhd84","mus","duck","21","male","yes","yes","3","7","null","","null","","","","","","",""
"","","","","","image-keyboard-response","381","2.0.0","330031","p1ap86fhd84","mus","duck","21","male","yes","yes","3","7","614","stimuli/pictures/drum_kit_2.jpg","0","0","","true","no","sound","stimuli/sounds/piano_sound_A.wav",""
"","","","","","audio-keyboard-response","382","2.0.0","331033","p1ap86fhd84","mus","duck","21","male","yes","yes","3","7","null","stimuli/sounds/bleep.wav","null","","","","","","",""
"","","","","","html-keyboard-response","383","2.0.0","331369","p1ap86fhd84","mus","duck","21","male","yes","yes","3","7","235","<div style=""font-size:30px;"">Press space to start the trial</div>"," ","","","","","","",""
"","","","","","html-keyboard-response","384","2.0.0","331621","p1ap86fhd84","mus","duck","21","male","yes","yes","3","7","null","<div style=""font-size:60px;"">+</div>","null","","","","","","",""
"","","","","","audio-keyboard-response","385","2.0.0","332221","p1ap86fhd84","mus","duck","21","male","yes","yes","3","7","null","stimuli/sounds/bird_label_A.wav","null","","","","","","",""
"","","","","","html-keyboard-response","386","2.0.0","333223","p1ap86fhd84","mus","duck","21","male","yes","yes","3","7","null","","null","","","","","","",""
"","","","","","image-keyboard-response","387","2.0.0","333702","p1ap86fhd84","mus","duck","21","male","yes","yes","3","7","477","stimuli/pictures/flute_metal_2.jpg","0","0","","true","no","sound","stimuli/sounds/bird_label_A.wav",""
"","","","","","audio-keyboard-response","388","2.0.0","334704","p1ap86fhd84","mus","duck","21","male","yes","yes","3","7","null","stimuli/sounds/bleep.wav","null","","","","","","",""
"","","","","","html-keyboard-response","389","2.0.0","336672","p1ap86fhd84","mus","duck","21","male","yes","yes","3","7","1867","<p>You have completed a block. Press R when you are ready to continue</p>","r","","","","","","",""
"","","","","","html-keyboard-response","390","2.0.0","337279","p1ap86fhd84","mus","duck","21","male","yes","yes","3","7","605","<div style=""font-size:30px;"">Press space to start the trial</div>"," ","","","","","","",""
"","","","","","html-keyboard-response","391","2.0.0","337531","p1ap86fhd84","mus","duck","21","male","yes","yes","3","7","null","<div style=""font-size:60px;"">+</div>","null","","","","","","",""
"","","","","","audio-keyboard-response","392","2.0.0","338139","p1ap86fhd84","mus","duck","21","male","yes","yes","3","7","null","stimuli/sounds/flute_sound_B.wav","null","","","","","","",""
"","","","","","html-keyboard-response","393","2.0.0","339140","p1ap86fhd84","mus","duck","21","male","yes","yes","3","7","null","","null","","","","","","",""
"","","","","","image-keyboard-response","394","2.0.0","340008","p1ap86fhd84","mus","duck","21","male","yes","yes","3","7","867","stimuli/pictures/bird_hawk_1.jpg","0","0","","true","no","sound","stimuli/sounds/flute_sound_B.wav",""
"","","","","","audio-keyboard-response","395","2.0.0","341010","p1ap86fhd84","mus","duck","21","male","yes","yes","3","7","null","stimuli/sounds/bleep.wav","null","","","","","","",""
"","","","","","html-keyboard-response","396","2.0.0","341532","p1ap86fhd84","mus","duck","21","male","yes","yes","3","7","419","<div style=""font-size:30px;"">Press space to start the trial</div>"," ","","","","","","",""
"","","","","","html-keyboard-response","397","2.0.0","341784","p1ap86fhd84","mus","duck","21","male","yes","yes","3","7","null","<div style=""font-size:60px;"">+</div>","null","","","","","","",""
"","","","","","audio-keyboard-response","398","2.0.0","342392","p1ap86fhd84","mus","duck","21","male","yes","yes","3","7","null","stimuli/sounds/piano_sound_A.wav","null","","","","","","",""
"","","","","","html-keyboard-response","399","2.0.0","343394","p1ap86fhd84","mus","duck","21","male","yes","yes","3","7","null","","null","","","","","","",""
"","","","","","image-keyboard-response","400","2.0.0","343980","p1ap86fhd84","mus","duck","21","male","yes","yes","3","7","584","stimuli/pictures/drum_bongo_1.jpg","0","0","","true","no","sound","stimuli/sounds/piano_sound_A.wav",""
"","","","","","audio-keyboard-response","401","2.0.0","344982","p1ap86fhd84","mus","duck","21","male","yes","yes","3","7","null","stimuli/sounds/bleep.wav","null","","","","","","",""
"","","","","","html-keyboard-response","402","2.0.0","345157","p1ap86fhd84","mus","duck","21","male","yes","yes","3","7","73","<div style=""font-size:30px;"">Press space to start the trial</div>"," ","","","","","","",""
"","","","","","html-keyboard-response","403","2.0.0","345409","p1ap86fhd84","mus","duck","21","male","yes","yes","3","7","null","<div style=""font-size:60px;"">+</div>","null","","","","","","",""
"","","","","","audio-keyboard-response","404","2.0.0","346014","p1ap86fhd84","mus","duck","21","male","yes","yes","3","7","null","stimuli/sounds/flute_label_B.wav","null","","","","","","",""
"","","","","","html-keyboard-response","405","2.0.0","347014","p1ap86fhd84","mus","duck","21","male","yes","yes","3","7","null","","null","","","","","","",""
"","","","","","image-keyboard-response","406","2.0.0","347644","p1ap86fhd84","mus","duck","21","male","yes","yes","3","7","628","stimuli/pictures/drum_bongo_2.jpg","0","0","","true","no","sound","stimuli/sounds/flute_label_B.wav",""
"","","","","","audio-keyboard-response","407","2.0.0","348646","p1ap86fhd84","mus","duck","21","male","yes","yes","3","7","null","stimuli/sounds/bleep.wav","null","","","","","","",""
"","","","","","html-keyboard-response","408","2.0.0","349010","p1ap86fhd84","mus","duck","21","male","yes","yes","3","7","262","<div style=""font-size:30px;"">Press space to start the trial</div>"," ","","","","","","",""
"","","","","","html-keyboard-response","409","2.0.0","349261","p1ap86fhd84","mus","duck","21","male","yes","yes","3","7","null","<div style=""font-size:60px;"">+</div>","null","","","","","","",""
"","","","","","audio-keyboard-response","410","2.0.0","349862","p1ap86fhd84","mus","duck","21","male","yes","yes","3","7","null","stimuli/sounds/phone_label_B.wav","null","","","","","","",""
"","","","","","html-keyboard-response","411","2.0.0","350863","p1ap86fhd84","mus","duck","21","male","yes","yes","3","7","null","","null","","","","","","",""
"","","","","","image-keyboard-response","412","2.0.0","351432","p1ap86fhd84","mus","duck","21","male","yes","yes","3","7","567","stimuli/pictures/flute_metal_1.jpg","0","0","","true","no","sound","stimuli/sounds/phone_label_B.wav",""
"","","","","","audio-keyboard-response","413","2.0.0","352434","p1ap86fhd84","mus","duck","21","male","yes","yes","3","7","null","stimuli/sounds/bleep.wav","null","","","","","","",""
"","","","","","html-keyboard-response","414","2.0.0","352753","p1ap86fhd84","mus","duck","21","male","yes","yes","3","7","218","<div style=""font-size:30px;"">Press space to start the trial</div>"," ","","","","","","",""
"","","","","","html-keyboard-response","415","2.0.0","353004","p1ap86fhd84","mus","duck","21","male","yes","yes","3","7","null","<div style=""font-size:60px;"">+</div>","null","","","","","","",""
"","","","","","audio-keyboard-response","416","2.0.0","353608","p1ap86fhd84","mus","duck","21","male","yes","yes","3","7","null","stimuli/sounds/piano_sound_B.wav","null","","","","","","",""
"","","","","","html-keyboard-response","417","2.0.0","354610","p1ap86fhd84","mus","duck","21","male","yes","yes","3","7","null","","null","","","","","","",""
"","","","","","image-keyboard-response","418","2.0.0","355092","p1ap86fhd84","mus","duck","21","male","yes","yes","3","7","481","stimuli/pictures/piano_grand_2.jpg","0","1","","false","no","sound","stimuli/sounds/piano_sound_B.wav",""
"","","","","","audio-keyboard-response","419","2.0.0","356093","p1ap86fhd84","mus","duck","21","male","yes","yes","3","7","null","stimuli/sounds/buzz.wav","null","","","","","","",""
"","","","","","html-keyboard-response","420","2.0.0","356902","p1ap86fhd84","mus","duck","21","male","yes","yes","3","7","707","<div style=""font-size:30px;"">Press space to start the trial</div>"," ","","","","","","",""
"","","","","","html-keyboard-response","421","2.0.0","357154","p1ap86fhd84","mus","duck","21","male","yes","yes","3","7","null","<div style=""font-size:60px;"">+</div>","null","","","","","","",""
"","","","","","audio-keyboard-response","422","2.0.0","357758","p1ap86fhd84","mus","duck","21","male","yes","yes","3","7","null","stimuli/sounds/piano_sound_B.wav","null","","","","","","",""
"","","","","","html-keyboard-response","423","2.0.0","358759","p1ap86fhd84","mus","duck","21","male","yes","yes","3","7","null","","null","","","","","","",""
"","","","","","image-keyboard-response","424","2.0.0","359548","p1ap86fhd84","mus","duck","21","male","yes","yes","3","7","788","stimuli/pictures/flute_metal_2.jpg","0","0","","true","no","sound","stimuli/sounds/piano_sound_B.wav",""
"","","","","","audio-keyboard-response","425","2.0.0","360551","p1ap86fhd84","mus","duck","21","male","yes","yes","3","7","null","stimuli/sounds/bleep.wav","null","","","","","","",""
"","","","","","html-keyboard-response","426","2.0.0","361199","p1ap86fhd84","mus","duck","21","male","yes","yes","3","7","546","<div style=""font-size:30px;"">Press space to start the trial</div>"," ","","","","","","",""
"","","","","","html-keyboard-response","427","2.0.0","361451","p1ap86fhd84","mus","duck","21","male","yes","yes","3","7","null","<div style=""font-size:60px;"">+</div>","null","","","","","","",""
"","","","","","audio-keyboard-response","428","2.0.0","362051","p1ap86fhd84","mus","duck","21","male","yes","yes","3","7","null","stimuli/sounds/phone_label_B.wav","null","","","","","","",""
"","","","","","html-keyboard-response","429","2.0.0","363052","p1ap86fhd84","mus","duck","21","male","yes","yes","3","7","null","","null","","","","","","",""
"","","","","","image-keyboard-response","430","2.0.0","363469","p1ap86fhd84","mus","duck","21","male","yes","yes","3","7","415","stimuli/pictures/phone_cell_1.jpg","1","1","","true","yes","sound","stimuli/sounds/phone_label_B.wav",""
"","","","","","audio-keyboard-response","431","2.0.0","364471","p1ap86fhd84","mus","duck","21","male","yes","yes","3","7","null","stimuli/sounds/bleep.wav","null","","","","","","",""
"","","","","","html-keyboard-response","432","2.0.0","364876","p1ap86fhd84","mus","duck","21","male","yes","yes","3","7","303","<div style=""font-size:30px;"">Press space to start the trial</div>"," ","","","","","","",""
"","","","","","html-keyboard-response","433","2.0.0","365128","p1ap86fhd84","mus","duck","21","male","yes","yes","3","7","null","<div style=""font-size:60px;"">+</div>","null","","","","","","",""
"","","","","","audio-keyboard-response","434","2.0.0","365737","p1ap86fhd84","mus","duck","21","male","yes","yes","3","7","null","stimuli/sounds/piano_sound_A.wav","null","","","","","","",""
"","","","","","html-keyboard-response","435","2.0.0","366738","p1ap86fhd84","mus","duck","21","male","yes","yes","3","7","null","","null","","","","","","",""
"","","","","","image-keyboard-response","436","2.0.0","367339","p1ap86fhd84","mus","duck","21","male","yes","yes","3","7","600","stimuli/pictures/drum_bongo_2.jpg","0","0","","true","no","sound","stimuli/sounds/piano_sound_A.wav",""
"","","","","","audio-keyboard-response","437","2.0.0","368341","p1ap86fhd84","mus","duck","21","male","yes","yes","3","7","null","stimuli/sounds/bleep.wav","null","","","","","","",""
"","","","","","html-keyboard-response","438","2.0.0","368747","p1ap86fhd84","mus","duck","21","male","yes","yes","3","7","304","<div style=""font-size:30px;"">Press space to start the trial</div>"," ","","","","","","",""
"","","","","","html-keyboard-response","439","2.0.0","368998","p1ap86fhd84","mus","duck","21","male","yes","yes","3","7","null","<div style=""font-size:60px;"">+</div>","null","","","","","","",""
"","","","","","audio-keyboard-response","440","2.0.0","369598","p1ap86fhd84","mus","duck","21","male","yes","yes","3","7","null","stimuli/sounds/bird_label_A.wav","null","","","","","","",""
"","","","","","html-keyboard-response","441","2.0.0","370599","p1ap86fhd84","mus","duck","21","male","yes","yes","3","7","null","","null","","","","","","",""
"","","","","","image-keyboard-response","442","2.0.0","371059","p1ap86fhd84","mus","duck","21","male","yes","yes","3","7","458","stimuli/pictures/bird_song_2.jpg","1","1","","true","yes","sound","stimuli/sounds/bird_label_A.wav",""
"","","","","","audio-keyboard-response","443","2.0.0","372060","p1ap86fhd84","mus","duck","21","male","yes","yes","3","7","null","stimuli/sounds/bleep.wav","null","","","","","","",""
"","","","","","html-keyboard-response","444","2.0.0","372419","p1ap86fhd84","mus","duck","21","male","yes","yes","3","7","258","<div style=""font-size:30px;"">Press space to start the trial</div>"," ","","","","","","",""
"","","","","","html-keyboard-response","445","2.0.0","372671","p1ap86fhd84","mus","duck","21","male","yes","yes","3","7","null","<div style=""font-size:60px;"">+</div>","null","","","","","","",""
"","","","","","audio-keyboard-response","446","2.0.0","373270","p1ap86fhd84","mus","duck","21","male","yes","yes","3","7","null","stimuli/sounds/drum_label_B.wav","null","","","","","","",""
"","","","","","html-keyboard-response","447","2.0.0","374270","p1ap86fhd84","mus","duck","21","male","yes","yes","3","7","null","","null","","","","","","",""
"","","","","","image-keyboard-response","448","2.0.0","374860","p1ap86fhd84","mus","duck","21","male","yes","yes","3","7","589","stimuli/pictures/piano_grand_1.jpg","0","0","","true","no","sound","stimuli/sounds/drum_label_B.wav",""
"","","","","","audio-keyboard-response","449","2.0.0","375862","p1ap86fhd84","mus","duck","21","male","yes","yes","3","7","null","stimuli/sounds/bleep.wav","null","","","","","","",""
"","","","","","html-keyboard-response","450","2.0.0","376329","p1ap86fhd84","mus","duck","21","male","yes","yes","3","7","365","<div style=""font-size:30px;"">Press space to start the trial</div>"," ","","","","","","",""
"","","","","","html-keyboard-response","451","2.0.0","376581","p1ap86fhd84","mus","duck","21","male","yes","yes","3","7","null","<div style=""font-size:60px;"">+</div>","null","","","","","","",""
"","","","","","audio-keyboard-response","452","2.0.0","377182","p1ap86fhd84","mus","duck","21","male","yes","yes","3","7","null","stimuli/sounds/bird_sound_A.wav","null","","","","","","",""
"","","","","","html-keyboard-response","453","2.0.0","378183","p1ap86fhd84","mus","duck","21","male","yes","yes","3","7","null","","null","","","","","","",""
"","","","","","image-keyboard-response","454","2.0.0","378866","p1ap86fhd84","mus","duck","21","male","yes","yes","3","7","682","stimuli/pictures/bird_song_1.jpg","1","1","","true","no","sound","stimuli/sounds/bird_sound_A.wav",""
"","","","","","audio-keyboard-response","455","2.0.0","379868","p1ap86fhd84","mus","duck","21","male","yes","yes","3","7","null","stimuli/sounds/bleep.wav","null","","","","","","",""
"","","","","","html-keyboard-response","456","2.0.0","380351","p1ap86fhd84","mus","duck","21","male","yes","yes","3","7","381","<div style=""font-size:30px;"">Press space to start the trial</div>"," ","","","","","","",""
"","","","","","html-keyboard-response","457","2.0.0","380603","p1ap86fhd84","mus","duck","21","male","yes","yes","3","7","null","<div style=""font-size:60px;"">+</div>","null","","","","","","",""
"","","","","","audio-keyboard-response","458","2.0.0","381206","p1ap86fhd84","mus","duck","21","male","yes","yes","3","7","null","stimuli/sounds/flute_label_A.wav","null","","","","","","",""
"","","","","","html-keyboard-response","459","2.0.0","382207","p1ap86fhd84","mus","duck","21","male","yes","yes","3","7","null","","null","","","","","","",""
"","","","","","image-keyboard-response","460","2.0.0","382750","p1ap86fhd84","mus","duck","21","male","yes","yes","3","7","542","stimuli/pictures/piano_grand_1.jpg","0","0","","true","no","sound","stimuli/sounds/flute_label_A.wav",""
"","","","","","audio-keyboard-response","461","2.0.0","383751","p1ap86fhd84","mus","duck","21","male","yes","yes","3","7","null","stimuli/sounds/bleep.wav","null","","","","","","",""
"","","","","","html-keyboard-response","462","2.0.0","384393","p1ap86fhd84","mus","duck","21","male","yes","yes","3","7","540","<div style=""font-size:30px;"">Press space to start the trial</div>"," ","","","","","","",""
"","","","","","html-keyboard-response","463","2.0.0","384644","p1ap86fhd84","mus","duck","21","male","yes","yes","3","7","null","<div style=""font-size:60px;"">+</div>","null","","","","","","",""
"","","","","","audio-keyboard-response","464","2.0.0","385243","p1ap86fhd84","mus","duck","21","male","yes","yes","3","7","null","stimuli/sounds/drum_label_A.wav","null","","","","","","",""
"","","","","","html-keyboard-response","465","2.0.0","386244","p1ap86fhd84","mus","duck","21","male","yes","yes","3","7","null","","null","","","","","","",""
"","","","","","image-keyboard-response","466","2.0.0","386923","p1ap86fhd84","mus","duck","21","male","yes","yes","3","7","677","stimuli/pictures/drum_bongo_1.jpg","0","1","","false","yes","sound","stimuli/sounds/drum_label_A.wav",""
"","","","","","audio-keyboard-response","467","2.0.0","387925","p1ap86fhd84","mus","duck","21","male","yes","yes","3","7","null","stimuli/sounds/buzz.wav","null","","","","","","",""
"","","","","","html-keyboard-response","468","2.0.0","388407","p1ap86fhd84","mus","duck","21","male","yes","yes","3","7","381","<div style=""font-size:30px;"">Press space to start the trial</div>"," ","","","","","","",""
"","","","","","html-keyboard-response","469","2.0.0","388659","p1ap86fhd84","mus","duck","21","male","yes","yes","3","7","null","<div style=""font-size:60px;"">+</div>","null","","","","","","",""
"","","","","","audio-keyboard-response","470","2.0.0","389259","p1ap86fhd84","mus","duck","21","male","yes","yes","3","7","null","stimuli/sounds/drum_sound_B.wav","null","","","","","","",""
"","","","","","html-keyboard-response","471","2.0.0","390261","p1ap86fhd84","mus","duck","21","male","yes","yes","3","7","null","","null","","","","","","",""
"","","","","","image-keyboard-response","472","2.0.0","390669","p1ap86fhd84","mus","duck","21","male","yes","yes","3","7","406","stimuli/pictures/drum_bongo_2.jpg","1","1","","true","yes","sound","stimuli/sounds/drum_sound_B.wav",""
"","","","","","audio-keyboard-response","473","2.0.0","391671","p1ap86fhd84","mus","duck","21","male","yes","yes","3","7","null","stimuli/sounds/bleep.wav","null","","","","","","",""
"","","","","","html-keyboard-response","474","2.0.0","392132","p1ap86fhd84","mus","duck","21","male","yes","yes","3","7","359","<div style=""font-size:30px;"">Press space to start the trial</div>"," ","","","","","","",""
"","","","","","html-keyboard-response","475","2.0.0","392384","p1ap86fhd84","mus","duck","21","male","yes","yes","3","7","null","<div style=""font-size:60px;"">+</div>","null","","","","","","",""
"","","","","","audio-keyboard-response","476","2.0.0","392982","p1ap86fhd84","mus","duck","21","male","yes","yes","3","7","null","stimuli/sounds/phone_sound_B.wav","null","","","","","","",""
"","","","","","html-keyboard-response","477","2.0.0","393982","p1ap86fhd84","mus","duck","21","male","yes","yes","3","7","null","","null","","","","","","",""
"","","","","","image-keyboard-response","478","2.0.0","394407","p1ap86fhd84","mus","duck","21","male","yes","yes","3","7","423","stimuli/pictures/piano_electric_1.jpg","1","0","","false","no","sound","stimuli/sounds/phone_sound_B.wav",""
"","","","","","audio-keyboard-response","479","2.0.0","395408","p1ap86fhd84","mus","duck","21","male","yes","yes","3","7","null","stimuli/sounds/buzz.wav","null","","","","","","",""
"","","","","","html-keyboard-response","480","2.0.0","395735","p1ap86fhd84","mus","duck","21","male","yes","yes","3","7","226","<div style=""font-size:30px;"">Press space to start the trial</div>"," ","","","","","","",""
"","","","","","html-keyboard-response","481","2.0.0","395987","p1ap86fhd84","mus","duck","21","male","yes","yes","3","7","null","<div style=""font-size:60px;"">+</div>","null","","","","","","",""
"","","","","","audio-keyboard-response","482","2.0.0","396590","p1ap86fhd84","mus","duck","21","male","yes","yes","3","7","null","stimuli/sounds/flute_sound_A.wav","null","","","","","","",""
"","","","","","html-keyboard-response","483","2.0.0","397592","p1ap86fhd84","mus","duck","21","male","yes","yes","3","7","null","","null","","","","","","",""
"","","","","","image-keyboard-response","484","2.0.0","398350","p1ap86fhd84","mus","duck","21","male","yes","yes","3","7","757","stimuli/pictures/flute_metal_1.jpg","1","1","","true","yes","sound","stimuli/sounds/flute_sound_A.wav",""
"","","","","","audio-keyboard-response","485","2.0.0","399353","p1ap86fhd84","mus","duck","21","male","yes","yes","3","7","null","stimuli/sounds/bleep.wav","null","","","","","","",""
"","","","","","html-keyboard-response","486","2.0.0","399790","p1ap86fhd84","mus","duck","21","male","yes","yes","3","7","335","<div style=""font-size:30px;"">Press space to start the trial</div>"," ","","","","","","",""
"","","","","","html-keyboard-response","487","2.0.0","400042","p1ap86fhd84","mus","duck","21","male","yes","yes","3","7","null","<div style=""font-size:60px;"">+</div>","null","","","","","","",""
"","","","","","audio-keyboard-response","488","2.0.0","400641","p1ap86fhd84","mus","duck","21","male","yes","yes","3","7","null","stimuli/sounds/drum_sound_A.wav","null","","","","","","",""
"","","","","","html-keyboard-response","489","2.0.0","401642","p1ap86fhd84","mus","duck","21","male","yes","yes","3","7","null","","null","","","","","","",""
"","","","","","image-keyboard-response","490","2.0.0","402187","p1ap86fhd84","mus","duck","21","male","yes","yes","3","7","542","stimuli/pictures/drum_bongo_1.jpg","1","1","","true","no","sound","stimuli/sounds/drum_sound_A.wav",""
"","","","","","audio-keyboard-response","491","2.0.0","403144","p1ap86fhd84","mus","duck","21","male","yes","yes","3","7","955","stimuli/sounds/bleep.wav"," ","","","","","","",""
"","","","","","html-keyboard-response","492","2.0.0","403583","p1ap86fhd84","mus","duck","21","male","yes","yes","3","7","338","<div style=""font-size:30px;"">Press space to start the trial</div>"," ","","","","","","",""
"","","","","","html-keyboard-response","493","2.0.0","403835","p1ap86fhd84","mus","duck","21","male","yes","yes","3","7","null","<div style=""font-size:60px;"">+</div>","null","","","","","","",""
"","","","","","audio-keyboard-response","494","2.0.0","404438","p1ap86fhd84","mus","duck","21","male","yes","yes","3","7","null","stimuli/sounds/flute_label_A.wav","null","","","","","","",""
"","","","","","html-keyboard-response","495","2.0.0","405440","p1ap86fhd84","mus","duck","21","male","yes","yes","3","7","null","","null","","","","","","",""
