"success","timeout","failed_images","failed_audio","failed_video","trial_type","trial_index","plugin_version","time_elapsed","random_id","condition","participant","age","gender_id","mus_exp","inst_exp","years_exp","mus_listening","rt","stimulus","response","correct_response","practice","correct","congruent","sound_type","audio","question_order"
"true","false","[]","[]","[]","preload","0","2.0.0","697","p2h35xrhv75","ono","pony","21","female","no","no","0","0","","","","","","","","","",""
"","","","","","html-keyboard-response","1","2.0.0","99792","p2h35xrhv75","ono","pony","21","female","no","no","0","0","99091","Welcome to the experiment! Press any key to begin."," ","","","","","","",""
"true","","","","","fullscreen","2","null","104345","p2h35xrhv75","ono","pony","21","female","no","no","0","0","3550","","","","","","","","",""
"","","","","","survey-text","3","2.0.0","106525","p2h35xrhv75","ono","pony","21","female","no","no","0","0","2162","","{""participant_id"":""pony""}","","","","","","",""
"","","","","","html-keyboard-response","4","2.0.0","127791","p2h35xrhv75","ono","pony","21","female","no","no","0","0","21264","
    <p> Please use headphones for the duration of the study.</p>
    <p> Within each trial, you will hear a sound and then be presented with an image in the center of your screen.</p>
    <p>Press the <b>'1'</b> key if what you hear <u>matches</u> what you see.</p>
    <p>Press the <b>'0'</b> key if what you hear <u>does not match</u> what you see.</p>
    <p>Try to respond as quickly and accurately as you can.</p>
    <p> Press any key to begin.</p>
    "," ","","","","","","",""
"","","","","","html-keyboard-response","5","2.0.0","133278","p2h35xrhv75","ono","pony","21","female","no","no","0","0","5485","
    <div style=""font-size:28px;"">
      <p>You will now complete 4 short practice trials.</p>
      <p>This is just to help you get familiar with the task.</p>
      <p>Press any key to begin.</p>
    </div>
  "," ","","","","","","",""
"","","","","","html-keyboard-response","6","2.0.0","133780","p2h35xrhv75","ono","pony","21","female","no","no","0","0","null","<div style=""font-size:60px;"">+</div>","null","","","","","","",""
"","","","","","audio-keyboard-response","7","2.0.0","135014","p2h35xrhv75","ono","pony","21","female","no","no","0","0","null","stimuli/sounds/guitar_label_A.wav","null","","","","","","",""
"","","","","","image-keyboard-response","8","2.0.0","136119","p2h35xrhv75","ono","pony","21","female","no","no","0","0","1099","stimuli/pictures/guitar_acoustic_1.jpg","1","1","true","true","","","",""
"","","","","","audio-keyboard-response","9","2.0.0","136921","p2h35xrhv75","ono","pony","21","female","no","no","0","0","null","stimuli/sounds/bleep.wav","null","","","","","","",""
"","","","","","html-keyboard-response","10","2.0.0","137622","p2h35xrhv75","ono","pony","21","female","no","no","0","0","null","<p style='color:green; font-size:30px;'>Correct!</p>","null","","","","","","",""
"","","","","","html-keyboard-response","11","2.0.0","138124","p2h35xrhv75","ono","pony","21","female","no","no","0","0","null","<div style=""font-size:60px;"">+</div>","null","","","","","","",""
"","","","","","audio-keyboard-response","12","2.0.0","138724","p2h35xrhv75","ono","pony","21","female","no","no","0","0","null","stimuli/sounds/guitar_sound_B.wav","null","","","","","","",""
"","","","","","image-keyboard-response","13","2.0.0","139415","p2h35xrhv75","ono","pony","21","female","no","no","0","0","687","stimuli/pictures/guitar_acoustic_2.jpg","1","1","true","true","","","",""
"","","","","","audio-keyboard-response","14","2.0.0","140217","p2h35xrhv75","ono","pony","21","female","no","no","0","0","null","stimuli/sounds/bleep.wav","null","","","","","","",""
"","","","","","html-keyboard-response","15","2.0.0","140919","p2h35xrhv75","ono","pony","21","female","no","no","0","0","null","<p style='color:green; font-size:30px;'>Correct!</p>","null","","","","","","",""
"","","","","","html-keyboard-response","16","2.0.0","141420","p2h35xrhv75","ono","pony","21","female","no","no","0","0","null","<div style=""font-size:60px;"">+</div>","null","","","","","","",""
"","","","","","audio-keyboard-response","17","2.0.0","142022","p2h35xrhv75","ono","pony","21","female","no","no","0","0","null","stimuli/sounds/flute_sound_A.wav","null","","","","","","",""
"","","","","","image-keyboard-response","18","2.0.0","143001","p2h35xrhv75","ono","pony","21","female","no","no","0","0","973","stimuli/pictures/guitar_electric_1.jpg","0","0","true","true","","","",""
"","","","","","audio-keyboard-response","19","2.0.0","143802","p2h35xrhv75","ono","pony","21","female","no","no","0","0","null","stimuli/sounds/bleep.wav","null","","","","","","",""
"","","","","","html-keyboard-response","20","2.0.0","144504","p2h35xrhv75","ono","pony","21","female","no","no","0","0","null","<p style='color:green; font-size:30px;'>Correct!</p>","null","","","","","","",""
"","","","","","html-keyboard-response","21","2.0.0","145006","p2h35xrhv75","ono","pony","21","female","no","no","0","0","null","<div style=""font-size:60px;"">+</div>","null","","","","","","",""
"","","","","","audio-keyboard-response","22","2.0.0","145606","p2h35xrhv75","ono","pony","21","female","no","no","0","0","null","stimuli/sounds/guitar_sound_A.wav","null","","","","","","",""
"","","","","","image-keyboard-response","23","2.0.0","146080","p2h35xrhv75","ono","pony","21","female","no","no","0","0","472","stimuli/pictures/guitar_acoustic_1.jpg","1","1","true","true","","","",""
"","","","","","audio-keyboard-response","24","2.0.0","146881","p2h35xrhv75","ono","pony","21","female","no","no","0","0","null","stimuli/sounds/bleep.wav","null","","","","","","",""
"","","","","","html-keyboard-response","25","2.0.0","147582","p2h35xrhv75","ono","pony","21","female","no","no","0","0","null","<p style='color:green; font-size:30px;'>Correct!</p>","null","","","","","","",""
"","","","","","html-keyboard-response","26","2.0.0","148908","p2h35xrhv75","ono","pony","21","female","no","no","0","0","1324","<p>Practice complete. Press any key to begin the real experiment.</p>"," ","","","","","","",""
"","","","","","html-keyboard-response","27","2.0.0","148991","p2h35xrhv75","ono","pony","21","female","no","no","0","0","82","<div style=""font-size:30px;"">Press space to start the trial</div>"," ","","","","","","",""
"","","","","","html-keyboard-response","28","2.0.0","149242","p2h35xrhv75","ono","pony","21","female","no","no","0","0","null","<div style=""font-size:60px;"">+</div>","null","","","","","","",""
"","","","","","audio-keyboard-response","29","2.0.0","149841","p2h35xrhv75","ono","pony","21","female","no","no","0","0","null","stimuli/sounds/motor_sound_B.wav","null","","","","","","",""
"","","","","","html-keyboard-response","30","2.0.0","150842","p2h35xrhv75","ono","pony","21","female","no","no","0","0","null","","null","","","","","","",""
"","","","","","image-keyboard-response","31","2.0.0","151479","p2h35xrhv75","ono","pony","21","female","no","no","0","0","631","stimuli/pictures/motor_dirt_1.jpg","1","1","","true","no","sound","stimuli/sounds/motor_sound_B.wav",""
"","","","","","audio-keyboard-response","32","2.0.0","152481","p2h35xrhv75","ono","pony","21","female","no","no","0","0","null","stimuli/sounds/bleep.wav","null","","","","","","",""
"","","","","","html-keyboard-response","33","2.0.0","155257","p2h35xrhv75","ono","pony","21","female","no","no","0","0","2676","<div style=""font-size:30px;"">Press space to start the trial</div>"," ","","","","","","",""
"","","","","","html-keyboard-response","34","2.0.0","155508","p2h35xrhv75","ono","pony","21","female","no","no","0","0","null","<div style=""font-size:60px;"">+</div>","null","","","","","","",""
"","","","","","audio-keyboard-response","35","2.0.0","156108","p2h35xrhv75","ono","pony","21","female","no","no","0","0","null","stimuli/sounds/dog_label_A.wav","null","","","","","","",""
"","","","","","html-keyboard-response","36","2.0.0","157109","p2h35xrhv75","ono","pony","21","female","no","no","0","0","null","","null","","","","","","",""
"","","","","","image-keyboard-response","37","2.0.0","157669","p2h35xrhv75","ono","pony","21","female","no","no","0","0","555","stimuli/pictures/drop_multi_2.jpg","0","0","","true","no","sound","stimuli/sounds/dog_label_A.wav",""
"","","","","","audio-keyboard-response","38","2.0.0","158671","p2h35xrhv75","ono","pony","21","female","no","no","0","0","null","stimuli/sounds/bleep.wav","null","","","","","","",""
"","","","","","html-keyboard-response","39","2.0.0","159465","p2h35xrhv75","ono","pony","21","female","no","no","0","0","693","<div style=""font-size:30px;"">Press space to start the trial</div>"," ","","","","","","",""
"","","","","","html-keyboard-response","40","2.0.0","159716","p2h35xrhv75","ono","pony","21","female","no","no","0","0","null","<div style=""font-size:60px;"">+</div>","null","","","","","","",""
"","","","","","audio-keyboard-response","41","2.0.0","160316","p2h35xrhv75","ono","pony","21","female","no","no","0","0","null","stimuli/sounds/motor_label_B.wav","null","","","","","","",""
"","","","","","html-keyboard-response","42","2.0.0","161318","p2h35xrhv75","ono","pony","21","female","no","no","0","0","null","","null","","","","","","",""
"","","","","","image-keyboard-response","43","2.0.0","161739","p2h35xrhv75","ono","pony","21","female","no","no","0","0","417","stimuli/pictures/hiccup_man_2.jpg","0","0","","true","no","sound","stimuli/sounds/motor_label_B.wav",""
"","","","","","audio-keyboard-response","44","2.0.0","162740","p2h35xrhv75","ono","pony","21","female","no","no","0","0","null","stimuli/sounds/bleep.wav","null","","","","","","",""
"","","","","","html-keyboard-response","45","2.0.0","163313","p2h35xrhv75","ono","pony","21","female","no","no","0","0","471","<div style=""font-size:30px;"">Press space to start the trial</div>"," ","","","","","","",""
"","","","","","html-keyboard-response","46","2.0.0","163564","p2h35xrhv75","ono","pony","21","female","no","no","0","0","null","<div style=""font-size:60px;"">+</div>","null","","","","","","",""
"","","","","","audio-keyboard-response","47","2.0.0","164172","p2h35xrhv75","ono","pony","21","female","no","no","0","0","null","stimuli/sounds/hiccup_label_B.wav","null","","","","","","",""
"","","","","","html-keyboard-response","48","2.0.0","165173","p2h35xrhv75","ono","pony","21","female","no","no","0","0","null","","null","","","","","","",""
"","","","","","image-keyboard-response","49","2.0.0","165701","p2h35xrhv75","ono","pony","21","female","no","no","0","0","518","stimuli/pictures/dog_york_2.jpg","0","0","","true","no","sound","stimuli/sounds/hiccup_label_B.wav",""
"","","","","","audio-keyboard-response","50","2.0.0","166703","p2h35xrhv75","ono","pony","21","female","no","no","0","0","null","stimuli/sounds/bleep.wav","null","","","","","","",""
"","","","","","html-keyboard-response","51","2.0.0","168010","p2h35xrhv75","ono","pony","21","female","no","no","0","0","1207","<div style=""font-size:30px;"">Press space to start the trial</div>"," ","","","","","","",""
"","","","","","html-keyboard-response","52","2.0.0","168262","p2h35xrhv75","ono","pony","21","female","no","no","0","0","null","<div style=""font-size:60px;"">+</div>","null","","","","","","",""
"","","","","","audio-keyboard-response","53","2.0.0","168863","p2h35xrhv75","ono","pony","21","female","no","no","0","0","null","stimuli/sounds/dog_sound_A.wav","null","","","","","","",""
"","","","","","html-keyboard-response","54","2.0.0","169864","p2h35xrhv75","ono","pony","21","female","no","no","0","0","null","","null","","","","","","",""
"","","","","","image-keyboard-response","55","2.0.0","170334","p2h35xrhv75","ono","pony","21","female","no","no","0","0","465","stimuli/pictures/hiccup_wom_2.jpg","0","0","","true","no","sound","stimuli/sounds/dog_sound_A.wav",""
"","","","","","audio-keyboard-response","56","2.0.0","171336","p2h35xrhv75","ono","pony","21","female","no","no","0","0","null","stimuli/sounds/bleep.wav","null","","","","","","",""
"","","","","","html-keyboard-response","57","2.0.0","173527","p2h35xrhv75","ono","pony","21","female","no","no","0","0","2089","<div style=""font-size:30px;"">Press space to start the trial</div>"," ","","","","","","",""
"","","","","","html-keyboard-response","58","2.0.0","173779","p2h35xrhv75","ono","pony","21","female","no","no","0","0","null","<div style=""font-size:60px;"">+</div>","null","","","","","","",""
"","","","","","audio-keyboard-response","59","2.0.0","174380","p2h35xrhv75","ono","pony","21","female","no","no","0","0","null","stimuli/sounds/hiccup_sound_B.wav","null","","","","","","",""
"","","","","","html-keyboard-response","60","2.0.0","175382","p2h35xrhv75","ono","pony","21","female","no","no","0","0","null","","null","","","","","","",""
"","","","","","image-keyboard-response","61","2.0.0","175959","p2h35xrhv75","ono","pony","21","female","no","no","0","0","572","stimuli/pictures/hiccup_wom_1.jpg","1","1","","true","no","sound","stimuli/sounds/hiccup_sound_B.wav",""
"","","","","","audio-keyboard-response","62","2.0.0","176961","p2h35xrhv75","ono","pony","21","female","no","no","0","0","null","stimuli/sounds/bleep.wav","null","","","","","","",""
"","","","","","html-keyboard-response","63","2.0.0","179676","p2h35xrhv75","ono","pony","21","female","no","no","0","0","2613","<div style=""font-size:30px;"">Press space to start the trial</div>"," ","","","","","","",""
"","","","","","html-keyboard-response","64","2.0.0","179927","p2h35xrhv75","ono","pony","21","female","no","no","0","0","null","<div style=""font-size:60px;"">+</div>","null","","","","","","",""
"","","","","","audio-keyboard-response","65","2.0.0","180527","p2h35xrhv75","ono","pony","21","female","no","no","0","0","null","stimuli/sounds/motor_sound_A.wav","null","","","","","","",""
"","","","","","html-keyboard-response","66","2.0.0","181528","p2h35xrhv75","ono","pony","21","female","no","no","0","0","null","","null","","","","","","",""
"","","","","","image-keyboard-response","67","2.0.0","181969","p2h35xrhv75","ono","pony","21","female","no","no","0","0","435","stimuli/pictures/motor_dirt_2.jpg","1","1","","true","yes","sound","stimuli/sounds/motor_sound_A.wav",""
"","","","","","audio-keyboard-response","68","2.0.0","182971","p2h35xrhv75","ono","pony","21","female","no","no","0","0","null","stimuli/sounds/bleep.wav","null","","","","","","",""
"","","","","","html-keyboard-response","69","2.0.0","184422","p2h35xrhv75","ono","pony","21","female","no","no","0","0","1350","<div style=""font-size:30px;"">Press space to start the trial</div>"," ","","","","","","",""
"","","","","","html-keyboard-response","70","2.0.0","184674","p2h35xrhv75","ono","pony","21","female","no","no","0","0","null","<div style=""font-size:60px;"">+</div>","null","","","","","","",""
"","","","","","audio-keyboard-response","71","2.0.0","185283","p2h35xrhv75","ono","pony","21","female","no","no","0","0","null","stimuli/sounds/cough_label_B.wav","null","","","","","","",""
"","","","","","html-keyboard-response","72","2.0.0","186284","p2h35xrhv75","ono","pony","21","female","no","no","0","0","null","","null","","","","","","",""
"","","","","","image-keyboard-response","73","2.0.0","187104","p2h35xrhv75","ono","pony","21","female","no","no","0","0","819","stimuli/pictures/drop_multi_2.jpg","0","0","","true","no","sound","stimuli/sounds/cough_label_B.wav",""
"","","","","","audio-keyboard-response","74","2.0.0","188106","p2h35xrhv75","ono","pony","21","female","no","no","0","0","null","stimuli/sounds/bleep.wav","null","","","","","","",""
"","","","","","html-keyboard-response","75","2.0.0","190413","p2h35xrhv75","ono","pony","21","female","no","no","0","0","2205","<div style=""font-size:30px;"">Press space to start the trial</div>"," ","","","","","","",""
"","","","","","html-keyboard-response","76","2.0.0","190664","p2h35xrhv75","ono","pony","21","female","no","no","0","0","null","<div style=""font-size:60px;"">+</div>","null","","","","","","",""
"","","","","","audio-keyboard-response","77","2.0.0","191263","p2h35xrhv75","ono","pony","21","female","no","no","0","0","null","stimuli/sounds/motor_label_B.wav","null","","","","","","",""
"","","","","","html-keyboard-response","78","2.0.0","192265","p2h35xrhv75","ono","pony","21","female","no","no","0","0","null","","null","","","","","","",""
"","","","","","image-keyboard-response","79","2.0.0","192723","p2h35xrhv75","ono","pony","21","female","no","no","0","0","457","stimuli/pictures/motor_dirt_1.jpg","1","1","","true","yes","sound","stimuli/sounds/motor_label_B.wav",""
"","","","","","audio-keyboard-response","80","2.0.0","193724","p2h35xrhv75","ono","pony","21","female","no","no","0","0","null","stimuli/sounds/bleep.wav","null","","","","","","",""
"","","","","","html-keyboard-response","81","2.0.0","205881","p2h35xrhv75","ono","pony","21","female","no","no","0","0","12056","<div style=""font-size:30px;"">Press space to start the trial</div>"," ","","","","","","",""
"","","","","","html-keyboard-response","82","2.0.0","206133","p2h35xrhv75","ono","pony","21","female","no","no","0","0","null","<div style=""font-size:60px;"">+</div>","null","","","","","","",""
"","","","","","audio-keyboard-response","83","2.0.0","206733","p2h35xrhv75","ono","pony","21","female","no","no","0","0","null","stimuli/sounds/motor_sound_A.wav","null","","","","","","",""
"","","","","","html-keyboard-response","84","2.0.0","207734","p2h35xrhv75","ono","pony","21","female","no","no","0","0","null","","null","","","","","","",""
"","","","","","image-keyboard-response","85","2.0.0","208909","p2h35xrhv75","ono","pony","21","female","no","no","0","0","1171","stimuli/pictures/drop_multi_1.jpg","1","0","","false","no","sound","stimuli/sounds/motor_sound_A.wav",""
"","","","","","audio-keyboard-response","86","2.0.0","209910","p2h35xrhv75","ono","pony","21","female","no","no","0","0","null","stimuli/sounds/buzz.wav","null","","","","","","",""
"","","","","","html-keyboard-response","87","2.0.0","210593","p2h35xrhv75","ono","pony","21","female","no","no","0","0","581","<div style=""font-size:30px;"">Press space to start the trial</div>"," ","","","","","","",""
"","","","","","html-keyboard-response","88","2.0.0","210845","p2h35xrhv75","ono","pony","21","female","no","no","0","0","null","<div style=""font-size:60px;"">+</div>","null","","","","","","",""
"","","","","","audio-keyboard-response","89","2.0.0","211509","p2h35xrhv75","ono","pony","21","female","no","no","0","0","null","stimuli/sounds/cough_sound_A.wav","null","","","","","","",""
"","","","","","html-keyboard-response","90","2.0.0","212511","p2h35xrhv75","ono","pony","21","female","no","no","0","0","null","","null","","","","","","",""
"","","","","","image-keyboard-response","91","2.0.0","212873","p2h35xrhv75","ono","pony","21","female","no","no","0","0","357","stimuli/pictures/cough_wom_1.jpg","1","1","","true","yes","sound","stimuli/sounds/cough_sound_A.wav",""
"","","","","","audio-keyboard-response","92","2.0.0","213874","p2h35xrhv75","ono","pony","21","female","no","no","0","0","null","stimuli/sounds/bleep.wav","null","","","","","","",""
"","","","","","html-keyboard-response","93","2.0.0","214819","p2h35xrhv75","ono","pony","21","female","no","no","0","0","843","<div style=""font-size:30px;"">Press space to start the trial</div>"," ","","","","","","",""
"","","","","","html-keyboard-response","94","2.0.0","215071","p2h35xrhv75","ono","pony","21","female","no","no","0","0","null","<div style=""font-size:60px;"">+</div>","null","","","","","","",""
"","","","","","audio-keyboard-response","95","2.0.0","215672","p2h35xrhv75","ono","pony","21","female","no","no","0","0","null","stimuli/sounds/motor_sound_A.wav","null","","","","","","",""
"","","","","","html-keyboard-response","96","2.0.0","216673","p2h35xrhv75","ono","pony","21","female","no","no","0","0","null","","null","","","","","","",""
"","","","","","image-keyboard-response","97","2.0.0","217111","p2h35xrhv75","ono","pony","21","female","no","no","0","0","437","stimuli/pictures/drop_multi_2.jpg","0","0","","true","no","sound","stimuli/sounds/motor_sound_A.wav",""
"","","","","","audio-keyboard-response","98","2.0.0","218113","p2h35xrhv75","ono","pony","21","female","no","no","0","0","null","stimuli/sounds/bleep.wav","null","","","","","","",""
"","","","","","html-keyboard-response","99","2.0.0","218577","p2h35xrhv75","ono","pony","21","female","no","no","0","0","363","<div style=""font-size:30px;"">Press space to start the trial</div>"," ","","","","","","",""
"","","","","","html-keyboard-response","100","2.0.0","218828","p2h35xrhv75","ono","pony","21","female","no","no","0","0","null","<div style=""font-size:60px;"">+</div>","null","","","","","","",""
"","","","","","audio-keyboard-response","101","2.0.0","219432","p2h35xrhv75","ono","pony","21","female","no","no","0","0","null","stimuli/sounds/drop_sound_B.wav","null","","","","","","",""
"","","","","","html-keyboard-response","102","2.0.0","220433","p2h35xrhv75","ono","pony","21","female","no","no","0","0","null","","null","","","","","","",""
"","","","","","image-keyboard-response","103","2.0.0","221539","p2h35xrhv75","ono","pony","21","female","no","no","0","0","1105","stimuli/pictures/drop_multi_1.jpg","0","1","","false","yes","sound","stimuli/sounds/drop_sound_B.wav",""
"","","","","","audio-keyboard-response","104","2.0.0","222540","p2h35xrhv75","ono","pony","21","female","no","no","0","0","null","stimuli/sounds/buzz.wav","null","","","","","","",""
"","","","","","html-keyboard-response","105","2.0.0","223075","p2h35xrhv75","ono","pony","21","female","no","no","0","0","433","<div style=""font-size:30px;"">Press space to start the trial</div>"," ","","","","","","",""
"","","","","","html-keyboard-response","106","2.0.0","223326","p2h35xrhv75","ono","pony","21","female","no","no","0","0","null","<div style=""font-size:60px;"">+</div>","null","","","","","","",""
"","","","","","audio-keyboard-response","107","2.0.0","223936","p2h35xrhv75","ono","pony","21","female","no","no","0","0","null","stimuli/sounds/drop_label_B.wav","null","","","","","","",""
"","","","","","html-keyboard-response","108","2.0.0","224937","p2h35xrhv75","ono","pony","21","female","no","no","0","0","null","","null","","","","","","",""
"","","","","","image-keyboard-response","109","2.0.0","226527","p2h35xrhv75","ono","pony","21","female","no","no","0","0","1589","stimuli/pictures/drop_multi_2.jpg","0","1","","false","yes","sound","stimuli/sounds/drop_label_B.wav",""
"","","","","","audio-keyboard-response","110","2.0.0","227528","p2h35xrhv75","ono","pony","21","female","no","no","0","0","null","stimuli/sounds/buzz.wav","null","","","","","","",""
"","","","","","html-keyboard-response","111","2.0.0","228319","p2h35xrhv75","ono","pony","21","female","no","no","0","0","689","<div style=""font-size:30px;"">Press space to start the trial</div>"," ","","","","","","",""
"","","","","","html-keyboard-response","112","2.0.0","228571","p2h35xrhv75","ono","pony","21","female","no","no","0","0","null","<div style=""font-size:60px;"">+</div>","null","","","","","","",""
"","","","","","audio-keyboard-response","113","2.0.0","229179","p2h35xrhv75","ono","pony","21","female","no","no","0","0","null","stimuli/sounds/cough_label_B.wav","null","","","","","","",""
"","","","","","html-keyboard-response","114","2.0.0","230180","p2h35xrhv75","ono","pony","21","female","no","no","0","0","null","","null","","","","","","",""
"","","","","","image-keyboard-response","115","2.0.0","231035","p2h35xrhv75","ono","pony","21","female","no","no","0","0","851","stimuli/pictures/drop_single_1.jpg","0","0","","true","no","sound","stimuli/sounds/cough_label_B.wav",""
"","","","","","audio-keyboard-response","116","2.0.0","232037","p2h35xrhv75","ono","pony","21","female","no","no","0","0","null","stimuli/sounds/bleep.wav","null","","","","","","",""
"","","","","","html-keyboard-response","117","2.0.0","232892","p2h35xrhv75","ono","pony","21","female","no","no","0","0","754","<div style=""font-size:30px;"">Press space to start the trial</div>"," ","","","","","","",""
"","","","","","html-keyboard-response","118","2.0.0","233144","p2h35xrhv75","ono","pony","21","female","no","no","0","0","null","<div style=""font-size:60px;"">+</div>","null","","","","","","",""
"","","","","","audio-keyboard-response","119","2.0.0","233808","p2h35xrhv75","ono","pony","21","female","no","no","0","0","null","stimuli/sounds/cough_sound_A.wav","null","","","","","","",""
"","","","","","html-keyboard-response","120","2.0.0","234809","p2h35xrhv75","ono","pony","21","female","no","no","0","0","null","","null","","","","","","",""
"","","","","","image-keyboard-response","121","2.0.0","235512","p2h35xrhv75","ono","pony","21","female","no","no","0","0","696","stimuli/pictures/dog_rott_1.jpg","0","0","","true","no","sound","stimuli/sounds/cough_sound_A.wav",""
"","","","","","audio-keyboard-response","122","2.0.0","236514","p2h35xrhv75","ono","pony","21","female","no","no","0","0","null","stimuli/sounds/bleep.wav","null","","","","","","",""
"","","","","","html-keyboard-response","123","2.0.0","237116","p2h35xrhv75","ono","pony","21","female","no","no","0","0","500","<div style=""font-size:30px;"">Press space to start the trial</div>"," ","","","","","","",""
"","","","","","html-keyboard-response","124","2.0.0","237367","p2h35xrhv75","ono","pony","21","female","no","no","0","0","null","<div style=""font-size:60px;"">+</div>","null","","","","","","",""
"","","","","","audio-keyboard-response","125","2.0.0","237968","p2h35xrhv75","ono","pony","21","female","no","no","0","0","null","stimuli/sounds/dog_sound_B.wav","null","","","","","","",""
"","","","","","html-keyboard-response","126","2.0.0","238970","p2h35xrhv75","ono","pony","21","female","no","no","0","0","null","","null","","","","","","",""
"","","","","","image-keyboard-response","127","2.0.0","240199","p2h35xrhv75","ono","pony","21","female","no","no","0","0","1224","stimuli/pictures/dog_rott_2.jpg","1","1","","true","no","sound","stimuli/sounds/dog_sound_B.wav",""
"","","","","","audio-keyboard-response","128","2.0.0","241200","p2h35xrhv75","ono","pony","21","female","no","no","0","0","null","stimuli/sounds/bleep.wav","null","","","","","","",""
"","","","","","html-keyboard-response","129","2.0.0","242995","p2h35xrhv75","ono","pony","21","female","no","no","0","0","1693","<div style=""font-size:30px;"">Press space to start the trial</div>"," ","","","","","","",""
"","","","","","html-keyboard-response","130","2.0.0","243247","p2h35xrhv75","ono","pony","21","female","no","no","0","0","null","<div style=""font-size:60px;"">+</div>","null","","","","","","",""
"","","","","","audio-keyboard-response","131","2.0.0","243926","p2h35xrhv75","ono","pony","21","female","no","no","0","0","null","stimuli/sounds/cough_sound_B.wav","null","","","","","","",""
"","","","","","html-keyboard-response","132","2.0.0","244927","p2h35xrhv75","ono","pony","21","female","no","no","0","0","null","","null","","","","","","",""
"","","","","","image-keyboard-response","133","2.0.0","245927","p2h35xrhv75","ono","pony","21","female","no","no","0","0","1000","stimuli/pictures/cough_wom_1.jpg","1","1","","true","no","sound","stimuli/sounds/cough_sound_B.wav",""
"","","","","","audio-keyboard-response","134","2.0.0","246929","p2h35xrhv75","ono","pony","21","female","no","no","0","0","null","stimuli/sounds/bleep.wav","null","","","","","","",""
"","","","","","html-keyboard-response","135","2.0.0","248239","p2h35xrhv75","ono","pony","21","female","no","no","0","0","1209","<div style=""font-size:30px;"">Press space to start the trial</div>"," ","","","","","","",""
"","","","","","html-keyboard-response","136","2.0.0","248490","p2h35xrhv75","ono","pony","21","female","no","no","0","0","null","<div style=""font-size:60px;"">+</div>","null","","","","","","",""
"","","","","","audio-keyboard-response","137","2.0.0","249120","p2h35xrhv75","ono","pony","21","female","no","no","0","0","null","stimuli/sounds/cough_label_A.wav","null","","","","","","",""
"","","","","","html-keyboard-response","138","2.0.0","250122","p2h35xrhv75","ono","pony","21","female","no","no","0","0","null","","null","","","","","","",""
"","","","","","image-keyboard-response","139","2.0.0","251330","p2h35xrhv75","ono","pony","21","female","no","no","0","0","1207","stimuli/pictures/cough_wom_1.jpg","0","1","","false","yes","sound","stimuli/sounds/cough_label_A.wav",""
"","","","","","audio-keyboard-response","140","2.0.0","252332","p2h35xrhv75","ono","pony","21","female","no","no","0","0","null","stimuli/sounds/buzz.wav","null","","","","","","",""
"","","","","","html-keyboard-response","141","2.0.0","253809","p2h35xrhv75","ono","pony","21","female","no","no","0","0","1376","<div style=""font-size:30px;"">Press space to start the trial</div>"," ","","","","","","",""
"","","","","","html-keyboard-response","142","2.0.0","254060","p2h35xrhv75","ono","pony","21","female","no","no","0","0","null","<div style=""font-size:60px;"">+</div>","null","","","","","","",""
"","","","","","audio-keyboard-response","143","2.0.0","254691","p2h35xrhv75","ono","pony","21","female","no","no","0","0","null","stimuli/sounds/cough_label_A.wav","null","","","","","","",""
"","","","","","html-keyboard-response","144","2.0.0","255692","p2h35xrhv75","ono","pony","21","female","no","no","0","0","null","","null","","","","","","",""
"","","","","","image-keyboard-response","145","2.0.0","256312","p2h35xrhv75","ono","pony","21","female","no","no","0","0","615","stimuli/pictures/motor_harley_1.jpg","0","0","","true","no","sound","stimuli/sounds/cough_label_A.wav",""
"","","","","","audio-keyboard-response","146","2.0.0","257313","p2h35xrhv75","ono","pony","21","female","no","no","0","0","null","stimuli/sounds/bleep.wav","null","","","","","","",""
"","","","","","html-keyboard-response","147","2.0.0","263201","p2h35xrhv75","ono","pony","21","female","no","no","0","0","5786","<p>You have completed a block. Press R when you are ready to continue</p>","r","","","","","","",""
"","","","","","html-keyboard-response","148","2.0.0","264167","p2h35xrhv75","ono","pony","21","female","no","no","0","0","964","<div style=""font-size:30px;"">Press space to start the trial</div>"," ","","","","","","",""
"","","","","","html-keyboard-response","149","2.0.0","264418","p2h35xrhv75","ono","pony","21","female","no","no","0","0","null","<div style=""font-size:60px;"">+</div>","null","","","","","","",""
"","","","","","audio-keyboard-response","150","2.0.0","265051","p2h35xrhv75","ono","pony","21","female","no","no","0","0","null","stimuli/sounds/cough_label_A.wav","null","","","","","","",""
"","","","","","html-keyboard-response","151","2.0.0","266053","p2h35xrhv75","ono","pony","21","female","no","no","0","0","null","","null","","","","","","",""
"","","","","","image-keyboard-response","152","2.0.0","266470","p2h35xrhv75","ono","pony","21","female","no","no","0","0","414","stimuli/pictures/cough_wom_2.jpg","1","1","","true","yes","sound","stimuli/sounds/cough_label_A.wav",""
"","","","","","audio-keyboard-response","153","2.0.0","267473","p2h35xrhv75","ono","pony","21","female","no","no","0","0","null","stimuli/sounds/bleep.wav","null","","","","","","",""
"","","","","","html-keyboard-response","154","2.0.0","268040","p2h35xrhv75","ono","pony","21","female","no","no","0","0","466","<div style=""font-size:30px;"">Press space to start the trial</div>"," ","","","","","","",""
"","","","","","html-keyboard-response","155","2.0.0","268291","p2h35xrhv75","ono","pony","21","female","no","no","0","0","null","<div style=""font-size:60px;"">+</div>","null","","","","","","",""
"","","","","","audio-keyboard-response","156","2.0.0","268897","p2h35xrhv75","ono","pony","21","female","no","no","0","0","null","stimuli/sounds/hiccup_sound_A.wav","null","","","","","","",""
"","","","","","html-keyboard-response","157","2.0.0","269898","p2h35xrhv75","ono","pony","21","female","no","no","0","0","null","","null","","","","","","",""
"","","","","","image-keyboard-response","158","2.0.0","270268","p2h35xrhv75","ono","pony","21","female","no","no","0","0","366","stimuli/pictures/motor_harley_2.jpg","0","0","","true","no","sound","stimuli/sounds/hiccup_sound_A.wav",""
"","","","","","audio-keyboard-response","159","2.0.0","271270","p2h35xrhv75","ono","pony","21","female","no","no","0","0","null","stimuli/sounds/bleep.wav","null","","","","","","",""
"","","","","","html-keyboard-response","160","2.0.0","271902","p2h35xrhv75","ono","pony","21","female","no","no","0","0","530","<div style=""font-size:30px;"">Press space to start the trial</div>"," ","","","","","","",""
"","","","","","html-keyboard-response","161","2.0.0","272153","p2h35xrhv75","ono","pony","21","female","no","no","0","0","null","<div style=""font-size:60px;"">+</div>","null","","","","","","",""
"","","","","","audio-keyboard-response","162","2.0.0","272753","p2h35xrhv75","ono","pony","21","female","no","no","0","0","null","stimuli/sounds/dog_label_A.wav","null","","","","","","",""
"","","","","","html-keyboard-response","163","2.0.0","273754","p2h35xrhv75","ono","pony","21","female","no","no","0","0","null","","null","","","","","","",""
"","","","","","image-keyboard-response","164","2.0.0","274809","p2h35xrhv75","ono","pony","21","female","no","no","0","0","1052","stimuli/pictures/dog_rott_1.jpg","1","1","","true","yes","sound","stimuli/sounds/dog_label_A.wav",""
"","","","","","audio-keyboard-response","165","2.0.0","275810","p2h35xrhv75","ono","pony","21","female","no","no","0","0","null","stimuli/sounds/bleep.wav","null","","","","","","",""
"","","","","","html-keyboard-response","166","2.0.0","276298","p2h35xrhv75","ono","pony","21","female","no","no","0","0","386","<div style=""font-size:30px;"">Press space to start the trial</div>"," ","","","","","","",""
"","","","","","html-keyboard-response","167","2.0.0","276550","p2h35xrhv75","ono","pony","21","female","no","no","0","0","null","<div style=""font-size:60px;"">+</div>","null","","","","","","",""
"","","","","","audio-keyboard-response","168","2.0.0","277153","p2h35xrhv75","ono","pony","21","female","no","no","0","0","null","stimuli/sounds/dog_sound_B.wav","null","","","","","","",""
"","","","","","html-keyboard-response","169","2.0.0","278153","p2h35xrhv75","ono","pony","21","female","no","no","0","0","null","","null","","","","","","",""
"","","","","","image-keyboard-response","170","2.0.0","279345","p2h35xrhv75","ono","pony","21","female","no","no","0","0","1190","stimuli/pictures/dog_rott_1.jpg","1","1","","true","no","sound","stimuli/sounds/dog_sound_B.wav",""
"","","","","","audio-keyboard-response","171","2.0.0","280346","p2h35xrhv75","ono","pony","21","female","no","no","0","0","null","stimuli/sounds/bleep.wav","null","","","","","","",""
"","","","","","html-keyboard-response","172","2.0.0","282719","p2h35xrhv75","ono","pony","21","female","no","no","0","0","2273","<div style=""font-size:30px;"">Press space to start the trial</div>"," ","","","","","","",""
"","","","","","html-keyboard-response","173","2.0.0","282970","p2h35xrhv75","ono","pony","21","female","no","no","0","0","null","<div style=""font-size:60px;"">+</div>","null","","","","","","",""
"","","","","","audio-keyboard-response","174","2.0.0","283569","p2h35xrhv75","ono","pony","21","female","no","no","0","0","null","stimuli/sounds/dog_label_A.wav","null","","","","","","",""
"","","","","","html-keyboard-response","175","2.0.0","284569","p2h35xrhv75","ono","pony","21","female","no","no","0","0","null","","null","","","","","","",""
"","","","","","image-keyboard-response","176","2.0.0","285266","p2h35xrhv75","ono","pony","21","female","no","no","0","0","691","stimuli/pictures/dog_york_1.jpg","1","1","","true","yes","sound","stimuli/sounds/dog_label_A.wav",""
"","","","","","audio-keyboard-response","177","2.0.0","286267","p2h35xrhv75","ono","pony","21","female","no","no","0","0","null","stimuli/sounds/bleep.wav","null","","","","","","",""
"","","","","","html-keyboard-response","178","2.0.0","287271","p2h35xrhv75","ono","pony","21","female","no","no","0","0","902","<div style=""font-size:30px;"">Press space to start the trial</div>"," ","","","","","","",""
"","","","","","html-keyboard-response","179","2.0.0","287522","p2h35xrhv75","ono","pony","21","female","no","no","0","0","null","<div style=""font-size:60px;"">+</div>","null","","","","","","",""
"","","","","","audio-keyboard-response","180","2.0.0","288121","p2h35xrhv75","ono","pony","21","female","no","no","0","0","null","stimuli/sounds/dog_label_B.wav","null","","","","","","",""
"","","","","","html-keyboard-response","181","2.0.0","289122","p2h35xrhv75","ono","pony","21","female","no","no","0","0","null","","null","","","","","","",""
"","","","","","image-keyboard-response","182","2.0.0","289541","p2h35xrhv75","ono","pony","21","female","no","no","0","0","418","stimuli/pictures/dog_rott_2.jpg","1","1","","true","yes","sound","stimuli/sounds/dog_label_B.wav",""
"","","","","","audio-keyboard-response","183","2.0.0","290541","p2h35xrhv75","ono","pony","21","female","no","no","0","0","null","stimuli/sounds/bleep.wav","null","","","","","","",""
"","","","","","html-keyboard-response","184","2.0.0","293919","p2h35xrhv75","ono","pony","21","female","no","no","0","0","3277","<div style=""font-size:30px;"">Press space to start the trial</div>"," ","","","","","","",""
"","","","","","html-keyboard-response","185","2.0.0","294170","p2h35xrhv75","ono","pony","21","female","no","no","0","0","null","<div style=""font-size:60px;"">+</div>","null","","","","","","",""
"","","","","","audio-keyboard-response","186","2.0.0","294774","p2h35xrhv75","ono","pony","21","female","no","no","0","0","null","stimuli/sounds/drop_sound_B.wav","null","","","","","","",""
"","","","","","html-keyboard-response","187","2.0.0","295776","p2h35xrhv75","ono","pony","21","female","no","no","0","0","null","","null","","","","","","",""
"","","","","","image-keyboard-response","188","2.0.0","296413","p2h35xrhv75","ono","pony","21","female","no","no","0","0","636","stimuli/pictures/dog_rott_1.jpg","0","0","","true","no","sound","stimuli/sounds/drop_sound_B.wav",""
"","","","","","audio-keyboard-response","189","2.0.0","297415","p2h35xrhv75","ono","pony","21","female","no","no","0","0","null","stimuli/sounds/bleep.wav","null","","","","","","",""
"","","","","","html-keyboard-response","190","2.0.0","299375","p2h35xrhv75","ono","pony","21","female","no","no","0","0","1859","<div style=""font-size:30px;"">Press space to start the trial</div>"," ","","","","","","",""
"","","","","","html-keyboard-response","191","2.0.0","299626","p2h35xrhv75","ono","pony","21","female","no","no","0","0","null","<div style=""font-size:60px;"">+</div>","null","","","","","","",""
"","","","","","audio-keyboard-response","192","2.0.0","300289","p2h35xrhv75","ono","pony","21","female","no","no","0","0","null","stimuli/sounds/cough_sound_A.wav","null","","","","","","",""
"","","","","","html-keyboard-response","193","2.0.0","301291","p2h35xrhv75","ono","pony","21","female","no","no","0","0","null","","null","","","","","","",""
"","","","","","image-keyboard-response","194","2.0.0","301696","p2h35xrhv75","ono","pony","21","female","no","no","0","0","402","stimuli/pictures/cough_man_1.jpg","1","1","","true","no","sound","stimuli/sounds/cough_sound_A.wav",""
"","","","","","audio-keyboard-response","195","2.0.0","302697","p2h35xrhv75","ono","pony","21","female","no","no","0","0","null","stimuli/sounds/bleep.wav","null","","","","","","",""
"","","","","","html-keyboard-response","196","2.0.0","313092","p2h35xrhv75","ono","pony","21","female","no","no","0","0","10293","<div style=""font-size:30px;"">Press space to start the trial</div>"," ","","","","","","",""
"","","","","","html-keyboard-response","197","2.0.0","313343","p2h35xrhv75","ono","pony","21","female","no","no","0","0","null","<div style=""font-size:60px;"">+</div>","null","","","","","","",""
"","","","","","audio-keyboard-response","198","2.0.0","313927","p2h35xrhv75","ono","pony","21","female","no","no","0","0","null","stimuli/sounds/drop_sound_A.wav","null","","","","","","",""
"","","","","","html-keyboard-response","199","2.0.0","314928","p2h35xrhv75","ono","pony","21","female","no","no","0","0","null","","null","","","","","","",""
"","","","","","image-keyboard-response","200","2.0.0","315690","p2h35xrhv75","ono","pony","21","female","no","no","0","0","761","stimuli/pictures/drop_multi_1.jpg","0","1","","false","no","sound","stimuli/sounds/drop_sound_A.wav",""
"","","","","","audio-keyboard-response","201","2.0.0","316690","p2h35xrhv75","ono","pony","21","female","no","no","0","0","null","stimuli/sounds/buzz.wav","null","","","","","","",""
"","","","","","html-keyboard-response","202","2.0.0","317378","p2h35xrhv75","ono","pony","21","female","no","no","0","0","587","<div style=""font-size:30px;"">Press space to start the trial</div>"," ","","","","","","",""
"","","","","","html-keyboard-response","203","2.0.0","317629","p2h35xrhv75","ono","pony","21","female","no","no","0","0","null","<div style=""font-size:60px;"">+</div>","null","","","","","","",""
"","","","","","audio-keyboard-response","204","2.0.0","318231","p2h35xrhv75","ono","pony","21","female","no","no","0","0","null","stimuli/sounds/dog_sound_A.wav","null","","","","","","",""
"","","","","","html-keyboard-response","205","2.0.0","319231","p2h35xrhv75","ono","pony","21","female","no","no","0","0","null","","null","","","","","","",""
"","","","","","image-keyboard-response","206","2.0.0","319977","p2h35xrhv75","ono","pony","21","female","no","no","0","0","744","stimuli/pictures/hiccup_man_2.jpg","0","0","","true","no","sound","stimuli/sounds/dog_sound_A.wav",""
"","","","","","audio-keyboard-response","207","2.0.0","320978","p2h35xrhv75","ono","pony","21","female","no","no","0","0","null","stimuli/sounds/bleep.wav","null","","","","","","",""
"","","","","","html-keyboard-response","208","2.0.0","321782","p2h35xrhv75","ono","pony","21","female","no","no","0","0","703","<div style=""font-size:30px;"">Press space to start the trial</div>"," ","","","","","","",""
"","","","","","html-keyboard-response","209","2.0.0","322033","p2h35xrhv75","ono","pony","21","female","no","no","0","0","null","<div style=""font-size:60px;"">+</div>","null","","","","","","",""
"","","","","","audio-keyboard-response","210","2.0.0","322714","p2h35xrhv75","ono","pony","21","female","no","no","0","0","null","stimuli/sounds/cough_sound_B.wav","null","","","","","","",""
"","","","","","html-keyboard-response","211","2.0.0","323715","p2h35xrhv75","ono","pony","21","female","no","no","0","0","null","","null","","","","","","",""
"","","","","","image-keyboard-response","212","2.0.0","325104","p2h35xrhv75","ono","pony","21","female","no","no","0","0","1386","stimuli/pictures/hiccup_man_1.jpg","1","0","","false","no","sound","stimuli/sounds/cough_sound_B.wav",""
"","","","","","audio-keyboard-response","213","2.0.0","326105","p2h35xrhv75","ono","pony","21","female","no","no","0","0","null","stimuli/sounds/buzz.wav","null","","","","","","",""
"","","","","","html-keyboard-response","214","2.0.0","327366","p2h35xrhv75","ono","pony","21","female","no","no","0","0","1158","<div style=""font-size:30px;"">Press space to start the trial</div>"," ","","","","","","",""
"","","","","","html-keyboard-response","215","2.0.0","327617","p2h35xrhv75","ono","pony","21","female","no","no","0","0","null","<div style=""font-size:60px;"">+</div>","null","","","","","","",""
"","","","","","audio-keyboard-response","216","2.0.0","328220","p2h35xrhv75","ono","pony","21","female","no","no","0","0","null","stimuli/sounds/hiccup_sound_B.wav","null","","","","","","",""
"","","","","","html-keyboard-response","217","2.0.0","329221","p2h35xrhv75","ono","pony","21","female","no","no","0","0","null","","null","","","","","","",""
"","","","","","image-keyboard-response","218","2.0.0","329715","p2h35xrhv75","ono","pony","21","female","no","no","0","0","493","stimuli/pictures/drop_single_1.jpg","0","0","","true","no","sound","stimuli/sounds/hiccup_sound_B.wav",""
"","","","","","audio-keyboard-response","219","2.0.0","330716","p2h35xrhv75","ono","pony","21","female","no","no","0","0","null","stimuli/sounds/bleep.wav","null","","","","","","",""
"","","","","","html-keyboard-response","220","2.0.0","331329","p2h35xrhv75","ono","pony","21","female","no","no","0","0","512","<div style=""font-size:30px;"">Press space to start the trial</div>"," ","","","","","","",""
"","","","","","html-keyboard-response","221","2.0.0","331581","p2h35xrhv75","ono","pony","21","female","no","no","0","0","null","<div style=""font-size:60px;"">+</div>","null","","","","","","",""
"","","","","","audio-keyboard-response","222","2.0.0","332189","p2h35xrhv75","ono","pony","21","female","no","no","0","0","null","stimuli/sounds/hiccup_label_B.wav","null","","","","","","",""
"","","","","","html-keyboard-response","223","2.0.0","333190","p2h35xrhv75","ono","pony","21","female","no","no","0","0","null","","null","","","","","","",""
"","","","","","image-keyboard-response","224","2.0.0","334389","p2h35xrhv75","ono","pony","21","female","no","no","0","0","1198","stimuli/pictures/hiccup_wom_1.jpg","1","1","","true","yes","sound","stimuli/sounds/hiccup_label_B.wav",""
"","","","","","audio-keyboard-response","225","2.0.0","335390","p2h35xrhv75","ono","pony","21","female","no","no","0","0","null","stimuli/sounds/bleep.wav","null","","","","","","",""
"","","","","","html-keyboard-response","226","2.0.0","336071","p2h35xrhv75","ono","pony","21","female","no","no","0","0","579","<div style=""font-size:30px;"">Press space to start the trial</div>"," ","","","","","","",""
"","","","","","html-keyboard-response","227","2.0.0","336322","p2h35xrhv75","ono","pony","21","female","no","no","0","0","null","<div style=""font-size:60px;"">+</div>","null","","","","","","",""
"","","","","","audio-keyboard-response","228","2.0.0","336922","p2h35xrhv75","ono","pony","21","female","no","no","0","0","null","stimuli/sounds/motor_sound_A.wav","null","","","","","","",""
"","","","","","html-keyboard-response","229","2.0.0","337923","p2h35xrhv75","ono","pony","21","female","no","no","0","0","null","","null","","","","","","",""
"","","","","","image-keyboard-response","230","2.0.0","338861","p2h35xrhv75","ono","pony","21","female","no","no","0","0","937","stimuli/pictures/motor_harley_1.jpg","1","1","","true","no","sound","stimuli/sounds/motor_sound_A.wav",""
"","","","","","audio-keyboard-response","231","2.0.0","339862","p2h35xrhv75","ono","pony","21","female","no","no","0","0","null","stimuli/sounds/bleep.wav","null","","","","","","",""
"","","","","","html-keyboard-response","232","2.0.0","342092","p2h35xrhv75","ono","pony","21","female","no","no","0","0","2129","<div style=""font-size:30px;"">Press space to start the trial</div>"," ","","","","","","",""
"","","","","","html-keyboard-response","233","2.0.0","342343","p2h35xrhv75","ono","pony","21","female","no","no","0","0","null","<div style=""font-size:60px;"">+</div>","null","","","","","","",""
"","","","","","audio-keyboard-response","234","2.0.0","342927","p2h35xrhv75","ono","pony","21","female","no","no","0","0","null","stimuli/sounds/drop_sound_A.wav","null","","","","","","",""
"","","","","","html-keyboard-response","235","2.0.0","343928","p2h35xrhv75","ono","pony","21","female","no","no","0","0","null","","null","","","","","","",""
"","","","","","image-keyboard-response","236","2.0.0","344987","p2h35xrhv75","ono","pony","21","female","no","no","0","0","1058","stimuli/pictures/cough_wom_1.jpg","1","0","","false","no","sound","stimuli/sounds/drop_sound_A.wav",""
"","","","","","audio-keyboard-response","237","2.0.0","345989","p2h35xrhv75","ono","pony","21","female","no","no","0","0","null","stimuli/sounds/buzz.wav","null","","","","","","",""
"","","","","","html-keyboard-response","238","2.0.0","346790","p2h35xrhv75","ono","pony","21","female","no","no","0","0","700","<div style=""font-size:30px;"">Press space to start the trial</div>"," ","","","","","","",""
"","","","","","html-keyboard-response","239","2.0.0","347042","p2h35xrhv75","ono","pony","21","female","no","no","0","0","null","<div style=""font-size:60px;"">+</div>","null","","","","","","",""
"","","","","","audio-keyboard-response","240","2.0.0","347653","p2h35xrhv75","ono","pony","21","female","no","no","0","0","null","stimuli/sounds/drop_label_B.wav","null","","","","","","",""
"","","","","","html-keyboard-response","241","2.0.0","348653","p2h35xrhv75","ono","pony","21","female","no","no","0","0","null","","null","","","","","","",""
"","","","","","image-keyboard-response","242","2.0.0","349577","p2h35xrhv75","ono","pony","21","female","no","no","0","0","923","stimuli/pictures/drop_multi_1.jpg","1","1","","true","yes","sound","stimuli/sounds/drop_label_B.wav",""
"","","","","","audio-keyboard-response","243","2.0.0","350579","p2h35xrhv75","ono","pony","21","female","no","no","0","0","null","stimuli/sounds/bleep.wav","null","","","","","","",""
"","","","","","html-keyboard-response","244","2.0.0","351456","p2h35xrhv75","ono","pony","21","female","no","no","0","0","775","<div style=""font-size:30px;"">Press space to start the trial</div>"," ","","","","","","",""
"","","","","","html-keyboard-response","245","2.0.0","351707","p2h35xrhv75","ono","pony","21","female","no","no","0","0","null","<div style=""font-size:60px;"">+</div>","null","","","","","","",""
"","","","","","audio-keyboard-response","246","2.0.0","352386","p2h35xrhv75","ono","pony","21","female","no","no","0","0","null","stimuli/sounds/cough_sound_B.wav","null","","","","","","",""
"","","","","","html-keyboard-response","247","2.0.0","353388","p2h35xrhv75","ono","pony","21","female","no","no","0","0","null","","null","","","","","","",""
"","","","","","image-keyboard-response","248","2.0.0","354459","p2h35xrhv75","ono","pony","21","female","no","no","0","0","1070","stimuli/pictures/hiccup_wom_1.jpg","0","0","","true","no","sound","stimuli/sounds/cough_sound_B.wav",""
"","","","","","audio-keyboard-response","249","2.0.0","355461","p2h35xrhv75","ono","pony","21","female","no","no","0","0","null","stimuli/sounds/bleep.wav","null","","","","","","",""
"","","","","","html-keyboard-response","250","2.0.0","359640","p2h35xrhv75","ono","pony","21","female","no","no","0","0","4077","<div style=""font-size:30px;"">Press space to start the trial</div>"," ","","","","","","",""
"","","","","","html-keyboard-response","251","2.0.0","359892","p2h35xrhv75","ono","pony","21","female","no","no","0","0","null","<div style=""font-size:60px;"">+</div>","null","","","","","","",""
"","","","","","audio-keyboard-response","252","2.0.0","360493","p2h35xrhv75","ono","pony","21","female","no","no","0","0","null","stimuli/sounds/hiccup_sound_B.wav","null","","","","","","",""
"","","","","","html-keyboard-response","253","2.0.0","361494","p2h35xrhv75","ono","pony","21","female","no","no","0","0","null","","null","","","","","","",""
"","","","","","image-keyboard-response","254","2.0.0","362030","p2h35xrhv75","ono","pony","21","female","no","no","0","0","535","stimuli/pictures/drop_multi_2.jpg","0","0","","true","no","sound","stimuli/sounds/hiccup_sound_B.wav",""
"","","","","","audio-keyboard-response","255","2.0.0","363032","p2h35xrhv75","ono","pony","21","female","no","no","0","0","null","stimuli/sounds/bleep.wav","null","","","","","","",""
"","","","","","html-keyboard-response","256","2.0.0","364837","p2h35xrhv75","ono","pony","21","female","no","no","0","0","1704","<div style=""font-size:30px;"">Press space to start the trial</div>"," ","","","","","","",""
"","","","","","html-keyboard-response","257","2.0.0","365088","p2h35xrhv75","ono","pony","21","female","no","no","0","0","null","<div style=""font-size:60px;"">+</div>","null","","","","","","",""
"","","","","","audio-keyboard-response","258","2.0.0","365696","p2h35xrhv75","ono","pony","21","female","no","no","0","0","null","stimuli/sounds/cough_label_B.wav","null","","","","","","",""
"","","","","","html-keyboard-response","259","2.0.0","366697","p2h35xrhv75","ono","pony","21","female","no","no","0","0","null","","null","","","","","","",""
"","","","","","image-keyboard-response","260","2.0.0","367113","p2h35xrhv75","ono","pony","21","female","no","no","0","0","415","stimuli/pictures/drop_multi_1.jpg","0","0","","true","no","sound","stimuli/sounds/cough_label_B.wav",""
"","","","","","audio-keyboard-response","261","2.0.0","368114","p2h35xrhv75","ono","pony","21","female","no","no","0","0","null","stimuli/sounds/bleep.wav","null","","","","","","",""
"","","","","","html-keyboard-response","262","2.0.0","369006","p2h35xrhv75","ono","pony","21","female","no","no","0","0","790","<div style=""font-size:30px;"">Press space to start the trial</div>"," ","","","","","","",""
"","","","","","html-keyboard-response","263","2.0.0","369258","p2h35xrhv75","ono","pony","21","female","no","no","0","0","null","<div style=""font-size:60px;"">+</div>","null","","","","","","",""
"","","","","","audio-keyboard-response","264","2.0.0","369797","p2h35xrhv75","ono","pony","21","female","no","no","0","0","null","stimuli/sounds/hiccup_label_A.wav","null","","","","","","",""
"","","","","","html-keyboard-response","265","2.0.0","370799","p2h35xrhv75","ono","pony","21","female","no","no","0","0","null","","null","","","","","","",""
"","","","","","image-keyboard-response","266","2.0.0","371286","p2h35xrhv75","ono","pony","21","female","no","no","0","0","486","stimuli/pictures/hiccup_wom_1.jpg","1","1","","true","yes","sound","stimuli/sounds/hiccup_label_A.wav",""
"","","","","","audio-keyboard-response","267","2.0.0","372288","p2h35xrhv75","ono","pony","21","female","no","no","0","0","null","stimuli/sounds/bleep.wav","null","","","","","","",""
"","","","","","html-keyboard-response","268","2.0.0","376385","p2h35xrhv75","ono","pony","21","female","no","no","0","0","3995","<p>You have completed a block. Press R when you are ready to continue</p>","r","","","","","","",""
"","","","","","html-keyboard-response","269","2.0.0","377108","p2h35xrhv75","ono","pony","21","female","no","no","0","0","723","<div style=""font-size:30px;"">Press space to start the trial</div>"," ","","","","","","",""
"","","","","","html-keyboard-response","270","2.0.0","377359","p2h35xrhv75","ono","pony","21","female","no","no","0","0","null","<div style=""font-size:60px;"">+</div>","null","","","","","","",""
"","","","","","audio-keyboard-response","271","2.0.0","377957","p2h35xrhv75","ono","pony","21","female","no","no","0","0","null","stimuli/sounds/motor_sound_B.wav","null","","","","","","",""
"","","","","","html-keyboard-response","272","2.0.0","378959","p2h35xrhv75","ono","pony","21","female","no","no","0","0","null","","null","","","","","","",""
"","","","","","image-keyboard-response","273","2.0.0","379288","p2h35xrhv75","ono","pony","21","female","no","no","0","0","328","stimuli/pictures/motor_harley_2.jpg","1","1","","true","yes","sound","stimuli/sounds/motor_sound_B.wav",""
"","","","","","audio-keyboard-response","274","2.0.0","380289","p2h35xrhv75","ono","pony","21","female","no","no","0","0","null","stimuli/sounds/bleep.wav","null","","","","","","",""
"","","","","","html-keyboard-response","275","2.0.0","383507","p2h35xrhv75","ono","pony","21","female","no","no","0","0","3118","<div style=""font-size:30px;"">Press space to start the trial</div>"," ","","","","","","",""
"","","","","","html-keyboard-response","276","2.0.0","383759","p2h35xrhv75","ono","pony","21","female","no","no","0","0","null","<div style=""font-size:60px;"">+</div>","null","","","","","","",""
"","","","","","audio-keyboard-response","277","2.0.0","384363","p2h35xrhv75","ono","pony","21","female","no","no","0","0","null","stimuli/sounds/hiccup_sound_A.wav","null","","","","","","",""
"","","","","","html-keyboard-response","278","2.0.0","385364","p2h35xrhv75","ono","pony","21","female","no","no","0","0","null","","null","","","","","","",""
"","","","","","image-keyboard-response","279","2.0.0","386261","p2h35xrhv75","ono","pony","21","female","no","no","0","0","896","stimuli/pictures/hiccup_wom_1.jpg","1","1","","true","yes","sound","stimuli/sounds/hiccup_sound_A.wav",""
"","","","","","audio-keyboard-response","280","2.0.0","387263","p2h35xrhv75","ono","pony","21","female","no","no","0","0","null","stimuli/sounds/bleep.wav","null","","","","","","",""
"","","","","","html-keyboard-response","281","2.0.0","388199","p2h35xrhv75","ono","pony","21","female","no","no","0","0","835","<div style=""font-size:30px;"">Press space to start the trial</div>"," ","","","","","","",""
"","","","","","html-keyboard-response","282","2.0.0","388451","p2h35xrhv75","ono","pony","21","female","no","no","0","0","null","<div style=""font-size:60px;"">+</div>","null","","","","","","",""
"","","","","","audio-keyboard-response","283","2.0.0","389051","p2h35xrhv75","ono","pony","21","female","no","no","0","0","null","stimuli/sounds/motor_label_A.wav","null","","","","","","",""
"","","","","","html-keyboard-response","284","2.0.0","390052","p2h35xrhv75","ono","pony","21","female","no","no","0","0","null","","null","","","","","","",""
"","","","","","image-keyboard-response","285","2.0.0","390543","p2h35xrhv75","ono","pony","21","female","no","no","0","0","489","stimuli/pictures/dog_rott_1.jpg","0","0","","true","no","sound","stimuli/sounds/motor_label_A.wav",""
"","","","","","audio-keyboard-response","286","2.0.0","391544","p2h35xrhv75","ono","pony","21","female","no","no","0","0","null","stimuli/sounds/bleep.wav","null","","","","","","",""
"","","","","","html-keyboard-response","287","2.0.0","395535","p2h35xrhv75","ono","pony","21","female","no","no","0","0","3890","<div style=""font-size:30px;"">Press space to start the trial</div>"," ","","","","","","",""
"","","","","","html-keyboard-response","288","2.0.0","395786","p2h35xrhv75","ono","pony","21","female","no","no","0","0","null","<div style=""font-size:60px;"">+</div>","null","","","","","","",""
"","","","","","audio-keyboard-response","289","2.0.0","396390","p2h35xrhv75","ono","pony","21","female","no","no","0","0","null","stimuli/sounds/dog_sound_B.wav","null","","","","","","",""
"","","","","","html-keyboard-response","290","2.0.0","397390","p2h35xrhv75","ono","pony","21","female","no","no","0","0","null","","null","","","","","","",""
"","","","","","image-keyboard-response","291","2.0.0","399563","p2h35xrhv75","ono","pony","21","female","no","no","0","0","2172","stimuli/pictures/motor_harley_2.jpg","0","0","","true","no","sound","stimuli/sounds/dog_sound_B.wav",""
"","","","","","audio-keyboard-response","292","2.0.0","400564","p2h35xrhv75","ono","pony","21","female","no","no","0","0","null","stimuli/sounds/bleep.wav","null","","","","","","",""
"","","","","","html-keyboard-response","293","2.0.0","401166","p2h35xrhv75","ono","pony","21","female","no","no","0","0","502","<div style=""font-size:30px;"">Press space to start the trial</div>"," ","","","","","","",""
"","","","","","html-keyboard-response","294","2.0.0","401418","p2h35xrhv75","ono","pony","21","female","no","no","0","0","null","<div style=""font-size:60px;"">+</div>","null","","","","","","",""
"","","","","","audio-keyboard-response","295","2.0.0","402016","p2h35xrhv75","ono","pony","21","female","no","no","0","0","null","stimuli/sounds/motor_label_B.wav","null","","","","","","",""
"","","","","","html-keyboard-response","296","2.0.0","403018","p2h35xrhv75","ono","pony","21","female","no","no","0","0","null","","null","","","","","","",""
"","","","","","image-keyboard-response","297","2.0.0","403514","p2h35xrhv75","ono","pony","21","female","no","no","0","0","496","stimuli/pictures/hiccup_wom_1.jpg","0","0","","true","no","sound","stimuli/sounds/motor_label_B.wav",""
"","","","","","audio-keyboard-response","298","2.0.0","404516","p2h35xrhv75","ono","pony","21","female","no","no","0","0","null","stimuli/sounds/bleep.wav","null","","","","","","",""
"","","","","","html-keyboard-response","299","2.0.0","405276","p2h35xrhv75","ono","pony","21","female","no","no","0","0","659","<div style=""font-size:30px;"">Press space to start the trial</div>"," ","","","","","","",""
"","","","","","html-keyboard-response","300","2.0.0","405527","p2h35xrhv75","ono","pony","21","female","no","no","0","0","null","<div style=""font-size:60px;"">+</div>","null","","","","","","",""
"","","","","","audio-keyboard-response","301","2.0.0","406126","p2h35xrhv75","ono","pony","21","female","no","no","0","0","null","stimuli/sounds/motor_label_A.wav","null","","","","","","",""
"","","","","","html-keyboard-response","302","2.0.0","407127","p2h35xrhv75","ono","pony","21","female","no","no","0","0","null","","null","","","","","","",""
"","","","","","image-keyboard-response","303","2.0.0","407278","p2h35xrhv75","ono","pony","21","female","no","no","0","0","151","stimuli/pictures/motor_dirt_1.jpg","0","1","","false","yes","sound","stimuli/sounds/motor_label_A.wav",""
"","","","","","audio-keyboard-response","304","2.0.0","408280","p2h35xrhv75","ono","pony","21","female","no","no","0","0","null","stimuli/sounds/buzz.wav","null","","","","","","",""
"","","","","","html-keyboard-response","305","2.0.0","409438","p2h35xrhv75","ono","pony","21","female","no","no","0","0","1056","<div style=""font-size:30px;"">Press space to start the trial</div>"," ","","","","","","",""
"","","","","","html-keyboard-response","306","2.0.0","409689","p2h35xrhv75","ono","pony","21","female","no","no","0","0","null","<div style=""font-size:60px;"">+</div>","null","","","","","","",""
"","","","","","audio-keyboard-response","307","2.0.0","410227","p2h35xrhv75","ono","pony","21","female","no","no","0","0","null","stimuli/sounds/hiccup_label_A.wav","null","","","","","","",""
"","","","","","html-keyboard-response","308","2.0.0","411229","p2h35xrhv75","ono","pony","21","female","no","no","0","0","null","","null","","","","","","",""
"","","","","","image-keyboard-response","309","2.0.0","411448","p2h35xrhv75","ono","pony","21","female","no","no","0","0","218","stimuli/pictures/cough_man_1.jpg","0","0","","true","no","sound","stimuli/sounds/hiccup_label_A.wav",""
"","","","","","audio-keyboard-response","310","2.0.0","412450","p2h35xrhv75","ono","pony","21","female","no","no","0","0","null","stimuli/sounds/bleep.wav","null","","","","","","",""
"","","","","","html-keyboard-response","311","2.0.0","413021","p2h35xrhv75","ono","pony","21","female","no","no","0","0","469","<div style=""font-size:30px;"">Press space to start the trial</div>"," ","","","","","","",""
"","","","","","html-keyboard-response","312","2.0.0","413273","p2h35xrhv75","ono","pony","21","female","no","no","0","0","null","<div style=""font-size:60px;"">+</div>","null","","","","","","",""
"","","","","","audio-keyboard-response","313","2.0.0","413881","p2h35xrhv75","ono","pony","21","female","no","no","0","0","null","stimuli/sounds/cough_label_B.wav","null","","","","","","",""
"","","","","","html-keyboard-response","314","2.0.0","414882","p2h35xrhv75","ono","pony","21","female","no","no","0","0","null","","null","","","","","","",""
"","","","","","image-keyboard-response","315","2.0.0","415400","p2h35xrhv75","ono","pony","21","female","no","no","0","0","516","stimuli/pictures/cough_wom_1.jpg","0","1","","false","yes","sound","stimuli/sounds/cough_label_B.wav",""
"","","","","","audio-keyboard-response","316","2.0.0","416401","p2h35xrhv75","ono","pony","21","female","no","no","0","0","null","stimuli/sounds/buzz.wav","null","","","","","","",""
"","","","","","html-keyboard-response","317","2.0.0","417326","p2h35xrhv75","ono","pony","21","female","no","no","0","0","824","<div style=""font-size:30px;"">Press space to start the trial</div>"," ","","","","","","",""
"","","","","","html-keyboard-response","318","2.0.0","417578","p2h35xrhv75","ono","pony","21","female","no","no","0","0","null","<div style=""font-size:60px;"">+</div>","null","","","","","","",""
"","","","","","audio-keyboard-response","319","2.0.0","418187","p2h35xrhv75","ono","pony","21","female","no","no","0","0","null","stimuli/sounds/drop_label_B.wav","null","","","","","","",""
"","","","","","html-keyboard-response","320","2.0.0","419189","p2h35xrhv75","ono","pony","21","female","no","no","0","0","null","","null","","","","","","",""
"","","","","","image-keyboard-response","321","2.0.0","421537","p2h35xrhv75","ono","pony","21","female","no","no","0","0","2346","stimuli/pictures/motor_dirt_2.jpg","0","0","","true","no","sound","stimuli/sounds/drop_label_B.wav",""
"","","","","","audio-keyboard-response","322","2.0.0","422538","p2h35xrhv75","ono","pony","21","female","no","no","0","0","null","stimuli/sounds/bleep.wav","null","","","","","","",""
"","","","","","html-keyboard-response","323","2.0.0","427082","p2h35xrhv75","ono","pony","21","female","no","no","0","0","4444","<div style=""font-size:30px;"">Press space to start the trial</div>"," ","","","","","","",""
"","","","","","html-keyboard-response","324","2.0.0","427334","p2h35xrhv75","ono","pony","21","female","no","no","0","0","null","<div style=""font-size:60px;"">+</div>","null","","","","","","",""
"","","","","","audio-keyboard-response","325","2.0.0","427934","p2h35xrhv75","ono","pony","21","female","no","no","0","0","null","stimuli/sounds/motor_sound_A.wav","null","","","","","","",""
"","","","","","html-keyboard-response","326","2.0.0","428935","p2h35xrhv75","ono","pony","21","female","no","no","0","0","null","","null","","","","","","",""
"","","","","","image-keyboard-response","327","2.0.0","429344","p2h35xrhv75","ono","pony","21","female","no","no","0","0","408","stimuli/pictures/motor_dirt_1.jpg","1","1","","true","yes","sound","stimuli/sounds/motor_sound_A.wav",""
"","","","","","audio-keyboard-response","328","2.0.0","430346","p2h35xrhv75","ono","pony","21","female","no","no","0","0","null","stimuli/sounds/bleep.wav","null","","","","","","",""
"","","","","","html-keyboard-response","329","2.0.0","435857","p2h35xrhv75","ono","pony","21","female","no","no","0","0","5411","<div style=""font-size:30px;"">Press space to start the trial</div>"," ","","","","","","",""
"","","","","","html-keyboard-response","330","2.0.0","436108","p2h35xrhv75","ono","pony","21","female","no","no","0","0","null","<div style=""font-size:60px;"">+</div>","null","","","","","","",""
"","","","","","audio-keyboard-response","331","2.0.0","436711","p2h35xrhv75","ono","pony","21","female","no","no","0","0","null","stimuli/sounds/dog_sound_B.wav","null","","","","","","",""
"","","","","","html-keyboard-response","332","2.0.0","437711","p2h35xrhv75","ono","pony","21","female","no","no","0","0","null","","null","","","","","","",""
"","","","","","image-keyboard-response","333","2.0.0","438201","p2h35xrhv75","ono","pony","21","female","no","no","0","0","489","stimuli/pictures/dog_york_2.jpg","1","1","","true","yes","sound","stimuli/sounds/dog_sound_B.wav",""
"","","","","","audio-keyboard-response","334","2.0.0","439203","p2h35xrhv75","ono","pony","21","female","no","no","0","0","null","stimuli/sounds/bleep.wav","null","","","","","","",""
"","","","","","html-keyboard-response","335","2.0.0","442240","p2h35xrhv75","ono","pony","21","female","no","no","0","0","2935","<div style=""font-size:30px;"">Press space to start the trial</div>"," ","","","","","","",""
"","","","","","html-keyboard-response","336","2.0.0","442492","p2h35xrhv75","ono","pony","21","female","no","no","0","0","null","<div style=""font-size:60px;"">+</div>","null","","","","","","",""
"","","","","","audio-keyboard-response","337","2.0.0","443100","p2h35xrhv75","ono","pony","21","female","no","no","0","0","null","stimuli/sounds/cough_label_B.wav","null","","","","","","",""
"","","","","","html-keyboard-response","338","2.0.0","444102","p2h35xrhv75","ono","pony","21","female","no","no","0","0","null","","null","","","","","","",""
"","","","","","image-keyboard-response","339","2.0.0","445005","p2h35xrhv75","ono","pony","21","female","no","no","0","0","899","stimuli/pictures/drop_single_2.jpg","0","0","","true","no","sound","stimuli/sounds/cough_label_B.wav",""
"","","","","","audio-keyboard-response","340","2.0.0","446006","p2h35xrhv75","ono","pony","21","female","no","no","0","0","null","stimuli/sounds/bleep.wav","null","","","","","","",""
"","","","","","html-keyboard-response","341","2.0.0","447405","p2h35xrhv75","ono","pony","21","female","no","no","0","0","1296","<div style=""font-size:30px;"">Press space to start the trial</div>"," ","","","","","","",""
"","","","","","html-keyboard-response","342","2.0.0","447656","p2h35xrhv75","ono","pony","21","female","no","no","0","0","null","<div style=""font-size:60px;"">+</div>","null","","","","","","",""
"","","","","","audio-keyboard-response","343","2.0.0","448263","p2h35xrhv75","ono","pony","21","female","no","no","0","0","null","stimuli/sounds/cough_label_B.wav","null","","","","","","",""
"","","","","","html-keyboard-response","344","2.0.0","449264","p2h35xrhv75","ono","pony","21","female","no","no","0","0","null","","null","","","","","","",""
"","","","","","image-keyboard-response","345","2.0.0","452199","p2h35xrhv75","ono","pony","21","female","no","no","0","0","2932","stimuli/pictures/cough_man_2.jpg","1","1","","true","yes","sound","stimuli/sounds/cough_label_B.wav",""
"","","","","","audio-keyboard-response","346","2.0.0","453200","p2h35xrhv75","ono","pony","21","female","no","no","0","0","null","stimuli/sounds/bleep.wav","null","","","","","","",""
"","","","","","html-keyboard-response","347","2.0.0","453876","p2h35xrhv75","ono","pony","21","female","no","no","0","0","574","<div style=""font-size:30px;"">Press space to start the trial</div>"," ","","","","","","",""
"","","","","","html-keyboard-response","348","2.0.0","454127","p2h35xrhv75","ono","pony","21","female","no","no","0","0","null","<div style=""font-size:60px;"">+</div>","null","","","","","","",""
"","","","","","audio-keyboard-response","349","2.0.0","454791","p2h35xrhv75","ono","pony","21","female","no","no","0","0","null","stimuli/sounds/cough_sound_A.wav","null","","","","","","",""
"","","","","","html-keyboard-response","350","2.0.0","455792","p2h35xrhv75","ono","pony","21","female","no","no","0","0","null","","null","","","","","","",""
"","","","","","image-keyboard-response","351","2.0.0","456954","p2h35xrhv75","ono","pony","21","female","no","no","0","0","1161","stimuli/pictures/cough_wom_2.jpg","1","1","","true","yes","sound","stimuli/sounds/cough_sound_A.wav",""
"","","","","","audio-keyboard-response","352","2.0.0","457956","p2h35xrhv75","ono","pony","21","female","no","no","0","0","null","stimuli/sounds/bleep.wav","null","","","","","","",""
"","","","","","html-keyboard-response","353","2.0.0","459861","p2h35xrhv75","ono","pony","21","female","no","no","0","0","1803","<div style=""font-size:30px;"">Press space to start the trial</div>"," ","","","","","","",""
"","","","","","html-keyboard-response","354","2.0.0","460113","p2h35xrhv75","ono","pony","21","female","no","no","0","0","null","<div style=""font-size:60px;"">+</div>","null","","","","","","",""
"","","","","","audio-keyboard-response","355","2.0.0","460713","p2h35xrhv75","ono","pony","21","female","no","no","0","0","null","stimuli/sounds/dog_label_B.wav","null","","","","","","",""
"","","","","","html-keyboard-response","356","2.0.0","461714","p2h35xrhv75","ono","pony","21","female","no","no","0","0","null","","null","","","","","","",""
"","","","","","image-keyboard-response","357","2.0.0","462030","p2h35xrhv75","ono","pony","21","female","no","no","0","0","316","stimuli/pictures/cough_man_1.jpg","0","0","","true","no","sound","stimuli/sounds/dog_label_B.wav",""
"","","","","","audio-keyboard-response","358","2.0.0","463032","p2h35xrhv75","ono","pony","21","female","no","no","0","0","null","stimuli/sounds/bleep.wav","null","","","","","","",""
"","","","","","html-keyboard-response","359","2.0.0","464016","p2h35xrhv75","ono","pony","21","female","no","no","0","0","882","<div style=""font-size:30px;"">Press space to start the trial</div>"," ","","","","","","",""
"","","","","","html-keyboard-response","360","2.0.0","464267","p2h35xrhv75","ono","pony","21","female","no","no","0","0","null","<div style=""font-size:60px;"">+</div>","null","","","","","","",""
"","","","","","audio-keyboard-response","361","2.0.0","464868","p2h35xrhv75","ono","pony","21","female","no","no","0","0","null","stimuli/sounds/hiccup_sound_B.wav","null","","","","","","",""
"","","","","","html-keyboard-response","362","2.0.0","465870","p2h35xrhv75","ono","pony","21","female","no","no","0","0","null","","null","","","","","","",""
"","","","","","image-keyboard-response","363","2.0.0","466204","p2h35xrhv75","ono","pony","21","female","no","no","0","0","333","stimuli/pictures/drop_multi_1.jpg","0","0","","true","no","sound","stimuli/sounds/hiccup_sound_B.wav",""
"","","","","","audio-keyboard-response","364","2.0.0","467206","p2h35xrhv75","ono","pony","21","female","no","no","0","0","null","stimuli/sounds/bleep.wav","null","","","","","","",""
"","","","","","html-keyboard-response","365","2.0.0","472249","p2h35xrhv75","ono","pony","21","female","no","no","0","0","4942","<div style=""font-size:30px;"">Press space to start the trial</div>"," ","","","","","","",""
"","","","","","html-keyboard-response","366","2.0.0","472500","p2h35xrhv75","ono","pony","21","female","no","no","0","0","null","<div style=""font-size:60px;"">+</div>","null","","","","","","",""
"","","","","","audio-keyboard-response","367","2.0.0","473101","p2h35xrhv75","ono","pony","21","female","no","no","0","0","null","stimuli/sounds/dog_label_A.wav","null","","","","","","",""
"","","","","","html-keyboard-response","368","2.0.0","474102","p2h35xrhv75","ono","pony","21","female","no","no","0","0","null","","null","","","","","","",""
"","","","","","image-keyboard-response","369","2.0.0","475474","p2h35xrhv75","ono","pony","21","female","no","no","0","0","1372","stimuli/pictures/drop_multi_1.jpg","0","0","","true","no","sound","stimuli/sounds/dog_label_A.wav",""
"","","","","","audio-keyboard-response","370","2.0.0","476476","p2h35xrhv75","ono","pony","21","female","no","no","0","0","null","stimuli/sounds/bleep.wav","null","","","","","","",""
"","","","","","html-keyboard-response","371","2.0.0","477106","p2h35xrhv75","ono","pony","21","female","no","no","0","0","529","<div style=""font-size:30px;"">Press space to start the trial</div>"," ","","","","","","",""
"","","","","","html-keyboard-response","372","2.0.0","477358","p2h35xrhv75","ono","pony","21","female","no","no","0","0","null","<div style=""font-size:60px;"">+</div>","null","","","","","","",""
"","","","","","audio-keyboard-response","373","2.0.0","477957","p2h35xrhv75","ono","pony","21","female","no","no","0","0","null","stimuli/sounds/motor_sound_A.wav","null","","","","","","",""
"","","","","","html-keyboard-response","374","2.0.0","478958","p2h35xrhv75","ono","pony","21","female","no","no","0","0","null","","null","","","","","","",""
"","","","","","image-keyboard-response","375","2.0.0","479272","p2h35xrhv75","ono","pony","21","female","no","no","0","0","313","stimuli/pictures/drop_single_2.jpg","0","0","","true","no","sound","stimuli/sounds/motor_sound_A.wav",""
"","","","","","audio-keyboard-response","376","2.0.0","480274","p2h35xrhv75","ono","pony","21","female","no","no","0","0","null","stimuli/sounds/bleep.wav","null","","","","","","",""
"","","","","","html-keyboard-response","377","2.0.0","481250","p2h35xrhv75","ono","pony","21","female","no","no","0","0","875","<div style=""font-size:30px;"">Press space to start the trial</div>"," ","","","","","","",""
"","","","","","html-keyboard-response","378","2.0.0","481502","p2h35xrhv75","ono","pony","21","female","no","no","0","0","null","<div style=""font-size:60px;"">+</div>","null","","","","","","",""
"","","","","","audio-keyboard-response","379","2.0.0","482103","p2h35xrhv75","ono","pony","21","female","no","no","0","0","null","stimuli/sounds/hiccup_sound_B.wav","null","","","","","","",""
"","","","","","html-keyboard-response","380","2.0.0","483105","p2h35xrhv75","ono","pony","21","female","no","no","0","0","null","","null","","","","","","",""
"","","","","","image-keyboard-response","381","2.0.0","484124","p2h35xrhv75","ono","pony","21","female","no","no","0","0","1018","stimuli/pictures/drop_single_2.jpg","0","0","","true","no","sound","stimuli/sounds/hiccup_sound_B.wav",""
"","","","","","audio-keyboard-response","382","2.0.0","485124","p2h35xrhv75","ono","pony","21","female","no","no","0","0","null","stimuli/sounds/bleep.wav","null","","","","","","",""
"","","","","","html-keyboard-response","383","2.0.0","485742","p2h35xrhv75","ono","pony","21","female","no","no","0","0","518","<div style=""font-size:30px;"">Press space to start the trial</div>"," ","","","","","","",""
"","","","","","html-keyboard-response","384","2.0.0","485992","p2h35xrhv75","ono","pony","21","female","no","no","0","0","null","<div style=""font-size:60px;"">+</div>","null","","","","","","",""
"","","","","","audio-keyboard-response","385","2.0.0","486593","p2h35xrhv75","ono","pony","21","female","no","no","0","0","null","stimuli/sounds/dog_sound_A.wav","null","","","","","","",""
"","","","","","html-keyboard-response","386","2.0.0","487591","p2h35xrhv75","ono","pony","21","female","no","no","0","0","null","","null","","","","","","",""
"","","","","","image-keyboard-response","387","2.0.0","488226","p2h35xrhv75","ono","pony","21","female","no","no","0","0","635","stimuli/pictures/dog_rott_1.jpg","1","1","","true","yes","sound","stimuli/sounds/dog_sound_A.wav",""
"","","","","","audio-keyboard-response","388","2.0.0","489226","p2h35xrhv75","ono","pony","21","female","no","no","0","0","null","stimuli/sounds/bleep.wav","null","","","","","","",""
"","","","","","html-keyboard-response","389","2.0.0","491253","p2h35xrhv75","ono","pony","21","female","no","no","0","0","1929","<p>You have completed a block. Press R when you are ready to continue</p>","r","","","","","","",""
"","","","","","html-keyboard-response","390","2.0.0","492079","p2h35xrhv75","ono","pony","21","female","no","no","0","0","826","<div style=""font-size:30px;"">Press space to start the trial</div>"," ","","","","","","",""
"","","","","","html-keyboard-response","391","2.0.0","492329","p2h35xrhv75","ono","pony","21","female","no","no","0","0","null","<div style=""font-size:60px;"">+</div>","null","","","","","","",""
"","","","","","audio-keyboard-response","392","2.0.0","492877","p2h35xrhv75","ono","pony","21","female","no","no","0","0","null","stimuli/sounds/drop_label_A.wav","null","","","","","","",""
"","","","","","html-keyboard-response","393","2.0.0","493877","p2h35xrhv75","ono","pony","21","female","no","no","0","0","null","","null","","","","","","",""
"","","","","","image-keyboard-response","394","2.0.0","494353","p2h35xrhv75","ono","pony","21","female","no","no","0","0","476","stimuli/pictures/hiccup_man_2.jpg","0","0","","true","no","sound","stimuli/sounds/drop_label_A.wav",""
"","","","","","audio-keyboard-response","395","2.0.0","495353","p2h35xrhv75","ono","pony","21","female","no","no","0","0","null","stimuli/sounds/bleep.wav","null","","","","","","",""
"","","","","","html-keyboard-response","396","2.0.0","496034","p2h35xrhv75","ono","pony","21","female","no","no","0","0","579","<div style=""font-size:30px;"">Press space to start the trial</div>"," ","","","","","","",""
"","","","","","html-keyboard-response","397","2.0.0","496284","p2h35xrhv75","ono","pony","21","female","no","no","0","0","null","<div style=""font-size:60px;"">+</div>","null","","","","","","",""
"","","","","","audio-keyboard-response","398","2.0.0","496915","p2h35xrhv75","ono","pony","21","female","no","no","0","0","null","stimuli/sounds/cough_label_A.wav","null","","","","","","",""
"","","","","","html-keyboard-response","399","2.0.0","497915","p2h35xrhv75","ono","pony","21","female","no","no","0","0","null","","null","","","","","","",""
"","","","","","image-keyboard-response","400","2.0.0","498355","p2h35xrhv75","ono","pony","21","female","no","no","0","0","440","stimuli/pictures/cough_man_2.jpg","1","1","","true","yes","sound","stimuli/sounds/cough_label_A.wav",""
"","","","","","audio-keyboard-response","401","2.0.0","499355","p2h35xrhv75","ono","pony","21","female","no","no","0","0","null","stimuli/sounds/bleep.wav","null","","","","","","",""
"","","","","","html-keyboard-response","402","2.0.0","500222","p2h35xrhv75","ono","pony","21","female","no","no","0","0","766","<div style=""font-size:30px;"">Press space to start the trial</div>"," ","","","","","","",""
"","","","","","html-keyboard-response","403","2.0.0","500473","p2h35xrhv75","ono","pony","21","female","no","no","0","0","null","<div style=""font-size:60px;"">+</div>","null","","","","","","",""
"","","","","","audio-keyboard-response","404","2.0.0","501074","p2h35xrhv75","ono","pony","21","female","no","no","0","0","null","stimuli/sounds/dog_sound_A.wav","null","","","","","","",""
"","","","","","html-keyboard-response","405","2.0.0","502075","p2h35xrhv75","ono","pony","21","female","no","no","0","0","null","","null","","","","","","",""
"","","","","","image-keyboard-response","406","2.0.0","502730","p2h35xrhv75","ono","pony","21","female","no","no","0","0","654","stimuli/pictures/hiccup_wom_1.jpg","0","0","","true","no","sound","stimuli/sounds/dog_sound_A.wav",""
"","","","","","audio-keyboard-response","407","2.0.0","503731","p2h35xrhv75","ono","pony","21","female","no","no","0","0","null","stimuli/sounds/bleep.wav","null","","","","","","",""
"","","","","","html-keyboard-response","408","2.0.0","504688","p2h35xrhv75","ono","pony","21","female","no","no","0","0","856","<div style=""font-size:30px;"">Press space to start the trial</div>"," ","","","","","","",""
"","","","","","html-keyboard-response","409","2.0.0","504939","p2h35xrhv75","ono","pony","21","female","no","no","0","0","null","<div style=""font-size:60px;"">+</div>","null","","","","","","",""
"","","","","","audio-keyboard-response","410","2.0.0","505538","p2h35xrhv75","ono","pony","21","female","no","no","0","0","null","stimuli/sounds/motor_label_A.wav","null","","","","","","",""
"","","","","","html-keyboard-response","411","2.0.0","506538","p2h35xrhv75","ono","pony","21","female","no","no","0","0","null","","null","","","","","","",""
"","","","","","image-keyboard-response","412","2.0.0","507663","p2h35xrhv75","ono","pony","21","female","no","no","0","0","1125","stimuli/pictures/dog_york_2.jpg","0","0","","true","no","sound","stimuli/sounds/motor_label_A.wav",""
"","","","","","audio-keyboard-response","413","2.0.0","508664","p2h35xrhv75","ono","pony","21","female","no","no","0","0","null","stimuli/sounds/bleep.wav","null","","","","","","",""
"","","","","","html-keyboard-response","414","2.0.0","509486","p2h35xrhv75","ono","pony","21","female","no","no","0","0","721","<div style=""font-size:30px;"">Press space to start the trial</div>"," ","","","","","","",""
"","","","","","html-keyboard-response","415","2.0.0","509737","p2h35xrhv75","ono","pony","21","female","no","no","0","0","null","<div style=""font-size:60px;"">+</div>","null","","","","","","",""
"","","","","","audio-keyboard-response","416","2.0.0","510277","p2h35xrhv75","ono","pony","21","female","no","no","0","0","null","stimuli/sounds/hiccup_label_A.wav","null","","","","","","",""
"","","","","","html-keyboard-response","417","2.0.0","511278","p2h35xrhv75","ono","pony","21","female","no","no","0","0","null","","null","","","","","","",""
"","","","","","image-keyboard-response","418","2.0.0","512083","p2h35xrhv75","ono","pony","21","female","no","no","0","0","803","stimuli/pictures/cough_wom_1.jpg","1","0","","false","no","sound","stimuli/sounds/hiccup_label_A.wav",""
"","","","","","audio-keyboard-response","419","2.0.0","513084","p2h35xrhv75","ono","pony","21","female","no","no","0","0","null","stimuli/sounds/buzz.wav","null","","","","","","",""
"","","","","","html-keyboard-response","420","2.0.0","513840","p2h35xrhv75","ono","pony","21","female","no","no","0","0","656","<div style=""font-size:30px;"">Press space to start the trial</div>"," ","","","","","","",""
"","","","","","html-keyboard-response","421","2.0.0","514092","p2h35xrhv75","ono","pony","21","female","no","no","0","0","null","<div style=""font-size:60px;"">+</div>","null","","","","","","",""
"","","","","","audio-keyboard-response","422","2.0.0","514692","p2h35xrhv75","ono","pony","21","female","no","no","0","0","null","stimuli/sounds/dog_label_A.wav","null","","","","","","",""
"","","","","","html-keyboard-response","423","2.0.0","515693","p2h35xrhv75","ono","pony","21","female","no","no","0","0","null","","null","","","","","","",""
"","","","","","image-keyboard-response","424","2.0.0","516872","p2h35xrhv75","ono","pony","21","female","no","no","0","0","1179","stimuli/pictures/dog_rott_2.jpg","1","1","","true","yes","sound","stimuli/sounds/dog_label_A.wav",""
"","","","","","audio-keyboard-response","425","2.0.0","517874","p2h35xrhv75","ono","pony","21","female","no","no","0","0","null","stimuli/sounds/bleep.wav","null","","","","","","",""
"","","","","","html-keyboard-response","426","2.0.0","522343","p2h35xrhv75","ono","pony","21","female","no","no","0","0","4369","<div style=""font-size:30px;"">Press space to start the trial</div>"," ","","","","","","",""
"","","","","","html-keyboard-response","427","2.0.0","522594","p2h35xrhv75","ono","pony","21","female","no","no","0","0","null","<div style=""font-size:60px;"">+</div>","null","","","","","","",""
"","","","","","audio-keyboard-response","428","2.0.0","523194","p2h35xrhv75","ono","pony","21","female","no","no","0","0","null","stimuli/sounds/dog_label_B.wav","null","","","","","","",""
"","","","","","html-keyboard-response","429","2.0.0","524195","p2h35xrhv75","ono","pony","21","female","no","no","0","0","null","","null","","","","","","",""
"","","","","","image-keyboard-response","430","2.0.0","524695","p2h35xrhv75","ono","pony","21","female","no","no","0","0","499","stimuli/pictures/cough_wom_1.jpg","0","0","","true","no","sound","stimuli/sounds/dog_label_B.wav",""
"","","","","","audio-keyboard-response","431","2.0.0","525696","p2h35xrhv75","ono","pony","21","female","no","no","0","0","null","stimuli/sounds/bleep.wav","null","","","","","","",""
"","","","","","html-keyboard-response","432","2.0.0","527126","p2h35xrhv75","ono","pony","21","female","no","no","0","0","1329","<div style=""font-size:30px;"">Press space to start the trial</div>"," ","","","","","","",""
"","","","","","html-keyboard-response","433","2.0.0","527377","p2h35xrhv75","ono","pony","21","female","no","no","0","0","null","<div style=""font-size:60px;"">+</div>","null","","","","","","",""
"","","","","","audio-keyboard-response","434","2.0.0","527916","p2h35xrhv75","ono","pony","21","female","no","no","0","0","null","stimuli/sounds/hiccup_label_A.wav","null","","","","","","",""
"","","","","","html-keyboard-response","435","2.0.0","528917","p2h35xrhv75","ono","pony","21","female","no","no","0","0","null","","null","","","","","","",""
"","","","","","image-keyboard-response","436","2.0.0","529913","p2h35xrhv75","ono","pony","21","female","no","no","0","0","995","stimuli/pictures/hiccup_wom_2.jpg","1","1","","true","yes","sound","stimuli/sounds/hiccup_label_A.wav",""
"","","","","","audio-keyboard-response","437","2.0.0","530915","p2h35xrhv75","ono","pony","21","female","no","no","0","0","null","stimuli/sounds/bleep.wav","null","","","","","","",""
"","","","","","html-keyboard-response","438","2.0.0","531600","p2h35xrhv75","ono","pony","21","female","no","no","0","0","584","<div style=""font-size:30px;"">Press space to start the trial</div>"," ","","","","","","",""
"","","","","","html-keyboard-response","439","2.0.0","531851","p2h35xrhv75","ono","pony","21","female","no","no","0","0","null","<div style=""font-size:60px;"">+</div>","null","","","","","","",""
"","","","","","audio-keyboard-response","440","2.0.0","532460","p2h35xrhv75","ono","pony","21","female","no","no","0","0","null","stimuli/sounds/drop_label_B.wav","null","","","","","","",""
"","","","","","html-keyboard-response","441","2.0.0","533461","p2h35xrhv75","ono","pony","21","female","no","no","0","0","null","","null","","","","","","",""
"","","","","","image-keyboard-response","442","2.0.0","534550","p2h35xrhv75","ono","pony","21","female","no","no","0","0","1088","stimuli/pictures/motor_harley_2.jpg","0","0","","true","no","sound","stimuli/sounds/drop_label_B.wav",""
"","","","","","audio-keyboard-response","443","2.0.0","535552","p2h35xrhv75","ono","pony","21","female","no","no","0","0","null","stimuli/sounds/bleep.wav","null","","","","","","",""
"","","","","","html-keyboard-response","444","2.0.0","536574","p2h35xrhv75","ono","pony","21","female","no","no","0","0","921","<div style=""font-size:30px;"">Press space to start the trial</div>"," ","","","","","","",""
"","","","","","html-keyboard-response","445","2.0.0","536825","p2h35xrhv75","ono","pony","21","female","no","no","0","0","null","<div style=""font-size:60px;"">+</div>","null","","","","","","",""
"","","","","","audio-keyboard-response","446","2.0.0","537505","p2h35xrhv75","ono","pony","21","female","no","no","0","0","null","stimuli/sounds/cough_sound_B.wav","null","","","","","","",""
"","","","","","html-keyboard-response","447","2.0.0","538506","p2h35xrhv75","ono","pony","21","female","no","no","0","0","null","","null","","","","","","",""
"","","","","","image-keyboard-response","448","2.0.0","538990","p2h35xrhv75","ono","pony","21","female","no","no","0","0","483","stimuli/pictures/cough_wom_2.jpg","1","1","","true","no","sound","stimuli/sounds/cough_sound_B.wav",""
"","","","","","audio-keyboard-response","449","2.0.0","539991","p2h35xrhv75","ono","pony","21","female","no","no","0","0","null","stimuli/sounds/bleep.wav","null","","","","","","",""
"","","","","","html-keyboard-response","450","2.0.0","540869","p2h35xrhv75","ono","pony","21","female","no","no","0","0","777","<div style=""font-size:30px;"">Press space to start the trial</div>"," ","","","","","","",""
"","","","","","html-keyboard-response","451","2.0.0","541120","p2h35xrhv75","ono","pony","21","female","no","no","0","0","null","<div style=""font-size:60px;"">+</div>","null","","","","","","",""
"","","","","","audio-keyboard-response","452","2.0.0","541726","p2h35xrhv75","ono","pony","21","female","no","no","0","0","null","stimuli/sounds/hiccup_sound_A.wav","null","","","","","","",""
"","","","","","html-keyboard-response","453","2.0.0","542726","p2h35xrhv75","ono","pony","21","female","no","no","0","0","null","","null","","","","","","",""
"","","","","","image-keyboard-response","454","2.0.0","543933","p2h35xrhv75","ono","pony","21","female","no","no","0","0","1205","stimuli/pictures/hiccup_man_1.jpg","1","1","","true","no","sound","stimuli/sounds/hiccup_sound_A.wav",""
"","","","","","audio-keyboard-response","455","2.0.0","544933","p2h35xrhv75","ono","pony","21","female","no","no","0","0","null","stimuli/sounds/bleep.wav","null","","","","","","",""
"","","","","","html-keyboard-response","456","2.0.0","545877","p2h35xrhv75","ono","pony","21","female","no","no","0","0","841","<div style=""font-size:30px;"">Press space to start the trial</div>"," ","","","","","","",""
"","","","","","html-keyboard-response","457","2.0.0","546128","p2h35xrhv75","ono","pony","21","female","no","no","0","0","null","<div style=""font-size:60px;"">+</div>","null","","","","","","",""
"","","","","","audio-keyboard-response","458","2.0.0","546731","p2h35xrhv75","ono","pony","21","female","no","no","0","0","null","stimuli/sounds/dog_sound_A.wav","null","","","","","","",""
"","","","","","html-keyboard-response","459","2.0.0","547731","p2h35xrhv75","ono","pony","21","female","no","no","0","0","null","","null","","","","","","",""
"","","","","","image-keyboard-response","460","2.0.0","548135","p2h35xrhv75","ono","pony","21","female","no","no","0","0","403","stimuli/pictures/dog_rott_2.jpg","1","1","","true","yes","sound","stimuli/sounds/dog_sound_A.wav",""
"","","","","","audio-keyboard-response","461","2.0.0","549136","p2h35xrhv75","ono","pony","21","female","no","no","0","0","null","stimuli/sounds/bleep.wav","null","","","","","","",""
"","","","","","html-keyboard-response","462","2.0.0","549758","p2h35xrhv75","ono","pony","21","female","no","no","0","0","520","<div style=""font-size:30px;"">Press space to start the trial</div>"," ","","","","","","",""
"","","","","","html-keyboard-response","463","2.0.0","550009","p2h35xrhv75","ono","pony","21","female","no","no","0","0","null","<div style=""font-size:60px;"">+</div>","null","","","","","","",""
"","","","","","audio-keyboard-response","464","2.0.0","550557","p2h35xrhv75","ono","pony","21","female","no","no","0","0","null","stimuli/sounds/drop_label_A.wav","null","","","","","","",""
"","","","","","html-keyboard-response","465","2.0.0","551558","p2h35xrhv75","ono","pony","21","female","no","no","0","0","null","","null","","","","","","",""
"","","","","","image-keyboard-response","466","2.0.0","552766","p2h35xrhv75","ono","pony","21","female","no","no","0","0","1208","stimuli/pictures/hiccup_wom_2.jpg","0","0","","true","no","sound","stimuli/sounds/drop_label_A.wav",""
"","","","","","audio-keyboard-response","467","2.0.0","553768","p2h35xrhv75","ono","pony","21","female","no","no","0","0","null","stimuli/sounds/bleep.wav","null","","","","","","",""
"","","","","","html-keyboard-response","468","2.0.0","556253","p2h35xrhv75","ono","pony","21","female","no","no","0","0","2384","<div style=""font-size:30px;"">Press space to start the trial</div>"," ","","","","","","",""
"","","","","","html-keyboard-response","469","2.0.0","556504","p2h35xrhv75","ono","pony","21","female","no","no","0","0","null","<div style=""font-size:60px;"">+</div>","null","","","","","","",""
"","","","","","audio-keyboard-response","470","2.0.0","557110","p2h35xrhv75","ono","pony","21","female","no","no","0","0","null","stimuli/sounds/hiccup_sound_A.wav","null","","","","","","",""
"","","","","","html-keyboard-response","471","2.0.0","558111","p2h35xrhv75","ono","pony","21","female","no","no","0","0","null","","null","","","","","","",""
"","","","","","image-keyboard-response","472","2.0.0","559167","p2h35xrhv75","ono","pony","21","female","no","no","0","0","1055","stimuli/pictures/hiccup_wom_2.jpg","1","1","","true","yes","sound","stimuli/sounds/hiccup_sound_A.wav",""
"","","","","","audio-keyboard-response","473","2.0.0","560169","p2h35xrhv75","ono","pony","21","female","no","no","0","0","null","stimuli/sounds/bleep.wav","null","","","","","","",""
"","","","","","html-keyboard-response","474","2.0.0","563896","p2h35xrhv75","ono","pony","21","female","no","no","0","0","3625","<div style=""font-size:30px;"">Press space to start the trial</div>"," ","","","","","","",""
"","","","","","html-keyboard-response","475","2.0.0","564147","p2h35xrhv75","ono","pony","21","female","no","no","0","0","null","<div style=""font-size:60px;"">+</div>","null","","","","","","",""
"","","","","","audio-keyboard-response","476","2.0.0","564750","p2h35xrhv75","ono","pony","21","female","no","no","0","0","null","stimuli/sounds/hiccup_sound_B.wav","null","","","","","","",""
"","","","","","html-keyboard-response","477","2.0.0","565750","p2h35xrhv75","ono","pony","21","female","no","no","0","0","null","","null","","","","","","",""
"","","","","","image-keyboard-response","478","2.0.0","566740","p2h35xrhv75","ono","pony","21","female","no","no","0","0","989","stimuli/pictures/hiccup_man_1.jpg","0","1","","false","yes","sound","stimuli/sounds/hiccup_sound_B.wav",""
"","","","","","audio-keyboard-response","479","2.0.0","567742","p2h35xrhv75","ono","pony","21","female","no","no","0","0","null","stimuli/sounds/buzz.wav","null","","","","","","",""
"","","","","","html-keyboard-response","480","2.0.0","568373","p2h35xrhv75","ono","pony","21","female","no","no","0","0","530","<div style=""font-size:30px;"">Press space to start the trial</div>"," ","","","","","","",""
"","","","","","html-keyboard-response","481","2.0.0","568624","p2h35xrhv75","ono","pony","21","female","no","no","0","0","null","<div style=""font-size:60px;"">+</div>","null","","","","","","",""
"","","","","","audio-keyboard-response","482","2.0.0","569235","p2h35xrhv75","ono","pony","21","female","no","no","0","0","null","stimuli/sounds/drop_label_B.wav","null","","","","","","",""
"","","","","","html-keyboard-response","483","2.0.0","570235","p2h35xrhv75","ono","pony","21","female","no","no","0","0","null","","null","","","","","","",""
"","","","","","image-keyboard-response","484","2.0.0","571312","p2h35xrhv75","ono","pony","21","female","no","no","0","0","1076","stimuli/pictures/drop_single_1.jpg","0","1","","false","yes","sound","stimuli/sounds/drop_label_B.wav",""
"","","","","","audio-keyboard-response","485","2.0.0","572314","p2h35xrhv75","ono","pony","21","female","no","no","0","0","null","stimuli/sounds/buzz.wav","null","","","","","","",""
"","","","","","html-keyboard-response","486","2.0.0","574247","p2h35xrhv75","ono","pony","21","female","no","no","0","0","1832","<div style=""font-size:30px;"">Press space to start the trial</div>"," ","","","","","","",""
"","","","","","html-keyboard-response","487","2.0.0","574499","p2h35xrhv75","ono","pony","21","female","no","no","0","0","null","<div style=""font-size:60px;"">+</div>","null","","","","","","",""
"","","","","","audio-keyboard-response","488","2.0.0","575083","p2h35xrhv75","ono","pony","21","female","no","no","0","0","null","stimuli/sounds/drop_sound_A.wav","null","","","","","","",""
"","","","","","html-keyboard-response","489","2.0.0","576083","p2h35xrhv75","ono","pony","21","female","no","no","0","0","null","","null","","","","","","",""
"","","","","","image-keyboard-response","490","2.0.0","577619","p2h35xrhv75","ono","pony","21","female","no","no","0","0","1534","stimuli/pictures/cough_man_2.jpg","0","0","","true","no","sound","stimuli/sounds/drop_sound_A.wav",""
"","","","","","audio-keyboard-response","491","2.0.0","578620","p2h35xrhv75","ono","pony","21","female","no","no","0","0","null","stimuli/sounds/bleep.wav","null","","","","","","",""
"","","","","","html-keyboard-response","492","2.0.0","579512","p2h35xrhv75","ono","pony","21","female","no","no","0","0","790","<div style=""font-size:30px;"">Press space to start the trial</div>"," ","","","","","","",""
"","","","","","html-keyboard-response","493","2.0.0","579763","p2h35xrhv75","ono","pony","21","female","no","no","0","0","null","<div style=""font-size:60px;"">+</div>","null","","","","","","",""
"","","","","","audio-keyboard-response","494","2.0.0","580363","p2h35xrhv75","ono","pony","21","female","no","no","0","0","null","stimuli/sounds/dog_label_B.wav","null","","","","","","",""
"","","","","","html-keyboard-response","495","2.0.0","581364","p2h35xrhv75","ono","pony","21","female","no","no","0","0","null","","null","","","","","","",""
