"success","timeout","failed_images","failed_audio","failed_video","trial_type","trial_index","plugin_version","time_elapsed","random_id","condition","participant","age","gender_id","mus_exp","inst_exp","years_exp","mus_listening","rt","stimulus","response","correct_response","practice","correct","congruent","sound_type","audio","question_order"
"true","false","[]","[]","[]","preload","0","2.0.0","583","p3jrtd2k7rr","mus","penguin","19","female","yes","yes","12","2-3 hr","","","","","","","","","",""
"","","","","","html-keyboard-response","1","2.0.0","1702","p3jrtd2k7rr","mus","penguin","19","female","yes","yes","12","2-3 hr","1118","Welcome to the experiment! Press any key to begin."," ","","","","","","",""
"true","","","","","fullscreen","2","null","3847","p3jrtd2k7rr","mus","penguin","19","female","yes","yes","12","2-3 hr","1143","","","","","","","","",""
"","","","","","survey-text","3","2.0.0","10191","p3jrtd2k7rr","mus","penguin","19","female","yes","yes","12","2-3 hr","6341","","{""participant_id"":""penguin""}","","","","","","",""
"","","","","","html-keyboard-response","4","2.0.0","32196","p3jrtd2k7rr","mus","penguin","19","female","yes","yes","12","2-3 hr","21998","
    <p> Please use headphones for the duration of the study.</p>
    <p> Within each trial, you will hear a sound and then be presented with an image in the center of your screen.</p>
    <p>Press the <b>'1'</b> key if what you hear <u>matches</u> what you see.</p>
    <p>Press the <b>'0'</b> key if what you hear <u>does not match</u> what you see.</p>
    <p>Try to respond as quickly and accurately as you can.</p>
    <p> Press any key to begin.</p>
    ","1","","","","","","",""
"","","","","","html-keyboard-response","5","2.0.0","36044","p3jrtd2k7rr","mus","penguin","19","female","yes","yes","12","2-3 hr","3846","
    <div style=""font-size:28px;"">
      <p>You will now complete 4 short practice trials.</p>
      <p>This is just to help you get familiar with the task.</p>
      <p>Press any key to begin.</p>
    </div>
  ","1","","","","","","",""
"","","","","","html-keyboard-response","6","2.0.0","36546","p3jrtd2k7rr","mus","penguin","19","female","yes","yes","12","2-3 hr","null","<div style=""font-size:60px;"">+</div>","null","","","","","","",""
"","","","","","audio-keyboard-response","7","2.0.0","37159","p3jrtd2k7rr","mus","penguin","19","female","yes","yes","12","2-3 hr","null","stimuli/sounds/guitar_label_A.wav","null","","","","","","",""
"","","","","","image-keyboard-response","8","2.0.0","37665","p3jrtd2k7rr","mus","penguin","19","female","yes","yes","12","2-3 hr","503","stimuli/pictures/guitar_acoustic_1.jpg","1","1","true","true","","","",""
"","","","","","audio-keyboard-response","9","2.0.0","38469","p3jrtd2k7rr","mus","penguin","19","female","yes","yes","12","2-3 hr","null","stimuli/sounds/bleep.wav","null","","","","","","",""
"","","","","","html-keyboard-response","10","2.0.0","39173","p3jrtd2k7rr","mus","penguin","19","female","yes","yes","12","2-3 hr","null","<p style='color:green; font-size:30px;'>Correct!</p>","null","","","","","","",""
"","","","","","html-keyboard-response","11","2.0.0","39676","p3jrtd2k7rr","mus","penguin","19","female","yes","yes","12","2-3 hr","null","<div style=""font-size:60px;"">+</div>","null","","","","","","",""
"","","","","","audio-keyboard-response","12","2.0.0","40279","p3jrtd2k7rr","mus","penguin","19","female","yes","yes","12","2-3 hr","null","stimuli/sounds/guitar_sound_B.wav","null","","","","","","",""
"","","","","","image-keyboard-response","13","2.0.0","40869","p3jrtd2k7rr","mus","penguin","19","female","yes","yes","12","2-3 hr","588","stimuli/pictures/guitar_acoustic_2.jpg","1","1","true","true","","","",""
"","","","","","audio-keyboard-response","14","2.0.0","41672","p3jrtd2k7rr","mus","penguin","19","female","yes","yes","12","2-3 hr","null","stimuli/sounds/bleep.wav","null","","","","","","",""
"","","","","","html-keyboard-response","15","2.0.0","42375","p3jrtd2k7rr","mus","penguin","19","female","yes","yes","12","2-3 hr","null","<p style='color:green; font-size:30px;'>Correct!</p>","null","","","","","","",""
"","","","","","html-keyboard-response","16","2.0.0","42877","p3jrtd2k7rr","mus","penguin","19","female","yes","yes","12","2-3 hr","null","<div style=""font-size:60px;"">+</div>","null","","","","","","",""
"","","","","","audio-keyboard-response","17","2.0.0","43479","p3jrtd2k7rr","mus","penguin","19","female","yes","yes","12","2-3 hr","null","stimuli/sounds/flute_sound_A.wav","null","","","","","","",""
"","","","","","image-keyboard-response","18","2.0.0","44255","p3jrtd2k7rr","mus","penguin","19","female","yes","yes","12","2-3 hr","774","stimuli/pictures/guitar_electric_1.jpg","0","0","true","true","","","",""
"","","","","","audio-keyboard-response","19","2.0.0","45058","p3jrtd2k7rr","mus","penguin","19","female","yes","yes","12","2-3 hr","null","stimuli/sounds/bleep.wav","null","","","","","","",""
"","","","","","html-keyboard-response","20","2.0.0","45759","p3jrtd2k7rr","mus","penguin","19","female","yes","yes","12","2-3 hr","null","<p style='color:green; font-size:30px;'>Correct!</p>","null","","","","","","",""
"","","","","","html-keyboard-response","21","2.0.0","46261","p3jrtd2k7rr","mus","penguin","19","female","yes","yes","12","2-3 hr","null","<div style=""font-size:60px;"">+</div>","null","","","","","","",""
"","","","","","audio-keyboard-response","22","2.0.0","46860","p3jrtd2k7rr","mus","penguin","19","female","yes","yes","12","2-3 hr","null","stimuli/sounds/guitar_sound_A.wav","null","","","","","","",""
"","","","","","image-keyboard-response","23","2.0.0","47582","p3jrtd2k7rr","mus","penguin","19","female","yes","yes","12","2-3 hr","718","stimuli/pictures/guitar_acoustic_1.jpg","0","1","true","false","","","",""
"","","","","","audio-keyboard-response","24","2.0.0","48386","p3jrtd2k7rr","mus","penguin","19","female","yes","yes","12","2-3 hr","null","stimuli/sounds/buzz.wav","null","","","","","","",""
"","","","","","html-keyboard-response","25","2.0.0","49089","p3jrtd2k7rr","mus","penguin","19","female","yes","yes","12","2-3 hr","null","<p style='color:red; font-size:30px;'>Incorrect</p>","null","","","","","","",""
"","","","","","html-keyboard-response","26","2.0.0","51372","p3jrtd2k7rr","mus","penguin","19","female","yes","yes","12","2-3 hr","2282","<p>Practice complete. Press any key to begin the real experiment.</p>"," ","","","","","","",""
"","","","","","html-keyboard-response","27","2.0.0","52824","p3jrtd2k7rr","mus","penguin","19","female","yes","yes","12","2-3 hr","1451","<div style=""font-size:30px;"">Press space to start the trial</div>"," ","","","","","","",""
"","","","","","html-keyboard-response","28","2.0.0","53077","p3jrtd2k7rr","mus","penguin","19","female","yes","yes","12","2-3 hr","null","<div style=""font-size:60px;"">+</div>","null","","","","","","",""
"","","","","","audio-keyboard-response","29","2.0.0","53676","p3jrtd2k7rr","mus","penguin","19","female","yes","yes","12","2-3 hr","null","stimuli/sounds/phone_sound_B.wav","null","","","","","","",""
"","","","","","html-keyboard-response","30","2.0.0","54679","p3jrtd2k7rr","mus","penguin","19","female","yes","yes","12","2-3 hr","null","","null","","","","","","",""
"","","","","","image-keyboard-response","31","2.0.0","55489","p3jrtd2k7rr","mus","penguin","19","female","yes","yes","12","2-3 hr","808","stimuli/pictures/piano_grand_1.jpg","0","0","","true","no","sound","stimuli/sounds/phone_sound_B.wav",""
"","","","","","audio-keyboard-response","32","2.0.0","56492","p3jrtd2k7rr","mus","penguin","19","female","yes","yes","12","2-3 hr","null","stimuli/sounds/bleep.wav","null","","","","","","",""
"","","","","","html-keyboard-response","33","2.0.0","58281","p3jrtd2k7rr","mus","penguin","19","female","yes","yes","12","2-3 hr","1687","<div style=""font-size:30px;"">Press space to start the trial</div>"," ","","","","","","",""
"","","","","","html-keyboard-response","34","2.0.0","58534","p3jrtd2k7rr","mus","penguin","19","female","yes","yes","12","2-3 hr","null","<div style=""font-size:60px;"">+</div>","null","","","","","","",""
"","","","","","audio-keyboard-response","35","2.0.0","59138","p3jrtd2k7rr","mus","penguin","19","female","yes","yes","12","2-3 hr","null","stimuli/sounds/phone_sound_B.wav","null","","","","","","",""
"","","","","","html-keyboard-response","36","2.0.0","60140","p3jrtd2k7rr","mus","penguin","19","female","yes","yes","12","2-3 hr","null","","null","","","","","","",""
"","","","","","image-keyboard-response","37","2.0.0","60850","p3jrtd2k7rr","mus","penguin","19","female","yes","yes","12","2-3 hr","708","stimuli/pictures/phone_rotary_1.jpg","1","1","","true","yes","sound","stimuli/sounds/phone_sound_B.wav",""
"","","","","","audio-keyboard-response","38","2.0.0","61852","p3jrtd2k7rr","mus","penguin","19","female","yes","yes","12","2-3 hr","null","stimuli/sounds/bleep.wav","null","","","","","","",""
"","","","","","html-keyboard-response","39","2.0.0","63766","p3jrtd2k7rr","mus","penguin","19","female","yes","yes","12","2-3 hr","1811","<div style=""font-size:30px;"">Press space to start the trial</div>"," ","","","","","","",""
"","","","","","html-keyboard-response","40","2.0.0","64018","p3jrtd2k7rr","mus","penguin","19","female","yes","yes","12","2-3 hr","null","<div style=""font-size:60px;"">+</div>","null","","","","","","",""
"","","","","","audio-keyboard-response","41","2.0.0","64620","p3jrtd2k7rr","mus","penguin","19","female","yes","yes","12","2-3 hr","null","stimuli/sounds/drum_label_B.wav","null","","","","","","",""
"","","","","","html-keyboard-response","42","2.0.0","65622","p3jrtd2k7rr","mus","penguin","19","female","yes","yes","12","2-3 hr","null","","null","","","","","","",""
"","","","","","image-keyboard-response","43","2.0.0","66236","p3jrtd2k7rr","mus","penguin","19","female","yes","yes","12","2-3 hr","611","stimuli/pictures/piano_grand_2.jpg","0","0","","true","no","sound","stimuli/sounds/drum_label_B.wav",""
"","","","","","audio-keyboard-response","44","2.0.0","67239","p3jrtd2k7rr","mus","penguin","19","female","yes","yes","12","2-3 hr","null","stimuli/sounds/bleep.wav","null","","","","","","",""
"","","","","","html-keyboard-response","45","2.0.0","69109","p3jrtd2k7rr","mus","penguin","19","female","yes","yes","12","2-3 hr","1768","<div style=""font-size:30px;"">Press space to start the trial</div>"," ","","","","","","",""
"","","","","","html-keyboard-response","46","2.0.0","69361","p3jrtd2k7rr","mus","penguin","19","female","yes","yes","12","2-3 hr","null","<div style=""font-size:60px;"">+</div>","null","","","","","","",""
"","","","","","audio-keyboard-response","47","2.0.0","69975","p3jrtd2k7rr","mus","penguin","19","female","yes","yes","12","2-3 hr","null","stimuli/sounds/piano_sound_A.wav","null","","","","","","",""
"","","","","","html-keyboard-response","48","2.0.0","70976","p3jrtd2k7rr","mus","penguin","19","female","yes","yes","12","2-3 hr","null","","null","","","","","","",""
"","","","","","image-keyboard-response","49","2.0.0","71580","p3jrtd2k7rr","mus","penguin","19","female","yes","yes","12","2-3 hr","602","stimuli/pictures/drum_bongo_2.jpg","0","0","","true","no","sound","stimuli/sounds/piano_sound_A.wav",""
"","","","","","audio-keyboard-response","50","2.0.0","72583","p3jrtd2k7rr","mus","penguin","19","female","yes","yes","12","2-3 hr","null","stimuli/sounds/bleep.wav","null","","","","","","",""
"","","","","","html-keyboard-response","51","2.0.0","73340","p3jrtd2k7rr","mus","penguin","19","female","yes","yes","12","2-3 hr","654","<div style=""font-size:30px;"">Press space to start the trial</div>"," ","","","","","","",""
"","","","","","html-keyboard-response","52","2.0.0","73593","p3jrtd2k7rr","mus","penguin","19","female","yes","yes","12","2-3 hr","null","<div style=""font-size:60px;"">+</div>","null","","","","","","",""
"","","","","","audio-keyboard-response","53","2.0.0","74193","p3jrtd2k7rr","mus","penguin","19","female","yes","yes","12","2-3 hr","null","stimuli/sounds/piano_label_B.wav","null","","","","","","",""
"","","","","","html-keyboard-response","54","2.0.0","75196","p3jrtd2k7rr","mus","penguin","19","female","yes","yes","12","2-3 hr","null","","null","","","","","","",""
"","","","","","image-keyboard-response","55","2.0.0","75854","p3jrtd2k7rr","mus","penguin","19","female","yes","yes","12","2-3 hr","657","stimuli/pictures/bird_song_1.jpg","0","0","","true","no","sound","stimuli/sounds/piano_label_B.wav",""
"","","","","","audio-keyboard-response","56","2.0.0","76857","p3jrtd2k7rr","mus","penguin","19","female","yes","yes","12","2-3 hr","null","stimuli/sounds/bleep.wav","null","","","","","","",""
"","","","","","html-keyboard-response","57","2.0.0","77661","p3jrtd2k7rr","mus","penguin","19","female","yes","yes","12","2-3 hr","702","<div style=""font-size:30px;"">Press space to start the trial</div>"," ","","","","","","",""
"","","","","","html-keyboard-response","58","2.0.0","77914","p3jrtd2k7rr","mus","penguin","19","female","yes","yes","12","2-3 hr","null","<div style=""font-size:60px;"">+</div>","null","","","","","","",""
"","","","","","audio-keyboard-response","59","2.0.0","78534","p3jrtd2k7rr","mus","penguin","19","female","yes","yes","12","2-3 hr","null","stimuli/sounds/piano_label_A.wav","null","","","","","","",""
"","","","","","html-keyboard-response","60","2.0.0","79537","p3jrtd2k7rr","mus","penguin","19","female","yes","yes","12","2-3 hr","null","","null","","","","","","",""
"","","","","","image-keyboard-response","61","2.0.0","80208","p3jrtd2k7rr","mus","penguin","19","female","yes","yes","12","2-3 hr","669","stimuli/pictures/piano_electric_2.jpg","1","1","","true","yes","sound","stimuli/sounds/piano_label_A.wav",""
"","","","","","audio-keyboard-response","62","2.0.0","81211","p3jrtd2k7rr","mus","penguin","19","female","yes","yes","12","2-3 hr","null","stimuli/sounds/bleep.wav","null","","","","","","",""
"","","","","","html-keyboard-response","63","2.0.0","81693","p3jrtd2k7rr","mus","penguin","19","female","yes","yes","12","2-3 hr","380","<div style=""font-size:30px;"">Press space to start the trial</div>"," ","","","","","","",""
"","","","","","html-keyboard-response","64","2.0.0","81945","p3jrtd2k7rr","mus","penguin","19","female","yes","yes","12","2-3 hr","null","<div style=""font-size:60px;"">+</div>","null","","","","","","",""
"","","","","","audio-keyboard-response","65","2.0.0","82550","p3jrtd2k7rr","mus","penguin","19","female","yes","yes","12","2-3 hr","null","stimuli/sounds/drum_label_A.wav","null","","","","","","",""
"","","","","","html-keyboard-response","66","2.0.0","83553","p3jrtd2k7rr","mus","penguin","19","female","yes","yes","12","2-3 hr","null","","null","","","","","","",""
"","","","","","image-keyboard-response","67","2.0.0","84112","p3jrtd2k7rr","mus","penguin","19","female","yes","yes","12","2-3 hr","558","stimuli/pictures/bird_song_1.jpg","0","0","","true","no","sound","stimuli/sounds/drum_label_A.wav",""
"","","","","","audio-keyboard-response","68","2.0.0","85115","p3jrtd2k7rr","mus","penguin","19","female","yes","yes","12","2-3 hr","null","stimuli/sounds/bleep.wav","null","","","","","","",""
"","","","","","html-keyboard-response","69","2.0.0","85897","p3jrtd2k7rr","mus","penguin","19","female","yes","yes","12","2-3 hr","680","<div style=""font-size:30px;"">Press space to start the trial</div>"," ","","","","","","",""
"","","","","","html-keyboard-response","70","2.0.0","86149","p3jrtd2k7rr","mus","penguin","19","female","yes","yes","12","2-3 hr","null","<div style=""font-size:60px;"">+</div>","null","","","","","","",""
"","","","","","audio-keyboard-response","71","2.0.0","86753","p3jrtd2k7rr","mus","penguin","19","female","yes","yes","12","2-3 hr","null","stimuli/sounds/phone_label_B.wav","null","","","","","","",""
"","","","","","html-keyboard-response","72","2.0.0","87756","p3jrtd2k7rr","mus","penguin","19","female","yes","yes","12","2-3 hr","null","","null","","","","","","",""
"","","","","","image-keyboard-response","73","2.0.0","88343","p3jrtd2k7rr","mus","penguin","19","female","yes","yes","12","2-3 hr","586","stimuli/pictures/flute_wooden_1.jpg","0","0","","true","no","sound","stimuli/sounds/phone_label_B.wav",""
"","","","","","audio-keyboard-response","74","2.0.0","89346","p3jrtd2k7rr","mus","penguin","19","female","yes","yes","12","2-3 hr","null","stimuli/sounds/bleep.wav","null","","","","","","",""
"","","","","","html-keyboard-response","75","2.0.0","89929","p3jrtd2k7rr","mus","penguin","19","female","yes","yes","12","2-3 hr","480","<div style=""font-size:30px;"">Press space to start the trial</div>"," ","","","","","","",""
"","","","","","html-keyboard-response","76","2.0.0","90181","p3jrtd2k7rr","mus","penguin","19","female","yes","yes","12","2-3 hr","null","<div style=""font-size:60px;"">+</div>","null","","","","","","",""
"","","","","","audio-keyboard-response","77","2.0.0","90780","p3jrtd2k7rr","mus","penguin","19","female","yes","yes","12","2-3 hr","null","stimuli/sounds/bird_label_B.wav","null","","","","","","",""
"","","","","","html-keyboard-response","78","2.0.0","91782","p3jrtd2k7rr","mus","penguin","19","female","yes","yes","12","2-3 hr","null","","null","","","","","","",""
"","","","","","image-keyboard-response","79","2.0.0","92236","p3jrtd2k7rr","mus","penguin","19","female","yes","yes","12","2-3 hr","452","stimuli/pictures/phone_cell_1.jpg","0","0","","true","no","sound","stimuli/sounds/bird_label_B.wav",""
"","","","","","audio-keyboard-response","80","2.0.0","93240","p3jrtd2k7rr","mus","penguin","19","female","yes","yes","12","2-3 hr","null","stimuli/sounds/bleep.wav","null","","","","","","",""
"","","","","","html-keyboard-response","81","2.0.0","93709","p3jrtd2k7rr","mus","penguin","19","female","yes","yes","12","2-3 hr","366","<div style=""font-size:30px;"">Press space to start the trial</div>"," ","","","","","","",""
"","","","","","html-keyboard-response","82","2.0.0","93961","p3jrtd2k7rr","mus","penguin","19","female","yes","yes","12","2-3 hr","null","<div style=""font-size:60px;"">+</div>","null","","","","","","",""
"","","","","","audio-keyboard-response","83","2.0.0","94561","p3jrtd2k7rr","mus","penguin","19","female","yes","yes","12","2-3 hr","null","stimuli/sounds/piano_sound_B.wav","null","","","","","","",""
"","","","","","html-keyboard-response","84","2.0.0","95563","p3jrtd2k7rr","mus","penguin","19","female","yes","yes","12","2-3 hr","null","","null","","","","","","",""
"","","","","","image-keyboard-response","85","2.0.0","96219","p3jrtd2k7rr","mus","penguin","19","female","yes","yes","12","2-3 hr","652","stimuli/pictures/piano_electric_1.jpg","1","1","","true","yes","sound","stimuli/sounds/piano_sound_B.wav",""
"","","","","","audio-keyboard-response","86","2.0.0","97222","p3jrtd2k7rr","mus","penguin","19","female","yes","yes","12","2-3 hr","null","stimuli/sounds/bleep.wav","null","","","","","","",""
"","","","","","html-keyboard-response","87","2.0.0","97797","p3jrtd2k7rr","mus","penguin","19","female","yes","yes","12","2-3 hr","472","<div style=""font-size:30px;"">Press space to start the trial</div>"," ","","","","","","",""
"","","","","","html-keyboard-response","88","2.0.0","98049","p3jrtd2k7rr","mus","penguin","19","female","yes","yes","12","2-3 hr","null","<div style=""font-size:60px;"">+</div>","null","","","","","","",""
"","","","","","audio-keyboard-response","89","2.0.0","98652","p3jrtd2k7rr","mus","penguin","19","female","yes","yes","12","2-3 hr","null","stimuli/sounds/flute_label_A.wav","null","","","","","","",""
"","","","","","html-keyboard-response","90","2.0.0","99654","p3jrtd2k7rr","mus","penguin","19","female","yes","yes","12","2-3 hr","null","","null","","","","","","",""
"","","","","","image-keyboard-response","91","2.0.0","100173","p3jrtd2k7rr","mus","penguin","19","female","yes","yes","12","2-3 hr","518","stimuli/pictures/piano_electric_2.jpg","0","0","","true","no","sound","stimuli/sounds/flute_label_A.wav",""
"","","","","","audio-keyboard-response","92","2.0.0","101177","p3jrtd2k7rr","mus","penguin","19","female","yes","yes","12","2-3 hr","null","stimuli/sounds/bleep.wav","null","","","","","","",""
"","","","","","html-keyboard-response","93","2.0.0","101612","p3jrtd2k7rr","mus","penguin","19","female","yes","yes","12","2-3 hr","334","<div style=""font-size:30px;"">Press space to start the trial</div>"," ","","","","","","",""
"","","","","","html-keyboard-response","94","2.0.0","101865","p3jrtd2k7rr","mus","penguin","19","female","yes","yes","12","2-3 hr","null","<div style=""font-size:60px;"">+</div>","null","","","","","","",""
"","","","","","audio-keyboard-response","95","2.0.0","102465","p3jrtd2k7rr","mus","penguin","19","female","yes","yes","12","2-3 hr","null","stimuli/sounds/drum_label_A.wav","null","","","","","","",""
"","","","","","html-keyboard-response","96","2.0.0","103467","p3jrtd2k7rr","mus","penguin","19","female","yes","yes","12","2-3 hr","null","","null","","","","","","",""
"","","","","","image-keyboard-response","97","2.0.0","104080","p3jrtd2k7rr","mus","penguin","19","female","yes","yes","12","2-3 hr","611","stimuli/pictures/drum_kit_2.jpg","1","1","","true","yes","sound","stimuli/sounds/drum_label_A.wav",""
"","","","","","audio-keyboard-response","98","2.0.0","105083","p3jrtd2k7rr","mus","penguin","19","female","yes","yes","12","2-3 hr","null","stimuli/sounds/bleep.wav","null","","","","","","",""
"","","","","","html-keyboard-response","99","2.0.0","105500","p3jrtd2k7rr","mus","penguin","19","female","yes","yes","12","2-3 hr","316","<div style=""font-size:30px;"">Press space to start the trial</div>"," ","","","","","","",""
"","","","","","html-keyboard-response","100","2.0.0","105752","p3jrtd2k7rr","mus","penguin","19","female","yes","yes","12","2-3 hr","null","<div style=""font-size:60px;"">+</div>","null","","","","","","",""
"","","","","","audio-keyboard-response","101","2.0.0","106353","p3jrtd2k7rr","mus","penguin","19","female","yes","yes","12","2-3 hr","null","stimuli/sounds/bird_sound_B.wav","null","","","","","","",""
"","","","","","html-keyboard-response","102","2.0.0","107355","p3jrtd2k7rr","mus","penguin","19","female","yes","yes","12","2-3 hr","null","","null","","","","","","",""
"","","","","","image-keyboard-response","103","2.0.0","107974","p3jrtd2k7rr","mus","penguin","19","female","yes","yes","12","2-3 hr","618","stimuli/pictures/drum_kit_1.jpg","0","0","","true","no","sound","stimuli/sounds/bird_sound_B.wav",""
"","","","","","audio-keyboard-response","104","2.0.0","108977","p3jrtd2k7rr","mus","penguin","19","female","yes","yes","12","2-3 hr","null","stimuli/sounds/bleep.wav","null","","","","","","",""
"","","","","","html-keyboard-response","105","2.0.0","122202","p3jrtd2k7rr","mus","penguin","19","female","yes","yes","12","2-3 hr","13123","<div style=""font-size:30px;"">Press space to start the trial</div>"," ","","","","","","",""
"","","","","","html-keyboard-response","106","2.0.0","122457","p3jrtd2k7rr","mus","penguin","19","female","yes","yes","12","2-3 hr","null","<div style=""font-size:60px;"">+</div>","null","","","","","","",""
"","","","","","audio-keyboard-response","107","2.0.0","123062","p3jrtd2k7rr","mus","penguin","19","female","yes","yes","12","2-3 hr","null","stimuli/sounds/flute_label_A.wav","null","","","","","","",""
"","","","","","html-keyboard-response","108","2.0.0","124064","p3jrtd2k7rr","mus","penguin","19","female","yes","yes","12","2-3 hr","null","","null","","","","","","",""
"","","","","","image-keyboard-response","109","2.0.0","124632","p3jrtd2k7rr","mus","penguin","19","female","yes","yes","12","2-3 hr","565","stimuli/pictures/flute_wooden_1.jpg","0","1","","false","yes","sound","stimuli/sounds/flute_label_A.wav",""
"","","","","","audio-keyboard-response","110","2.0.0","125634","p3jrtd2k7rr","mus","penguin","19","female","yes","yes","12","2-3 hr","null","stimuli/sounds/buzz.wav","null","","","","","","",""
"","","","","","html-keyboard-response","111","2.0.0","127517","p3jrtd2k7rr","mus","penguin","19","female","yes","yes","12","2-3 hr","1781","<div style=""font-size:30px;"">Press space to start the trial</div>"," ","","","","","","",""
"","","","","","html-keyboard-response","112","2.0.0","127769","p3jrtd2k7rr","mus","penguin","19","female","yes","yes","12","2-3 hr","null","<div style=""font-size:60px;"">+</div>","null","","","","","","",""
"","","","","","audio-keyboard-response","113","2.0.0","128368","p3jrtd2k7rr","mus","penguin","19","female","yes","yes","12","2-3 hr","null","stimuli/sounds/drum_sound_A.wav","null","","","","","","",""
"","","","","","html-keyboard-response","114","2.0.0","129371","p3jrtd2k7rr","mus","penguin","19","female","yes","yes","12","2-3 hr","null","","null","","","","","","",""
"","","","","","image-keyboard-response","115","2.0.0","129963","p3jrtd2k7rr","mus","penguin","19","female","yes","yes","12","2-3 hr","590","stimuli/pictures/drum_kit_2.jpg","1","1","","true","yes","sound","stimuli/sounds/drum_sound_A.wav",""
"","","","","","audio-keyboard-response","116","2.0.0","130965","p3jrtd2k7rr","mus","penguin","19","female","yes","yes","12","2-3 hr","null","stimuli/sounds/bleep.wav","null","","","","","","",""
"","","","","","html-keyboard-response","117","2.0.0","131515","p3jrtd2k7rr","mus","penguin","19","female","yes","yes","12","2-3 hr","448","<div style=""font-size:30px;"">Press space to start the trial</div>"," ","","","","","","",""
"","","","","","html-keyboard-response","118","2.0.0","131768","p3jrtd2k7rr","mus","penguin","19","female","yes","yes","12","2-3 hr","null","<div style=""font-size:60px;"">+</div>","null","","","","","","",""
"","","","","","audio-keyboard-response","119","2.0.0","132374","p3jrtd2k7rr","mus","penguin","19","female","yes","yes","12","2-3 hr","null","stimuli/sounds/piano_sound_A.wav","null","","","","","","",""
"","","","","","html-keyboard-response","120","2.0.0","133376","p3jrtd2k7rr","mus","penguin","19","female","yes","yes","12","2-3 hr","null","","null","","","","","","",""
"","","","","","image-keyboard-response","121","2.0.0","133784","p3jrtd2k7rr","mus","penguin","19","female","yes","yes","12","2-3 hr","406","stimuli/pictures/piano_grand_1.jpg","1","1","","true","yes","sound","stimuli/sounds/piano_sound_A.wav",""
"","","","","","audio-keyboard-response","122","2.0.0","134787","p3jrtd2k7rr","mus","penguin","19","female","yes","yes","12","2-3 hr","null","stimuli/sounds/bleep.wav","null","","","","","","",""
"","","","","","html-keyboard-response","123","2.0.0","135257","p3jrtd2k7rr","mus","penguin","19","female","yes","yes","12","2-3 hr","367","<div style=""font-size:30px;"">Press space to start the trial</div>"," ","","","","","","",""
"","","","","","html-keyboard-response","124","2.0.0","135509","p3jrtd2k7rr","mus","penguin","19","female","yes","yes","12","2-3 hr","null","<div style=""font-size:60px;"">+</div>","null","","","","","","",""
"","","","","","audio-keyboard-response","125","2.0.0","136112","p3jrtd2k7rr","mus","penguin","19","female","yes","yes","12","2-3 hr","null","stimuli/sounds/bird_sound_A.wav","null","","","","","","",""
"","","","","","html-keyboard-response","126","2.0.0","137115","p3jrtd2k7rr","mus","penguin","19","female","yes","yes","12","2-3 hr","null","","null","","","","","","",""
"","","","","","image-keyboard-response","127","2.0.0","137840","p3jrtd2k7rr","mus","penguin","19","female","yes","yes","12","2-3 hr","723","stimuli/pictures/piano_electric_1.jpg","0","0","","true","no","sound","stimuli/sounds/bird_sound_A.wav",""
"","","","","","audio-keyboard-response","128","2.0.0","138842","p3jrtd2k7rr","mus","penguin","19","female","yes","yes","12","2-3 hr","null","stimuli/sounds/bleep.wav","null","","","","","","",""
"","","","","","html-keyboard-response","129","2.0.0","139547","p3jrtd2k7rr","mus","penguin","19","female","yes","yes","12","2-3 hr","602","<div style=""font-size:30px;"">Press space to start the trial</div>"," ","","","","","","",""
"","","","","","html-keyboard-response","130","2.0.0","139799","p3jrtd2k7rr","mus","penguin","19","female","yes","yes","12","2-3 hr","null","<div style=""font-size:60px;"">+</div>","null","","","","","","",""
"","","","","","audio-keyboard-response","131","2.0.0","140406","p3jrtd2k7rr","mus","penguin","19","female","yes","yes","12","2-3 hr","null","stimuli/sounds/bird_label_B.wav","null","","","","","","",""
"","","","","","html-keyboard-response","132","2.0.0","141407","p3jrtd2k7rr","mus","penguin","19","female","yes","yes","12","2-3 hr","null","","null","","","","","","",""
"","","","","","image-keyboard-response","133","2.0.0","141861","p3jrtd2k7rr","mus","penguin","19","female","yes","yes","12","2-3 hr","452","stimuli/pictures/phone_rotary_1.jpg","0","0","","true","no","sound","stimuli/sounds/bird_label_B.wav",""
"","","","","","audio-keyboard-response","134","2.0.0","142866","p3jrtd2k7rr","mus","penguin","19","female","yes","yes","12","2-3 hr","null","stimuli/sounds/bleep.wav","null","","","","","","",""
"","","","","","html-keyboard-response","135","2.0.0","143382","p3jrtd2k7rr","mus","penguin","19","female","yes","yes","12","2-3 hr","414","<div style=""font-size:30px;"">Press space to start the trial</div>"," ","","","","","","",""
"","","","","","html-keyboard-response","136","2.0.0","143636","p3jrtd2k7rr","mus","penguin","19","female","yes","yes","12","2-3 hr","null","<div style=""font-size:60px;"">+</div>","null","","","","","","",""
"","","","","","audio-keyboard-response","137","2.0.0","144235","p3jrtd2k7rr","mus","penguin","19","female","yes","yes","12","2-3 hr","null","stimuli/sounds/drum_label_B.wav","null","","","","","","",""
"","","","","","html-keyboard-response","138","2.0.0","145238","p3jrtd2k7rr","mus","penguin","19","female","yes","yes","12","2-3 hr","null","","null","","","","","","",""
"","","","","","image-keyboard-response","139","2.0.0","145717","p3jrtd2k7rr","mus","penguin","19","female","yes","yes","12","2-3 hr","477","stimuli/pictures/drum_bongo_2.jpg","1","1","","true","yes","sound","stimuli/sounds/drum_label_B.wav",""
"","","","","","audio-keyboard-response","140","2.0.0","146721","p3jrtd2k7rr","mus","penguin","19","female","yes","yes","12","2-3 hr","null","stimuli/sounds/bleep.wav","null","","","","","","",""
"","","","","","html-keyboard-response","141","2.0.0","147141","p3jrtd2k7rr","mus","penguin","19","female","yes","yes","12","2-3 hr","318","<div style=""font-size:30px;"">Press space to start the trial</div>"," ","","","","","","",""
"","","","","","html-keyboard-response","142","2.0.0","147393","p3jrtd2k7rr","mus","penguin","19","female","yes","yes","12","2-3 hr","null","<div style=""font-size:60px;"">+</div>","null","","","","","","",""
"","","","","","audio-keyboard-response","143","2.0.0","148005","p3jrtd2k7rr","mus","penguin","19","female","yes","yes","12","2-3 hr","null","stimuli/sounds/flute_sound_B.wav","null","","","","","","",""
"","","","","","html-keyboard-response","144","2.0.0","149007","p3jrtd2k7rr","mus","penguin","19","female","yes","yes","12","2-3 hr","null","","null","","","","","","",""
"","","","","","image-keyboard-response","145","2.0.0","149972","p3jrtd2k7rr","mus","penguin","19","female","yes","yes","12","2-3 hr","962","stimuli/pictures/bird_hawk_1.jpg","1","0","","false","no","sound","stimuli/sounds/flute_sound_B.wav",""
"","","","","","audio-keyboard-response","146","2.0.0","150975","p3jrtd2k7rr","mus","penguin","19","female","yes","yes","12","2-3 hr","null","stimuli/sounds/buzz.wav","null","","","","","","",""
"","","","","","html-keyboard-response","147","2.0.0","154043","p3jrtd2k7rr","mus","penguin","19","female","yes","yes","12","2-3 hr","2965","<p>You have completed a block. Press R when you are ready to continue</p>","r","","","","","","",""
"","","","","","html-keyboard-response","148","2.0.0","155660","p3jrtd2k7rr","mus","penguin","19","female","yes","yes","12","2-3 hr","1615","<div style=""font-size:30px;"">Press space to start the trial</div>"," ","","","","","","",""
"","","","","","html-keyboard-response","149","2.0.0","155913","p3jrtd2k7rr","mus","penguin","19","female","yes","yes","12","2-3 hr","null","<div style=""font-size:60px;"">+</div>","null","","","","","","",""
"","","","","","audio-keyboard-response","150","2.0.0","156512","p3jrtd2k7rr","mus","penguin","19","female","yes","yes","12","2-3 hr","null","stimuli/sounds/piano_label_B.wav","null","","","","","","",""
"","","","","","html-keyboard-response","151","2.0.0","157515","p3jrtd2k7rr","mus","penguin","19","female","yes","yes","12","2-3 hr","null","","null","","","","","","",""
"","","","","","image-keyboard-response","152","2.0.0","157915","p3jrtd2k7rr","mus","penguin","19","female","yes","yes","12","2-3 hr","397","stimuli/pictures/bird_song_2.jpg","0","0","","true","no","sound","stimuli/sounds/piano_label_B.wav",""
"","","","","","audio-keyboard-response","153","2.0.0","158917","p3jrtd2k7rr","mus","penguin","19","female","yes","yes","12","2-3 hr","null","stimuli/sounds/bleep.wav","null","","","","","","",""
"","","","","","html-keyboard-response","154","2.0.0","159609","p3jrtd2k7rr","mus","penguin","19","female","yes","yes","12","2-3 hr","590","<div style=""font-size:30px;"">Press space to start the trial</div>"," ","","","","","","",""
"","","","","","html-keyboard-response","155","2.0.0","159861","p3jrtd2k7rr","mus","penguin","19","female","yes","yes","12","2-3 hr","null","<div style=""font-size:60px;"">+</div>","null","","","","","","",""
"","","","","","audio-keyboard-response","156","2.0.0","160485","p3jrtd2k7rr","mus","penguin","19","female","yes","yes","12","2-3 hr","null","stimuli/sounds/piano_label_A.wav","null","","","","","","",""
"","","","","","html-keyboard-response","157","2.0.0","161488","p3jrtd2k7rr","mus","penguin","19","female","yes","yes","12","2-3 hr","null","","null","","","","","","",""
"","","","","","image-keyboard-response","158","2.0.0","161958","p3jrtd2k7rr","mus","penguin","19","female","yes","yes","12","2-3 hr","467","stimuli/pictures/phone_rotary_2.jpg","0","0","","true","no","sound","stimuli/sounds/piano_label_A.wav",""
"","","","","","audio-keyboard-response","159","2.0.0","162961","p3jrtd2k7rr","mus","penguin","19","female","yes","yes","12","2-3 hr","null","stimuli/sounds/bleep.wav","null","","","","","","",""
"","","","","","html-keyboard-response","160","2.0.0","163418","p3jrtd2k7rr","mus","penguin","19","female","yes","yes","12","2-3 hr","356","<div style=""font-size:30px;"">Press space to start the trial</div>"," ","","","","","","",""
"","","","","","html-keyboard-response","161","2.0.0","163671","p3jrtd2k7rr","mus","penguin","19","female","yes","yes","12","2-3 hr","null","<div style=""font-size:60px;"">+</div>","null","","","","","","",""
"","","","","","audio-keyboard-response","162","2.0.0","164272","p3jrtd2k7rr","mus","penguin","19","female","yes","yes","12","2-3 hr","null","stimuli/sounds/phone_label_B.wav","null","","","","","","",""
"","","","","","html-keyboard-response","163","2.0.0","165275","p3jrtd2k7rr","mus","penguin","19","female","yes","yes","12","2-3 hr","null","","null","","","","","","",""
"","","","","","image-keyboard-response","164","2.0.0","165728","p3jrtd2k7rr","mus","penguin","19","female","yes","yes","12","2-3 hr","452","stimuli/pictures/phone_cell_1.jpg","1","1","","true","yes","sound","stimuli/sounds/phone_label_B.wav",""
"","","","","","audio-keyboard-response","165","2.0.0","166731","p3jrtd2k7rr","mus","penguin","19","female","yes","yes","12","2-3 hr","null","stimuli/sounds/bleep.wav","null","","","","","","",""
"","","","","","html-keyboard-response","166","2.0.0","167250","p3jrtd2k7rr","mus","penguin","19","female","yes","yes","12","2-3 hr","417","<div style=""font-size:30px;"">Press space to start the trial</div>"," ","","","","","","",""
"","","","","","html-keyboard-response","167","2.0.0","167502","p3jrtd2k7rr","mus","penguin","19","female","yes","yes","12","2-3 hr","null","<div style=""font-size:60px;"">+</div>","null","","","","","","",""
"","","","","","audio-keyboard-response","168","2.0.0","168112","p3jrtd2k7rr","mus","penguin","19","female","yes","yes","12","2-3 hr","null","stimuli/sounds/piano_sound_B.wav","null","","","","","","",""
"","","","","","html-keyboard-response","169","2.0.0","169114","p3jrtd2k7rr","mus","penguin","19","female","yes","yes","12","2-3 hr","null","","null","","","","","","",""
"","","","","","image-keyboard-response","170","2.0.0","169528","p3jrtd2k7rr","mus","penguin","19","female","yes","yes","12","2-3 hr","412","stimuli/pictures/piano_electric_2.jpg","1","1","","true","yes","sound","stimuli/sounds/piano_sound_B.wav",""
"","","","","","audio-keyboard-response","171","2.0.0","170531","p3jrtd2k7rr","mus","penguin","19","female","yes","yes","12","2-3 hr","null","stimuli/sounds/bleep.wav","null","","","","","","",""
"","","","","","html-keyboard-response","172","2.0.0","170951","p3jrtd2k7rr","mus","penguin","19","female","yes","yes","12","2-3 hr","318","<div style=""font-size:30px;"">Press space to start the trial</div>"," ","","","","","","",""
"","","","","","html-keyboard-response","173","2.0.0","171203","p3jrtd2k7rr","mus","penguin","19","female","yes","yes","12","2-3 hr","null","<div style=""font-size:60px;"">+</div>","null","","","","","","",""
"","","","","","audio-keyboard-response","174","2.0.0","171802","p3jrtd2k7rr","mus","penguin","19","female","yes","yes","12","2-3 hr","null","stimuli/sounds/bird_sound_B.wav","null","","","","","","",""
"","","","","","html-keyboard-response","175","2.0.0","172804","p3jrtd2k7rr","mus","penguin","19","female","yes","yes","12","2-3 hr","null","","null","","","","","","",""
"","","","","","image-keyboard-response","176","2.0.0","173283","p3jrtd2k7rr","mus","penguin","19","female","yes","yes","12","2-3 hr","477","stimuli/pictures/drum_bongo_1.jpg","1","0","","false","no","sound","stimuli/sounds/bird_sound_B.wav",""
"","","","","","audio-keyboard-response","177","2.0.0","174285","p3jrtd2k7rr","mus","penguin","19","female","yes","yes","12","2-3 hr","null","stimuli/sounds/buzz.wav","null","","","","","","",""
"","","","","","html-keyboard-response","178","2.0.0","174796","p3jrtd2k7rr","mus","penguin","19","female","yes","yes","12","2-3 hr","409","<div style=""font-size:30px;"">Press space to start the trial</div>"," ","","","","","","",""
"","","","","","html-keyboard-response","179","2.0.0","175048","p3jrtd2k7rr","mus","penguin","19","female","yes","yes","12","2-3 hr","null","<div style=""font-size:60px;"">+</div>","null","","","","","","",""
"","","","","","audio-keyboard-response","180","2.0.0","175648","p3jrtd2k7rr","mus","penguin","19","female","yes","yes","12","2-3 hr","null","stimuli/sounds/bird_label_A.wav","null","","","","","","",""
"","","","","","html-keyboard-response","181","2.0.0","176650","p3jrtd2k7rr","mus","penguin","19","female","yes","yes","12","2-3 hr","null","","null","","","","","","",""
"","","","","","image-keyboard-response","182","2.0.0","177178","p3jrtd2k7rr","mus","penguin","19","female","yes","yes","12","2-3 hr","526","stimuli/pictures/bird_hawk_1.jpg","1","1","","true","yes","sound","stimuli/sounds/bird_label_A.wav",""
"","","","","","audio-keyboard-response","183","2.0.0","178180","p3jrtd2k7rr","mus","penguin","19","female","yes","yes","12","2-3 hr","null","stimuli/sounds/bleep.wav","null","","","","","","",""
"","","","","","html-keyboard-response","184","2.0.0","178646","p3jrtd2k7rr","mus","penguin","19","female","yes","yes","12","2-3 hr","363","<div style=""font-size:30px;"">Press space to start the trial</div>"," ","","","","","","",""
"","","","","","html-keyboard-response","185","2.0.0","178898","p3jrtd2k7rr","mus","penguin","19","female","yes","yes","12","2-3 hr","null","<div style=""font-size:60px;"">+</div>","null","","","","","","",""
"","","","","","audio-keyboard-response","186","2.0.0","179498","p3jrtd2k7rr","mus","penguin","19","female","yes","yes","12","2-3 hr","null","stimuli/sounds/phone_sound_A.wav","null","","","","","","",""
"","","","","","html-keyboard-response","187","2.0.0","180500","p3jrtd2k7rr","mus","penguin","19","female","yes","yes","12","2-3 hr","null","","null","","","","","","",""
"","","","","","image-keyboard-response","188","2.0.0","181007","p3jrtd2k7rr","mus","penguin","19","female","yes","yes","12","2-3 hr","504","stimuli/pictures/phone_rotary_1.jpg","0","1","","false","no","sound","stimuli/sounds/phone_sound_A.wav",""
"","","","","","audio-keyboard-response","189","2.0.0","182010","p3jrtd2k7rr","mus","penguin","19","female","yes","yes","12","2-3 hr","null","stimuli/sounds/buzz.wav","null","","","","","","",""
"","","","","","html-keyboard-response","190","2.0.0","182586","p3jrtd2k7rr","mus","penguin","19","female","yes","yes","12","2-3 hr","474","<div style=""font-size:30px;"">Press space to start the trial</div>"," ","","","","","","",""
"","","","","","html-keyboard-response","191","2.0.0","182838","p3jrtd2k7rr","mus","penguin","19","female","yes","yes","12","2-3 hr","null","<div style=""font-size:60px;"">+</div>","null","","","","","","",""
"","","","","","audio-keyboard-response","192","2.0.0","183450","p3jrtd2k7rr","mus","penguin","19","female","yes","yes","12","2-3 hr","null","stimuli/sounds/flute_label_B.wav","null","","","","","","",""
"","","","","","html-keyboard-response","193","2.0.0","184453","p3jrtd2k7rr","mus","penguin","19","female","yes","yes","12","2-3 hr","null","","null","","","","","","",""
"","","","","","image-keyboard-response","194","2.0.0","184940","p3jrtd2k7rr","mus","penguin","19","female","yes","yes","12","2-3 hr","485","stimuli/pictures/flute_wooden_1.jpg","1","1","","true","yes","sound","stimuli/sounds/flute_label_B.wav",""
"","","","","","audio-keyboard-response","195","2.0.0","185943","p3jrtd2k7rr","mus","penguin","19","female","yes","yes","12","2-3 hr","null","stimuli/sounds/bleep.wav","null","","","","","","",""
"","","","","","html-keyboard-response","196","2.0.0","186536","p3jrtd2k7rr","mus","penguin","19","female","yes","yes","12","2-3 hr","491","<div style=""font-size:30px;"">Press space to start the trial</div>"," ","","","","","","",""
"","","","","","html-keyboard-response","197","2.0.0","186788","p3jrtd2k7rr","mus","penguin","19","female","yes","yes","12","2-3 hr","null","<div style=""font-size:60px;"">+</div>","null","","","","","","",""
"","","","","","audio-keyboard-response","198","2.0.0","187386","p3jrtd2k7rr","mus","penguin","19","female","yes","yes","12","2-3 hr","null","stimuli/sounds/phone_sound_B.wav","null","","","","","","",""
"","","","","","html-keyboard-response","199","2.0.0","188389","p3jrtd2k7rr","mus","penguin","19","female","yes","yes","12","2-3 hr","null","","null","","","","","","",""
"","","","","","image-keyboard-response","200","2.0.0","189049","p3jrtd2k7rr","mus","penguin","19","female","yes","yes","12","2-3 hr","658","stimuli/pictures/piano_electric_2.jpg","0","0","","true","no","sound","stimuli/sounds/phone_sound_B.wav",""
"","","","","","audio-keyboard-response","201","2.0.0","190052","p3jrtd2k7rr","mus","penguin","19","female","yes","yes","12","2-3 hr","null","stimuli/sounds/bleep.wav","null","","","","","","",""
"","","","","","html-keyboard-response","202","2.0.0","190599","p3jrtd2k7rr","mus","penguin","19","female","yes","yes","12","2-3 hr","444","<div style=""font-size:30px;"">Press space to start the trial</div>"," ","","","","","","",""
"","","","","","html-keyboard-response","203","2.0.0","190851","p3jrtd2k7rr","mus","penguin","19","female","yes","yes","12","2-3 hr","null","<div style=""font-size:60px;"">+</div>","null","","","","","","",""
"","","","","","audio-keyboard-response","204","2.0.0","191455","p3jrtd2k7rr","mus","penguin","19","female","yes","yes","12","2-3 hr","null","stimuli/sounds/flute_label_B.wav","null","","","","","","",""
"","","","","","html-keyboard-response","205","2.0.0","192458","p3jrtd2k7rr","mus","penguin","19","female","yes","yes","12","2-3 hr","null","","null","","","","","","",""
"","","","","","image-keyboard-response","206","2.0.0","193346","p3jrtd2k7rr","mus","penguin","19","female","yes","yes","12","2-3 hr","885","stimuli/pictures/drum_kit_2.jpg","0","0","","true","no","sound","stimuli/sounds/flute_label_B.wav",""
"","","","","","audio-keyboard-response","207","2.0.0","194349","p3jrtd2k7rr","mus","penguin","19","female","yes","yes","12","2-3 hr","null","stimuli/sounds/bleep.wav","null","","","","","","",""
"","","","","","html-keyboard-response","208","2.0.0","195254","p3jrtd2k7rr","mus","penguin","19","female","yes","yes","12","2-3 hr","803","<div style=""font-size:30px;"">Press space to start the trial</div>"," ","","","","","","",""
"","","","","","html-keyboard-response","209","2.0.0","195506","p3jrtd2k7rr","mus","penguin","19","female","yes","yes","12","2-3 hr","null","<div style=""font-size:60px;"">+</div>","null","","","","","","",""
"","","","","","audio-keyboard-response","210","2.0.0","196111","p3jrtd2k7rr","mus","penguin","19","female","yes","yes","12","2-3 hr","null","stimuli/sounds/phone_label_A.wav","null","","","","","","",""
"","","","","","html-keyboard-response","211","2.0.0","197113","p3jrtd2k7rr","mus","penguin","19","female","yes","yes","12","2-3 hr","null","","null","","","","","","",""
"","","","","","image-keyboard-response","212","2.0.0","197605","p3jrtd2k7rr","mus","penguin","19","female","yes","yes","12","2-3 hr","490","stimuli/pictures/phone_cell_1.jpg","1","1","","true","yes","sound","stimuli/sounds/phone_label_A.wav",""
"","","","","","audio-keyboard-response","213","2.0.0","198609","p3jrtd2k7rr","mus","penguin","19","female","yes","yes","12","2-3 hr","null","stimuli/sounds/bleep.wav","null","","","","","","",""
"","","","","","html-keyboard-response","214","2.0.0","199070","p3jrtd2k7rr","mus","penguin","19","female","yes","yes","12","2-3 hr","360","<div style=""font-size:30px;"">Press space to start the trial</div>"," ","","","","","","",""
"","","","","","html-keyboard-response","215","2.0.0","199322","p3jrtd2k7rr","mus","penguin","19","female","yes","yes","12","2-3 hr","null","<div style=""font-size:60px;"">+</div>","null","","","","","","",""
"","","","","","audio-keyboard-response","216","2.0.0","199919","p3jrtd2k7rr","mus","penguin","19","female","yes","yes","12","2-3 hr","null","stimuli/sounds/piano_label_B.wav","null","","","","","","",""
"","","","","","html-keyboard-response","217","2.0.0","200921","p3jrtd2k7rr","mus","penguin","19","female","yes","yes","12","2-3 hr","null","","null","","","","","","",""
"","","","","","image-keyboard-response","218","2.0.0","201376","p3jrtd2k7rr","mus","penguin","19","female","yes","yes","12","2-3 hr","454","stimuli/pictures/piano_grand_1.jpg","1","1","","true","yes","sound","stimuli/sounds/piano_label_B.wav",""
"","","","","","audio-keyboard-response","219","2.0.0","202379","p3jrtd2k7rr","mus","penguin","19","female","yes","yes","12","2-3 hr","null","stimuli/sounds/bleep.wav","null","","","","","","",""
"","","","","","html-keyboard-response","220","2.0.0","203134","p3jrtd2k7rr","mus","penguin","19","female","yes","yes","12","2-3 hr","653","<div style=""font-size:30px;"">Press space to start the trial</div>"," ","","","","","","",""
"","","","","","html-keyboard-response","221","2.0.0","203386","p3jrtd2k7rr","mus","penguin","19","female","yes","yes","12","2-3 hr","null","<div style=""font-size:60px;"">+</div>","null","","","","","","",""
"","","","","","audio-keyboard-response","222","2.0.0","203994","p3jrtd2k7rr","mus","penguin","19","female","yes","yes","12","2-3 hr","null","stimuli/sounds/drum_sound_B.wav","null","","","","","","",""
"","","","","","html-keyboard-response","223","2.0.0","204995","p3jrtd2k7rr","mus","penguin","19","female","yes","yes","12","2-3 hr","null","","null","","","","","","",""
"","","","","","image-keyboard-response","224","2.0.0","205602","p3jrtd2k7rr","mus","penguin","19","female","yes","yes","12","2-3 hr","605","stimuli/pictures/drum_kit_2.jpg","1","1","","true","no","sound","stimuli/sounds/drum_sound_B.wav",""
"","","","","","audio-keyboard-response","225","2.0.0","206605","p3jrtd2k7rr","mus","penguin","19","female","yes","yes","12","2-3 hr","null","stimuli/sounds/bleep.wav","null","","","","","","",""
"","","","","","html-keyboard-response","226","2.0.0","207103","p3jrtd2k7rr","mus","penguin","19","female","yes","yes","12","2-3 hr","396","<div style=""font-size:30px;"">Press space to start the trial</div>"," ","","","","","","",""
"","","","","","html-keyboard-response","227","2.0.0","207356","p3jrtd2k7rr","mus","penguin","19","female","yes","yes","12","2-3 hr","null","<div style=""font-size:60px;"">+</div>","null","","","","","","",""
"","","","","","audio-keyboard-response","228","2.0.0","207957","p3jrtd2k7rr","mus","penguin","19","female","yes","yes","12","2-3 hr","null","stimuli/sounds/bird_sound_B.wav","null","","","","","","",""
"","","","","","html-keyboard-response","229","2.0.0","208959","p3jrtd2k7rr","mus","penguin","19","female","yes","yes","12","2-3 hr","null","","null","","","","","","",""
"","","","","","image-keyboard-response","230","2.0.0","209442","p3jrtd2k7rr","mus","penguin","19","female","yes","yes","12","2-3 hr","481","stimuli/pictures/bird_hawk_1.jpg","0","1","","false","no","sound","stimuli/sounds/bird_sound_B.wav",""
"","","","","","audio-keyboard-response","231","2.0.0","210445","p3jrtd2k7rr","mus","penguin","19","female","yes","yes","12","2-3 hr","null","stimuli/sounds/buzz.wav","null","","","","","","",""
"","","","","","html-keyboard-response","232","2.0.0","211139","p3jrtd2k7rr","mus","penguin","19","female","yes","yes","12","2-3 hr","592","<div style=""font-size:30px;"">Press space to start the trial</div>"," ","","","","","","",""
"","","","","","html-keyboard-response","233","2.0.0","211391","p3jrtd2k7rr","mus","penguin","19","female","yes","yes","12","2-3 hr","null","<div style=""font-size:60px;"">+</div>","null","","","","","","",""
"","","","","","audio-keyboard-response","234","2.0.0","211988","p3jrtd2k7rr","mus","penguin","19","female","yes","yes","12","2-3 hr","null","stimuli/sounds/piano_sound_B.wav","null","","","","","","",""
"","","","","","html-keyboard-response","235","2.0.0","212990","p3jrtd2k7rr","mus","penguin","19","female","yes","yes","12","2-3 hr","null","","null","","","","","","",""
"","","","","","image-keyboard-response","236","2.0.0","213517","p3jrtd2k7rr","mus","penguin","19","female","yes","yes","12","2-3 hr","524","stimuli/pictures/flute_wooden_2.jpg","0","0","","true","no","sound","stimuli/sounds/piano_sound_B.wav",""
"","","","","","audio-keyboard-response","237","2.0.0","214520","p3jrtd2k7rr","mus","penguin","19","female","yes","yes","12","2-3 hr","null","stimuli/sounds/bleep.wav","null","","","","","","",""
"","","","","","html-keyboard-response","238","2.0.0","215000","p3jrtd2k7rr","mus","penguin","19","female","yes","yes","12","2-3 hr","378","<div style=""font-size:30px;"">Press space to start the trial</div>"," ","","","","","","",""
"","","","","","html-keyboard-response","239","2.0.0","215253","p3jrtd2k7rr","mus","penguin","19","female","yes","yes","12","2-3 hr","null","<div style=""font-size:60px;"">+</div>","null","","","","","","",""
"","","","","","audio-keyboard-response","240","2.0.0","215855","p3jrtd2k7rr","mus","penguin","19","female","yes","yes","12","2-3 hr","null","stimuli/sounds/bird_label_A.wav","null","","","","","","",""
"","","","","","html-keyboard-response","241","2.0.0","216858","p3jrtd2k7rr","mus","penguin","19","female","yes","yes","12","2-3 hr","null","","null","","","","","","",""
"","","","","","image-keyboard-response","242","2.0.0","217455","p3jrtd2k7rr","mus","penguin","19","female","yes","yes","12","2-3 hr","596","stimuli/pictures/flute_metal_2.jpg","0","0","","true","no","sound","stimuli/sounds/bird_label_A.wav",""
"","","","","","audio-keyboard-response","243","2.0.0","218458","p3jrtd2k7rr","mus","penguin","19","female","yes","yes","12","2-3 hr","null","stimuli/sounds/bleep.wav","null","","","","","","",""
"","","","","","html-keyboard-response","244","2.0.0","218922","p3jrtd2k7rr","mus","penguin","19","female","yes","yes","12","2-3 hr","362","<div style=""font-size:30px;"">Press space to start the trial</div>"," ","","","","","","",""
"","","","","","html-keyboard-response","245","2.0.0","219174","p3jrtd2k7rr","mus","penguin","19","female","yes","yes","12","2-3 hr","null","<div style=""font-size:60px;"">+</div>","null","","","","","","",""
"","","","","","audio-keyboard-response","246","2.0.0","219780","p3jrtd2k7rr","mus","penguin","19","female","yes","yes","12","2-3 hr","null","stimuli/sounds/flute_label_B.wav","null","","","","","","",""
"","","","","","html-keyboard-response","247","2.0.0","220783","p3jrtd2k7rr","mus","penguin","19","female","yes","yes","12","2-3 hr","null","","null","","","","","","",""
"","","","","","image-keyboard-response","248","2.0.0","221246","p3jrtd2k7rr","mus","penguin","19","female","yes","yes","12","2-3 hr","461","stimuli/pictures/flute_metal_2.jpg","0","1","","false","yes","sound","stimuli/sounds/flute_label_B.wav",""
"","","","","","audio-keyboard-response","249","2.0.0","222249","p3jrtd2k7rr","mus","penguin","19","female","yes","yes","12","2-3 hr","null","stimuli/sounds/buzz.wav","null","","","","","","",""
"","","","","","html-keyboard-response","250","2.0.0","222764","p3jrtd2k7rr","mus","penguin","19","female","yes","yes","12","2-3 hr","413","<div style=""font-size:30px;"">Press space to start the trial</div>"," ","","","","","","",""
"","","","","","html-keyboard-response","251","2.0.0","223017","p3jrtd2k7rr","mus","penguin","19","female","yes","yes","12","2-3 hr","null","<div style=""font-size:60px;"">+</div>","null","","","","","","",""
"","","","","","audio-keyboard-response","252","2.0.0","223620","p3jrtd2k7rr","mus","penguin","19","female","yes","yes","12","2-3 hr","null","stimuli/sounds/drum_label_A.wav","null","","","","","","",""
"","","","","","html-keyboard-response","253","2.0.0","224622","p3jrtd2k7rr","mus","penguin","19","female","yes","yes","12","2-3 hr","null","","null","","","","","","",""
"","","","","","image-keyboard-response","254","2.0.0","225253","p3jrtd2k7rr","mus","penguin","19","female","yes","yes","12","2-3 hr","629","stimuli/pictures/bird_hawk_1.jpg","0","0","","true","no","sound","stimuli/sounds/drum_label_A.wav",""
"","","","","","audio-keyboard-response","255","2.0.0","226255","p3jrtd2k7rr","mus","penguin","19","female","yes","yes","12","2-3 hr","null","stimuli/sounds/bleep.wav","null","","","","","","",""
"","","","","","html-keyboard-response","256","2.0.0","226725","p3jrtd2k7rr","mus","penguin","19","female","yes","yes","12","2-3 hr","368","<div style=""font-size:30px;"">Press space to start the trial</div>"," ","","","","","","",""
"","","","","","html-keyboard-response","257","2.0.0","226978","p3jrtd2k7rr","mus","penguin","19","female","yes","yes","12","2-3 hr","null","<div style=""font-size:60px;"">+</div>","null","","","","","","",""
"","","","","","audio-keyboard-response","258","2.0.0","227578","p3jrtd2k7rr","mus","penguin","19","female","yes","yes","12","2-3 hr","null","stimuli/sounds/phone_sound_A.wav","null","","","","","","",""
"","","","","","html-keyboard-response","259","2.0.0","228580","p3jrtd2k7rr","mus","penguin","19","female","yes","yes","12","2-3 hr","null","","null","","","","","","",""
"","","","","","image-keyboard-response","260","2.0.0","228989","p3jrtd2k7rr","mus","penguin","19","female","yes","yes","12","2-3 hr","407","stimuli/pictures/phone_cell_1.jpg","1","1","","true","yes","sound","stimuli/sounds/phone_sound_A.wav",""
"","","","","","audio-keyboard-response","261","2.0.0","229992","p3jrtd2k7rr","mus","penguin","19","female","yes","yes","12","2-3 hr","null","stimuli/sounds/bleep.wav","null","","","","","","",""
"","","","","","html-keyboard-response","262","2.0.0","230481","p3jrtd2k7rr","mus","penguin","19","female","yes","yes","12","2-3 hr","387","<div style=""font-size:30px;"">Press space to start the trial</div>"," ","","","","","","",""
"","","","","","html-keyboard-response","263","2.0.0","230733","p3jrtd2k7rr","mus","penguin","19","female","yes","yes","12","2-3 hr","null","<div style=""font-size:60px;"">+</div>","null","","","","","","",""
"","","","","","audio-keyboard-response","264","2.0.0","231343","p3jrtd2k7rr","mus","penguin","19","female","yes","yes","12","2-3 hr","null","stimuli/sounds/flute_label_B.wav","null","","","","","","",""
"","","","","","html-keyboard-response","265","2.0.0","232346","p3jrtd2k7rr","mus","penguin","19","female","yes","yes","12","2-3 hr","null","","null","","","","","","",""
"","","","","","image-keyboard-response","266","2.0.0","232891","p3jrtd2k7rr","mus","penguin","19","female","yes","yes","12","2-3 hr","543","stimuli/pictures/drum_bongo_2.jpg","1","0","","false","no","sound","stimuli/sounds/flute_label_B.wav",""
"","","","","","audio-keyboard-response","267","2.0.0","233893","p3jrtd2k7rr","mus","penguin","19","female","yes","yes","12","2-3 hr","null","stimuli/sounds/buzz.wav","null","","","","","","",""
"","","","","","html-keyboard-response","268","2.0.0","236365","p3jrtd2k7rr","mus","penguin","19","female","yes","yes","12","2-3 hr","2368","<p>You have completed a block. Press R when you are ready to continue</p>","r","","","","","","",""
"","","","","","html-keyboard-response","269","2.0.0","237561","p3jrtd2k7rr","mus","penguin","19","female","yes","yes","12","2-3 hr","1195","<div style=""font-size:30px;"">Press space to start the trial</div>"," ","","","","","","",""
"","","","","","html-keyboard-response","270","2.0.0","237813","p3jrtd2k7rr","mus","penguin","19","female","yes","yes","12","2-3 hr","null","<div style=""font-size:60px;"">+</div>","null","","","","","","",""
"","","","","","audio-keyboard-response","271","2.0.0","238415","p3jrtd2k7rr","mus","penguin","19","female","yes","yes","12","2-3 hr","null","stimuli/sounds/phone_sound_B.wav","null","","","","","","",""
"","","","","","html-keyboard-response","272","2.0.0","239418","p3jrtd2k7rr","mus","penguin","19","female","yes","yes","12","2-3 hr","null","","null","","","","","","",""
"","","","","","image-keyboard-response","273","2.0.0","239987","p3jrtd2k7rr","mus","penguin","19","female","yes","yes","12","2-3 hr","567","stimuli/pictures/piano_grand_2.jpg","0","0","","true","no","sound","stimuli/sounds/phone_sound_B.wav",""
"","","","","","audio-keyboard-response","274","2.0.0","240990","p3jrtd2k7rr","mus","penguin","19","female","yes","yes","12","2-3 hr","null","stimuli/sounds/bleep.wav","null","","","","","","",""
"","","","","","html-keyboard-response","275","2.0.0","241579","p3jrtd2k7rr","mus","penguin","19","female","yes","yes","12","2-3 hr","487","<div style=""font-size:30px;"">Press space to start the trial</div>"," ","","","","","","",""
"","","","","","html-keyboard-response","276","2.0.0","241831","p3jrtd2k7rr","mus","penguin","19","female","yes","yes","12","2-3 hr","null","<div style=""font-size:60px;"">+</div>","null","","","","","","",""
"","","","","","audio-keyboard-response","277","2.0.0","242431","p3jrtd2k7rr","mus","penguin","19","female","yes","yes","12","2-3 hr","null","stimuli/sounds/phone_label_A.wav","null","","","","","","",""
"","","","","","html-keyboard-response","278","2.0.0","243432","p3jrtd2k7rr","mus","penguin","19","female","yes","yes","12","2-3 hr","null","","null","","","","","","",""
"","","","","","image-keyboard-response","279","2.0.0","243965","p3jrtd2k7rr","mus","penguin","19","female","yes","yes","12","2-3 hr","531","stimuli/pictures/drum_kit_2.jpg","0","0","","true","no","sound","stimuli/sounds/phone_label_A.wav",""
"","","","","","audio-keyboard-response","280","2.0.0","244968","p3jrtd2k7rr","mus","penguin","19","female","yes","yes","12","2-3 hr","null","stimuli/sounds/bleep.wav","null","","","","","","",""
"","","","","","html-keyboard-response","281","2.0.0","245898","p3jrtd2k7rr","mus","penguin","19","female","yes","yes","12","2-3 hr","828","<div style=""font-size:30px;"">Press space to start the trial</div>"," ","","","","","","",""
"","","","","","html-keyboard-response","282","2.0.0","246150","p3jrtd2k7rr","mus","penguin","19","female","yes","yes","12","2-3 hr","null","<div style=""font-size:60px;"">+</div>","null","","","","","","",""
"","","","","","audio-keyboard-response","283","2.0.0","246783","p3jrtd2k7rr","mus","penguin","19","female","yes","yes","12","2-3 hr","null","stimuli/sounds/piano_label_A.wav","null","","","","","","",""
"","","","","","html-keyboard-response","284","2.0.0","247786","p3jrtd2k7rr","mus","penguin","19","female","yes","yes","12","2-3 hr","null","","null","","","","","","",""
"","","","","","image-keyboard-response","285","2.0.0","248199","p3jrtd2k7rr","mus","penguin","19","female","yes","yes","12","2-3 hr","412","stimuli/pictures/piano_grand_1.jpg","1","1","","true","yes","sound","stimuli/sounds/piano_label_A.wav",""
"","","","","","audio-keyboard-response","286","2.0.0","249202","p3jrtd2k7rr","mus","penguin","19","female","yes","yes","12","2-3 hr","null","stimuli/sounds/bleep.wav","null","","","","","","",""
"","","","","","html-keyboard-response","287","2.0.0","249897","p3jrtd2k7rr","mus","penguin","19","female","yes","yes","12","2-3 hr","593","<div style=""font-size:30px;"">Press space to start the trial</div>"," ","","","","","","",""
"","","","","","html-keyboard-response","288","2.0.0","250149","p3jrtd2k7rr","mus","penguin","19","female","yes","yes","12","2-3 hr","null","<div style=""font-size:60px;"">+</div>","null","","","","","","",""
"","","","","","audio-keyboard-response","289","2.0.0","250751","p3jrtd2k7rr","mus","penguin","19","female","yes","yes","12","2-3 hr","null","stimuli/sounds/phone_sound_A.wav","null","","","","","","",""
"","","","","","html-keyboard-response","290","2.0.0","251753","p3jrtd2k7rr","mus","penguin","19","female","yes","yes","12","2-3 hr","null","","null","","","","","","",""
"","","","","","image-keyboard-response","291","2.0.0","252788","p3jrtd2k7rr","mus","penguin","19","female","yes","yes","12","2-3 hr","1033","stimuli/pictures/bird_hawk_1.jpg","0","0","","true","no","sound","stimuli/sounds/phone_sound_A.wav",""
"","","","","","audio-keyboard-response","292","2.0.0","253791","p3jrtd2k7rr","mus","penguin","19","female","yes","yes","12","2-3 hr","null","stimuli/sounds/bleep.wav","null","","","","","","",""
"","","","","","html-keyboard-response","293","2.0.0","254402","p3jrtd2k7rr","mus","penguin","19","female","yes","yes","12","2-3 hr","509","<div style=""font-size:30px;"">Press space to start the trial</div>"," ","","","","","","",""
"","","","","","html-keyboard-response","294","2.0.0","254655","p3jrtd2k7rr","mus","penguin","19","female","yes","yes","12","2-3 hr","null","<div style=""font-size:60px;"">+</div>","null","","","","","","",""
"","","","","","audio-keyboard-response","295","2.0.0","255252","p3jrtd2k7rr","mus","penguin","19","female","yes","yes","12","2-3 hr","null","stimuli/sounds/piano_sound_B.wav","null","","","","","","",""
"","","","","","html-keyboard-response","296","2.0.0","256254","p3jrtd2k7rr","mus","penguin","19","female","yes","yes","12","2-3 hr","null","","null","","","","","","",""
"","","","","","image-keyboard-response","297","2.0.0","256815","p3jrtd2k7rr","mus","penguin","19","female","yes","yes","12","2-3 hr","559","stimuli/pictures/piano_grand_2.jpg","1","1","","true","no","sound","stimuli/sounds/piano_sound_B.wav",""
"","","","","","audio-keyboard-response","298","2.0.0","257818","p3jrtd2k7rr","mus","penguin","19","female","yes","yes","12","2-3 hr","null","stimuli/sounds/bleep.wav","null","","","","","","",""
"","","","","","html-keyboard-response","299","2.0.0","258407","p3jrtd2k7rr","mus","penguin","19","female","yes","yes","12","2-3 hr","486","<div style=""font-size:30px;"">Press space to start the trial</div>"," ","","","","","","",""
"","","","","","html-keyboard-response","300","2.0.0","258659","p3jrtd2k7rr","mus","penguin","19","female","yes","yes","12","2-3 hr","null","<div style=""font-size:60px;"">+</div>","null","","","","","","",""
"","","","","","audio-keyboard-response","301","2.0.0","259273","p3jrtd2k7rr","mus","penguin","19","female","yes","yes","12","2-3 hr","null","stimuli/sounds/flute_sound_B.wav","null","","","","","","",""
"","","","","","html-keyboard-response","302","2.0.0","260275","p3jrtd2k7rr","mus","penguin","19","female","yes","yes","12","2-3 hr","null","","null","","","","","","",""
"","","","","","image-keyboard-response","303","2.0.0","261147","p3jrtd2k7rr","mus","penguin","19","female","yes","yes","12","2-3 hr","868","stimuli/pictures/flute_metal_2.jpg","1","1","","true","no","sound","stimuli/sounds/flute_sound_B.wav",""
"","","","","","audio-keyboard-response","304","2.0.0","262150","p3jrtd2k7rr","mus","penguin","19","female","yes","yes","12","2-3 hr","null","stimuli/sounds/bleep.wav","null","","","","","","",""
"","","","","","html-keyboard-response","305","2.0.0","262613","p3jrtd2k7rr","mus","penguin","19","female","yes","yes","12","2-3 hr","360","<div style=""font-size:30px;"">Press space to start the trial</div>"," ","","","","","","",""
"","","","","","html-keyboard-response","306","2.0.0","262865","p3jrtd2k7rr","mus","penguin","19","female","yes","yes","12","2-3 hr","null","<div style=""font-size:60px;"">+</div>","null","","","","","","",""
"","","","","","audio-keyboard-response","307","2.0.0","263470","p3jrtd2k7rr","mus","penguin","19","female","yes","yes","12","2-3 hr","null","stimuli/sounds/flute_sound_B.wav","null","","","","","","",""
"","","","","","html-keyboard-response","308","2.0.0","264472","p3jrtd2k7rr","mus","penguin","19","female","yes","yes","12","2-3 hr","null","","null","","","","","","",""
"","","","","","image-keyboard-response","309","2.0.0","264935","p3jrtd2k7rr","mus","penguin","19","female","yes","yes","12","2-3 hr","461","stimuli/pictures/bird_song_2.jpg","0","0","","true","no","sound","stimuli/sounds/flute_sound_B.wav",""
"","","","","","audio-keyboard-response","310","2.0.0","265938","p3jrtd2k7rr","mus","penguin","19","female","yes","yes","12","2-3 hr","null","stimuli/sounds/bleep.wav","null","","","","","","",""
"","","","","","html-keyboard-response","311","2.0.0","266343","p3jrtd2k7rr","mus","penguin","19","female","yes","yes","12","2-3 hr","303","<div style=""font-size:30px;"">Press space to start the trial</div>"," ","","","","","","",""
"","","","","","html-keyboard-response","312","2.0.0","266595","p3jrtd2k7rr","mus","penguin","19","female","yes","yes","12","2-3 hr","null","<div style=""font-size:60px;"">+</div>","null","","","","","","",""
"","","","","","audio-keyboard-response","313","2.0.0","267198","p3jrtd2k7rr","mus","penguin","19","female","yes","yes","12","2-3 hr","null","stimuli/sounds/flute_label_A.wav","null","","","","","","",""
"","","","","","html-keyboard-response","314","2.0.0","268200","p3jrtd2k7rr","mus","penguin","19","female","yes","yes","12","2-3 hr","null","","null","","","","","","",""
"","","","","","image-keyboard-response","315","2.0.0","268931","p3jrtd2k7rr","mus","penguin","19","female","yes","yes","12","2-3 hr","729","stimuli/pictures/piano_grand_2.jpg","0","0","","true","no","sound","stimuli/sounds/flute_label_A.wav",""
"","","","","","audio-keyboard-response","316","2.0.0","269934","p3jrtd2k7rr","mus","penguin","19","female","yes","yes","12","2-3 hr","null","stimuli/sounds/bleep.wav","null","","","","","","",""
"","","","","","html-keyboard-response","317","2.0.0","270602","p3jrtd2k7rr","mus","penguin","19","female","yes","yes","12","2-3 hr","566","<div style=""font-size:30px;"">Press space to start the trial</div>"," ","","","","","","",""
"","","","","","html-keyboard-response","318","2.0.0","270855","p3jrtd2k7rr","mus","penguin","19","female","yes","yes","12","2-3 hr","null","<div style=""font-size:60px;"">+</div>","null","","","","","","",""
"","","","","","audio-keyboard-response","319","2.0.0","271454","p3jrtd2k7rr","mus","penguin","19","female","yes","yes","12","2-3 hr","null","stimuli/sounds/bird_sound_A.wav","null","","","","","","",""
"","","","","","html-keyboard-response","320","2.0.0","272456","p3jrtd2k7rr","mus","penguin","19","female","yes","yes","12","2-3 hr","null","","null","","","","","","",""
"","","","","","image-keyboard-response","321","2.0.0","274159","p3jrtd2k7rr","mus","penguin","19","female","yes","yes","12","2-3 hr","1701","stimuli/pictures/bird_hawk_1.jpg","1","1","","true","yes","sound","stimuli/sounds/bird_sound_A.wav",""
"","","","","","audio-keyboard-response","322","2.0.0","275161","p3jrtd2k7rr","mus","penguin","19","female","yes","yes","12","2-3 hr","null","stimuli/sounds/bleep.wav","null","","","","","","",""
"","","","","","html-keyboard-response","323","2.0.0","275640","p3jrtd2k7rr","mus","penguin","19","female","yes","yes","12","2-3 hr","377","<div style=""font-size:30px;"">Press space to start the trial</div>"," ","","","","","","",""
"","","","","","html-keyboard-response","324","2.0.0","275893","p3jrtd2k7rr","mus","penguin","19","female","yes","yes","12","2-3 hr","null","<div style=""font-size:60px;"">+</div>","null","","","","","","",""
"","","","","","audio-keyboard-response","325","2.0.0","276499","p3jrtd2k7rr","mus","penguin","19","female","yes","yes","12","2-3 hr","null","stimuli/sounds/flute_label_B.wav","null","","","","","","",""
"","","","","","html-keyboard-response","326","2.0.0","277501","p3jrtd2k7rr","mus","penguin","19","female","yes","yes","12","2-3 hr","null","","null","","","","","","",""
"","","","","","image-keyboard-response","327","2.0.0","278309","p3jrtd2k7rr","mus","penguin","19","female","yes","yes","12","2-3 hr","806","stimuli/pictures/flute_wooden_2.jpg","0","1","","false","yes","sound","stimuli/sounds/flute_label_B.wav",""
"","","","","","audio-keyboard-response","328","2.0.0","279311","p3jrtd2k7rr","mus","penguin","19","female","yes","yes","12","2-3 hr","null","stimuli/sounds/buzz.wav","null","","","","","","",""
"","","","","","html-keyboard-response","329","2.0.0","279778","p3jrtd2k7rr","mus","penguin","19","female","yes","yes","12","2-3 hr","364","<div style=""font-size:30px;"">Press space to start the trial</div>"," ","","","","","","",""
"","","","","","html-keyboard-response","330","2.0.0","280030","p3jrtd2k7rr","mus","penguin","19","female","yes","yes","12","2-3 hr","null","<div style=""font-size:60px;"">+</div>","null","","","","","","",""
"","","","","","audio-keyboard-response","331","2.0.0","280633","p3jrtd2k7rr","mus","penguin","19","female","yes","yes","12","2-3 hr","null","stimuli/sounds/bird_label_A.wav","null","","","","","","",""
"","","","","","html-keyboard-response","332","2.0.0","281635","p3jrtd2k7rr","mus","penguin","19","female","yes","yes","12","2-3 hr","null","","null","","","","","","",""
"","","","","","image-keyboard-response","333","2.0.0","282207","p3jrtd2k7rr","mus","penguin","19","female","yes","yes","12","2-3 hr","570","stimuli/pictures/flute_metal_1.jpg","0","0","","true","no","sound","stimuli/sounds/bird_label_A.wav",""
"","","","","","audio-keyboard-response","334","2.0.0","283209","p3jrtd2k7rr","mus","penguin","19","female","yes","yes","12","2-3 hr","null","stimuli/sounds/bleep.wav","null","","","","","","",""
"","","","","","html-keyboard-response","335","2.0.0","283679","p3jrtd2k7rr","mus","penguin","19","female","yes","yes","12","2-3 hr","367","<div style=""font-size:30px;"">Press space to start the trial</div>"," ","","","","","","",""
"","","","","","html-keyboard-response","336","2.0.0","283930","p3jrtd2k7rr","mus","penguin","19","female","yes","yes","12","2-3 hr","null","<div style=""font-size:60px;"">+</div>","null","","","","","","",""
"","","","","","audio-keyboard-response","337","2.0.0","284537","p3jrtd2k7rr","mus","penguin","19","female","yes","yes","12","2-3 hr","null","stimuli/sounds/flute_label_A.wav","null","","","","","","",""
"","","","","","html-keyboard-response","338","2.0.0","285539","p3jrtd2k7rr","mus","penguin","19","female","yes","yes","12","2-3 hr","null","","null","","","","","","",""
"","","","","","image-keyboard-response","339","2.0.0","286027","p3jrtd2k7rr","mus","penguin","19","female","yes","yes","12","2-3 hr","486","stimuli/pictures/flute_metal_2.jpg","0","1","","false","yes","sound","stimuli/sounds/flute_label_A.wav",""
"","","","","","audio-keyboard-response","340","2.0.0","287030","p3jrtd2k7rr","mus","penguin","19","female","yes","yes","12","2-3 hr","null","stimuli/sounds/buzz.wav","null","","","","","","",""
"","","","","","html-keyboard-response","341","2.0.0","287484","p3jrtd2k7rr","mus","penguin","19","female","yes","yes","12","2-3 hr","352","<div style=""font-size:30px;"">Press space to start the trial</div>"," ","","","","","","",""
"","","","","","html-keyboard-response","342","2.0.0","287738","p3jrtd2k7rr","mus","penguin","19","female","yes","yes","12","2-3 hr","null","<div style=""font-size:60px;"">+</div>","null","","","","","","",""
"","","","","","audio-keyboard-response","343","2.0.0","288339","p3jrtd2k7rr","mus","penguin","19","female","yes","yes","12","2-3 hr","null","stimuli/sounds/bird_sound_A.wav","null","","","","","","",""
"","","","","","html-keyboard-response","344","2.0.0","289342","p3jrtd2k7rr","mus","penguin","19","female","yes","yes","12","2-3 hr","null","","null","","","","","","",""
"","","","","","image-keyboard-response","345","2.0.0","290317","p3jrtd2k7rr","mus","penguin","19","female","yes","yes","12","2-3 hr","973","stimuli/pictures/piano_grand_2.jpg","0","0","","true","no","sound","stimuli/sounds/bird_sound_A.wav",""
"","","","","","audio-keyboard-response","346","2.0.0","291319","p3jrtd2k7rr","mus","penguin","19","female","yes","yes","12","2-3 hr","null","stimuli/sounds/bleep.wav","null","","","","","","",""
"","","","","","html-keyboard-response","347","2.0.0","291721","p3jrtd2k7rr","mus","penguin","19","female","yes","yes","12","2-3 hr","300","<div style=""font-size:30px;"">Press space to start the trial</div>"," ","","","","","","",""
"","","","","","html-keyboard-response","348","2.0.0","291974","p3jrtd2k7rr","mus","penguin","19","female","yes","yes","12","2-3 hr","null","<div style=""font-size:60px;"">+</div>","null","","","","","","",""
"","","","","","audio-keyboard-response","349","2.0.0","292579","p3jrtd2k7rr","mus","penguin","19","female","yes","yes","12","2-3 hr","null","stimuli/sounds/drum_sound_A.wav","null","","","","","","",""
"","","","","","html-keyboard-response","350","2.0.0","293582","p3jrtd2k7rr","mus","penguin","19","female","yes","yes","12","2-3 hr","null","","null","","","","","","",""
"","","","","","image-keyboard-response","351","2.0.0","294146","p3jrtd2k7rr","mus","penguin","19","female","yes","yes","12","2-3 hr","562","stimuli/pictures/flute_metal_2.jpg","0","0","","true","no","sound","stimuli/sounds/drum_sound_A.wav",""
"","","","","","audio-keyboard-response","352","2.0.0","295148","p3jrtd2k7rr","mus","penguin","19","female","yes","yes","12","2-3 hr","null","stimuli/sounds/bleep.wav","null","","","","","","",""
"","","","","","html-keyboard-response","353","2.0.0","295543","p3jrtd2k7rr","mus","penguin","19","female","yes","yes","12","2-3 hr","293","<div style=""font-size:30px;"">Press space to start the trial</div>"," ","","","","","","",""
"","","","","","html-keyboard-response","354","2.0.0","295796","p3jrtd2k7rr","mus","penguin","19","female","yes","yes","12","2-3 hr","null","<div style=""font-size:60px;"">+</div>","null","","","","","","",""
"","","","","","audio-keyboard-response","355","2.0.0","296398","p3jrtd2k7rr","mus","penguin","19","female","yes","yes","12","2-3 hr","null","stimuli/sounds/flute_label_A.wav","null","","","","","","",""
"","","","","","html-keyboard-response","356","2.0.0","297400","p3jrtd2k7rr","mus","penguin","19","female","yes","yes","12","2-3 hr","null","","null","","","","","","",""
"","","","","","image-keyboard-response","357","2.0.0","297946","p3jrtd2k7rr","mus","penguin","19","female","yes","yes","12","2-3 hr","544","stimuli/pictures/piano_electric_1.jpg","1","0","","false","no","sound","stimuli/sounds/flute_label_A.wav",""
"","","","","","audio-keyboard-response","358","2.0.0","298949","p3jrtd2k7rr","mus","penguin","19","female","yes","yes","12","2-3 hr","null","stimuli/sounds/buzz.wav","null","","","","","","",""
"","","","","","html-keyboard-response","359","2.0.0","299471","p3jrtd2k7rr","mus","penguin","19","female","yes","yes","12","2-3 hr","420","<div style=""font-size:30px;"">Press space to start the trial</div>"," ","","","","","","",""
"","","","","","html-keyboard-response","360","2.0.0","299723","p3jrtd2k7rr","mus","penguin","19","female","yes","yes","12","2-3 hr","null","<div style=""font-size:60px;"">+</div>","null","","","","","","",""
"","","","","","audio-keyboard-response","361","2.0.0","300323","p3jrtd2k7rr","mus","penguin","19","female","yes","yes","12","2-3 hr","null","stimuli/sounds/bird_label_B.wav","null","","","","","","",""
"","","","","","html-keyboard-response","362","2.0.0","301325","p3jrtd2k7rr","mus","penguin","19","female","yes","yes","12","2-3 hr","null","","null","","","","","","",""
"","","","","","image-keyboard-response","363","2.0.0","302101","p3jrtd2k7rr","mus","penguin","19","female","yes","yes","12","2-3 hr","774","stimuli/pictures/bird_song_2.jpg","1","1","","true","yes","sound","stimuli/sounds/bird_label_B.wav",""
"","","","","","audio-keyboard-response","364","2.0.0","303104","p3jrtd2k7rr","mus","penguin","19","female","yes","yes","12","2-3 hr","null","stimuli/sounds/bleep.wav","null","","","","","","",""
"","","","","","html-keyboard-response","365","2.0.0","303587","p3jrtd2k7rr","mus","penguin","19","female","yes","yes","12","2-3 hr","380","<div style=""font-size:30px;"">Press space to start the trial</div>"," ","","","","","","",""
"","","","","","html-keyboard-response","366","2.0.0","303841","p3jrtd2k7rr","mus","penguin","19","female","yes","yes","12","2-3 hr","null","<div style=""font-size:60px;"">+</div>","null","","","","","","",""
"","","","","","audio-keyboard-response","367","2.0.0","304445","p3jrtd2k7rr","mus","penguin","19","female","yes","yes","12","2-3 hr","null","stimuli/sounds/drum_sound_A.wav","null","","","","","","",""
"","","","","","html-keyboard-response","368","2.0.0","305448","p3jrtd2k7rr","mus","penguin","19","female","yes","yes","12","2-3 hr","null","","null","","","","","","",""
"","","","","","image-keyboard-response","369","2.0.0","306179","p3jrtd2k7rr","mus","penguin","19","female","yes","yes","12","2-3 hr","730","stimuli/pictures/flute_wooden_2.jpg","0","0","","true","no","sound","stimuli/sounds/drum_sound_A.wav",""
"","","","","","audio-keyboard-response","370","2.0.0","307181","p3jrtd2k7rr","mus","penguin","19","female","yes","yes","12","2-3 hr","null","stimuli/sounds/bleep.wav","null","","","","","","",""
"","","","","","html-keyboard-response","371","2.0.0","307572","p3jrtd2k7rr","mus","penguin","19","female","yes","yes","12","2-3 hr","289","<div style=""font-size:30px;"">Press space to start the trial</div>"," ","","","","","","",""
"","","","","","html-keyboard-response","372","2.0.0","307824","p3jrtd2k7rr","mus","penguin","19","female","yes","yes","12","2-3 hr","null","<div style=""font-size:60px;"">+</div>","null","","","","","","",""
"","","","","","audio-keyboard-response","373","2.0.0","308425","p3jrtd2k7rr","mus","penguin","19","female","yes","yes","12","2-3 hr","null","stimuli/sounds/phone_label_A.wav","null","","","","","","",""
"","","","","","html-keyboard-response","374","2.0.0","309427","p3jrtd2k7rr","mus","penguin","19","female","yes","yes","12","2-3 hr","null","","null","","","","","","",""
"","","","","","image-keyboard-response","375","2.0.0","310605","p3jrtd2k7rr","mus","penguin","19","female","yes","yes","12","2-3 hr","1177","stimuli/pictures/drum_bongo_1.jpg","0","0","","true","no","sound","stimuli/sounds/phone_label_A.wav",""
"","","","","","audio-keyboard-response","376","2.0.0","311608","p3jrtd2k7rr","mus","penguin","19","female","yes","yes","12","2-3 hr","null","stimuli/sounds/bleep.wav","null","","","","","","",""
"","","","","","html-keyboard-response","377","2.0.0","312068","p3jrtd2k7rr","mus","penguin","19","female","yes","yes","12","2-3 hr","357","<div style=""font-size:30px;"">Press space to start the trial</div>"," ","","","","","","",""
"","","","","","html-keyboard-response","378","2.0.0","312321","p3jrtd2k7rr","mus","penguin","19","female","yes","yes","12","2-3 hr","null","<div style=""font-size:60px;"">+</div>","null","","","","","","",""
"","","","","","audio-keyboard-response","379","2.0.0","312920","p3jrtd2k7rr","mus","penguin","19","female","yes","yes","12","2-3 hr","null","stimuli/sounds/drum_sound_B.wav","null","","","","","","",""
"","","","","","html-keyboard-response","380","2.0.0","313923","p3jrtd2k7rr","mus","penguin","19","female","yes","yes","12","2-3 hr","null","","null","","","","","","",""
"","","","","","image-keyboard-response","381","2.0.0","314526","p3jrtd2k7rr","mus","penguin","19","female","yes","yes","12","2-3 hr","602","stimuli/pictures/phone_rotary_1.jpg","0","0","","true","no","sound","stimuli/sounds/drum_sound_B.wav",""
"","","","","","audio-keyboard-response","382","2.0.0","315529","p3jrtd2k7rr","mus","penguin","19","female","yes","yes","12","2-3 hr","null","stimuli/sounds/bleep.wav","null","","","","","","",""
"","","","","","html-keyboard-response","383","2.0.0","315904","p3jrtd2k7rr","mus","penguin","19","female","yes","yes","12","2-3 hr","273","<div style=""font-size:30px;"">Press space to start the trial</div>"," ","","","","","","",""
"","","","","","html-keyboard-response","384","2.0.0","316156","p3jrtd2k7rr","mus","penguin","19","female","yes","yes","12","2-3 hr","null","<div style=""font-size:60px;"">+</div>","null","","","","","","",""
"","","","","","audio-keyboard-response","385","2.0.0","316776","p3jrtd2k7rr","mus","penguin","19","female","yes","yes","12","2-3 hr","null","stimuli/sounds/piano_label_A.wav","null","","","","","","",""
"","","","","","html-keyboard-response","386","2.0.0","317779","p3jrtd2k7rr","mus","penguin","19","female","yes","yes","12","2-3 hr","null","","null","","","","","","",""
"","","","","","image-keyboard-response","387","2.0.0","318475","p3jrtd2k7rr","mus","penguin","19","female","yes","yes","12","2-3 hr","694","stimuli/pictures/phone_cell_1.jpg","0","0","","true","no","sound","stimuli/sounds/piano_label_A.wav",""
"","","","","","audio-keyboard-response","388","2.0.0","319478","p3jrtd2k7rr","mus","penguin","19","female","yes","yes","12","2-3 hr","null","stimuli/sounds/bleep.wav","null","","","","","","",""
"","","","","","html-keyboard-response","389","2.0.0","321304","p3jrtd2k7rr","mus","penguin","19","female","yes","yes","12","2-3 hr","1725","<p>You have completed a block. Press R when you are ready to continue</p>","r","","","","","","",""
"","","","","","html-keyboard-response","390","2.0.0","322509","p3jrtd2k7rr","mus","penguin","19","female","yes","yes","12","2-3 hr","1205","<div style=""font-size:30px;"">Press space to start the trial</div>"," ","","","","","","",""
"","","","","","html-keyboard-response","391","2.0.0","322762","p3jrtd2k7rr","mus","penguin","19","female","yes","yes","12","2-3 hr","null","<div style=""font-size:60px;"">+</div>","null","","","","","","",""
"","","","","","audio-keyboard-response","392","2.0.0","323363","p3jrtd2k7rr","mus","penguin","19","female","yes","yes","12","2-3 hr","null","stimuli/sounds/flute_label_A.wav","null","","","","","","",""
"","","","","","html-keyboard-response","393","2.0.0","324365","p3jrtd2k7rr","mus","penguin","19","female","yes","yes","12","2-3 hr","null","","null","","","","","","",""
"","","","","","image-keyboard-response","394","2.0.0","325087","p3jrtd2k7rr","mus","penguin","19","female","yes","yes","12","2-3 hr","720","stimuli/pictures/piano_grand_1.jpg","0","0","","true","no","sound","stimuli/sounds/flute_label_A.wav",""
"","","","","","audio-keyboard-response","395","2.0.0","326090","p3jrtd2k7rr","mus","penguin","19","female","yes","yes","12","2-3 hr","null","stimuli/sounds/bleep.wav","null","","","","","","",""
"","","","","","html-keyboard-response","396","2.0.0","326549","p3jrtd2k7rr","mus","penguin","19","female","yes","yes","12","2-3 hr","357","<div style=""font-size:30px;"">Press space to start the trial</div>"," ","","","","","","",""
"","","","","","html-keyboard-response","397","2.0.0","326801","p3jrtd2k7rr","mus","penguin","19","female","yes","yes","12","2-3 hr","null","<div style=""font-size:60px;"">+</div>","null","","","","","","",""
"","","","","","audio-keyboard-response","398","2.0.0","327405","p3jrtd2k7rr","mus","penguin","19","female","yes","yes","12","2-3 hr","null","stimuli/sounds/phone_label_B.wav","null","","","","","","",""
"","","","","","html-keyboard-response","399","2.0.0","328408","p3jrtd2k7rr","mus","penguin","19","female","yes","yes","12","2-3 hr","null","","null","","","","","","",""
"","","","","","image-keyboard-response","400","2.0.0","328894","p3jrtd2k7rr","mus","penguin","19","female","yes","yes","12","2-3 hr","485","stimuli/pictures/phone_cell_2.jpg","1","1","","true","yes","sound","stimuli/sounds/phone_label_B.wav",""
"","","","","","audio-keyboard-response","401","2.0.0","329897","p3jrtd2k7rr","mus","penguin","19","female","yes","yes","12","2-3 hr","null","stimuli/sounds/bleep.wav","null","","","","","","",""
"","","","","","html-keyboard-response","402","2.0.0","330360","p3jrtd2k7rr","mus","penguin","19","female","yes","yes","12","2-3 hr","360","<div style=""font-size:30px;"">Press space to start the trial</div>"," ","","","","","","",""
"","","","","","html-keyboard-response","403","2.0.0","330612","p3jrtd2k7rr","mus","penguin","19","female","yes","yes","12","2-3 hr","null","<div style=""font-size:60px;"">+</div>","null","","","","","","",""
"","","","","","audio-keyboard-response","404","2.0.0","331208","p3jrtd2k7rr","mus","penguin","19","female","yes","yes","12","2-3 hr","null","stimuli/sounds/flute_sound_A.wav","null","","","","","","",""
"","","","","","html-keyboard-response","405","2.0.0","332210","p3jrtd2k7rr","mus","penguin","19","female","yes","yes","12","2-3 hr","null","","null","","","","","","",""
"","","","","","image-keyboard-response","406","2.0.0","332792","p3jrtd2k7rr","mus","penguin","19","female","yes","yes","12","2-3 hr","580","stimuli/pictures/phone_rotary_2.jpg","0","0","","true","no","sound","stimuli/sounds/flute_sound_A.wav",""
"","","","","","audio-keyboard-response","407","2.0.0","333794","p3jrtd2k7rr","mus","penguin","19","female","yes","yes","12","2-3 hr","null","stimuli/sounds/bleep.wav","null","","","","","","",""
"","","","","","html-keyboard-response","408","2.0.0","334284","p3jrtd2k7rr","mus","penguin","19","female","yes","yes","12","2-3 hr","388","<div style=""font-size:30px;"">Press space to start the trial</div>"," ","","","","","","",""
"","","","","","html-keyboard-response","409","2.0.0","334537","p3jrtd2k7rr","mus","penguin","19","female","yes","yes","12","2-3 hr","null","<div style=""font-size:60px;"">+</div>","null","","","","","","",""
"","","","","","audio-keyboard-response","410","2.0.0","335144","p3jrtd2k7rr","mus","penguin","19","female","yes","yes","12","2-3 hr","null","stimuli/sounds/drum_label_A.wav","null","","","","","","",""
"","","","","","html-keyboard-response","411","2.0.0","336147","p3jrtd2k7rr","mus","penguin","19","female","yes","yes","12","2-3 hr","null","","null","","","","","","",""
"","","","","","image-keyboard-response","412","2.0.0","336693","p3jrtd2k7rr","mus","penguin","19","female","yes","yes","12","2-3 hr","544","stimuli/pictures/drum_bongo_1.jpg","1","1","","true","yes","sound","stimuli/sounds/drum_label_A.wav",""
"","","","","","audio-keyboard-response","413","2.0.0","337696","p3jrtd2k7rr","mus","penguin","19","female","yes","yes","12","2-3 hr","null","stimuli/sounds/bleep.wav","null","","","","","","",""
"","","","","","html-keyboard-response","414","2.0.0","338149","p3jrtd2k7rr","mus","penguin","19","female","yes","yes","12","2-3 hr","352","<div style=""font-size:30px;"">Press space to start the trial</div>"," ","","","","","","",""
"","","","","","html-keyboard-response","415","2.0.0","338402","p3jrtd2k7rr","mus","penguin","19","female","yes","yes","12","2-3 hr","null","<div style=""font-size:60px;"">+</div>","null","","","","","","",""
"","","","","","audio-keyboard-response","416","2.0.0","339005","p3jrtd2k7rr","mus","penguin","19","female","yes","yes","12","2-3 hr","null","stimuli/sounds/piano_label_B.wav","null","","","","","","",""
"","","","","","html-keyboard-response","417","2.0.0","340007","p3jrtd2k7rr","mus","penguin","19","female","yes","yes","12","2-3 hr","null","","null","","","","","","",""
"","","","","","image-keyboard-response","418","2.0.0","340524","p3jrtd2k7rr","mus","penguin","19","female","yes","yes","12","2-3 hr","515","stimuli/pictures/bird_hawk_1.jpg","0","0","","true","no","sound","stimuli/sounds/piano_label_B.wav",""
"","","","","","audio-keyboard-response","419","2.0.0","341527","p3jrtd2k7rr","mus","penguin","19","female","yes","yes","12","2-3 hr","null","stimuli/sounds/bleep.wav","null","","","","","","",""
"","","","","","html-keyboard-response","420","2.0.0","342030","p3jrtd2k7rr","mus","penguin","19","female","yes","yes","12","2-3 hr","400","<div style=""font-size:30px;"">Press space to start the trial</div>"," ","","","","","","",""
"","","","","","html-keyboard-response","421","2.0.0","342283","p3jrtd2k7rr","mus","penguin","19","female","yes","yes","12","2-3 hr","null","<div style=""font-size:60px;"">+</div>","null","","","","","","",""
"","","","","","audio-keyboard-response","422","2.0.0","342893","p3jrtd2k7rr","mus","penguin","19","female","yes","yes","12","2-3 hr","null","stimuli/sounds/piano_sound_A.wav","null","","","","","","",""
"","","","","","html-keyboard-response","423","2.0.0","343896","p3jrtd2k7rr","mus","penguin","19","female","yes","yes","12","2-3 hr","null","","null","","","","","","",""
"","","","","","image-keyboard-response","424","2.0.0","344531","p3jrtd2k7rr","mus","penguin","19","female","yes","yes","12","2-3 hr","633","stimuli/pictures/drum_kit_1.jpg","0","0","","true","no","sound","stimuli/sounds/piano_sound_A.wav",""
"","","","","","audio-keyboard-response","425","2.0.0","345534","p3jrtd2k7rr","mus","penguin","19","female","yes","yes","12","2-3 hr","null","stimuli/sounds/bleep.wav","null","","","","","","",""
"","","","","","html-keyboard-response","426","2.0.0","345980","p3jrtd2k7rr","mus","penguin","19","female","yes","yes","12","2-3 hr","344","<div style=""font-size:30px;"">Press space to start the trial</div>"," ","","","","","","",""
"","","","","","html-keyboard-response","427","2.0.0","346232","p3jrtd2k7rr","mus","penguin","19","female","yes","yes","12","2-3 hr","null","<div style=""font-size:60px;"">+</div>","null","","","","","","",""
"","","","","","audio-keyboard-response","428","2.0.0","346834","p3jrtd2k7rr","mus","penguin","19","female","yes","yes","12","2-3 hr","null","stimuli/sounds/drum_sound_B.wav","null","","","","","","",""
"","","","","","html-keyboard-response","429","2.0.0","347837","p3jrtd2k7rr","mus","penguin","19","female","yes","yes","12","2-3 hr","null","","null","","","","","","",""
"","","","","","image-keyboard-response","430","2.0.0","348481","p3jrtd2k7rr","mus","penguin","19","female","yes","yes","12","2-3 hr","642","stimuli/pictures/phone_rotary_2.jpg","0","0","","true","no","sound","stimuli/sounds/drum_sound_B.wav",""
"","","","","","audio-keyboard-response","431","2.0.0","349484","p3jrtd2k7rr","mus","penguin","19","female","yes","yes","12","2-3 hr","null","stimuli/sounds/bleep.wav","null","","","","","","",""
"","","","","","html-keyboard-response","432","2.0.0","350046","p3jrtd2k7rr","mus","penguin","19","female","yes","yes","12","2-3 hr","458","<div style=""font-size:30px;"">Press space to start the trial</div>"," ","","","","","","",""
"","","","","","html-keyboard-response","433","2.0.0","350299","p3jrtd2k7rr","mus","penguin","19","female","yes","yes","12","2-3 hr","null","<div style=""font-size:60px;"">+</div>","null","","","","","","",""
"","","","","","audio-keyboard-response","434","2.0.0","350898","p3jrtd2k7rr","mus","penguin","19","female","yes","yes","12","2-3 hr","null","stimuli/sounds/bird_label_B.wav","null","","","","","","",""
"","","","","","html-keyboard-response","435","2.0.0","351901","p3jrtd2k7rr","mus","penguin","19","female","yes","yes","12","2-3 hr","null","","null","","","","","","",""
"","","","","","image-keyboard-response","436","2.0.0","352678","p3jrtd2k7rr","mus","penguin","19","female","yes","yes","12","2-3 hr","775","stimuli/pictures/phone_rotary_2.jpg","0","0","","true","no","sound","stimuli/sounds/bird_label_B.wav",""
"","","","","","audio-keyboard-response","437","2.0.0","353680","p3jrtd2k7rr","mus","penguin","19","female","yes","yes","12","2-3 hr","null","stimuli/sounds/bleep.wav","null","","","","","","",""
"","","","","","html-keyboard-response","438","2.0.0","354359","p3jrtd2k7rr","mus","penguin","19","female","yes","yes","12","2-3 hr","577","<div style=""font-size:30px;"">Press space to start the trial</div>"," ","","","","","","",""
"","","","","","html-keyboard-response","439","2.0.0","354611","p3jrtd2k7rr","mus","penguin","19","female","yes","yes","12","2-3 hr","null","<div style=""font-size:60px;"">+</div>","null","","","","","","",""
"","","","","","audio-keyboard-response","440","2.0.0","355218","p3jrtd2k7rr","mus","penguin","19","female","yes","yes","12","2-3 hr","null","stimuli/sounds/bird_sound_A.wav","null","","","","","","",""
"","","","","","html-keyboard-response","441","2.0.0","356220","p3jrtd2k7rr","mus","penguin","19","female","yes","yes","12","2-3 hr","null","","null","","","","","","",""
"","","","","","image-keyboard-response","442","2.0.0","356665","p3jrtd2k7rr","mus","penguin","19","female","yes","yes","12","2-3 hr","443","stimuli/pictures/piano_electric_2.jpg","0","0","","true","no","sound","stimuli/sounds/bird_sound_A.wav",""
"","","","","","audio-keyboard-response","443","2.0.0","357668","p3jrtd2k7rr","mus","penguin","19","female","yes","yes","12","2-3 hr","null","stimuli/sounds/bleep.wav","null","","","","","","",""
"","","","","","html-keyboard-response","444","2.0.0","358141","p3jrtd2k7rr","mus","penguin","19","female","yes","yes","12","2-3 hr","370","<div style=""font-size:30px;"">Press space to start the trial</div>"," ","","","","","","",""
"","","","","","html-keyboard-response","445","2.0.0","358393","p3jrtd2k7rr","mus","penguin","19","female","yes","yes","12","2-3 hr","null","<div style=""font-size:60px;"">+</div>","null","","","","","","",""
"","","","","","audio-keyboard-response","446","2.0.0","358994","p3jrtd2k7rr","mus","penguin","19","female","yes","yes","12","2-3 hr","null","stimuli/sounds/bird_label_A.wav","null","","","","","","",""
"","","","","","html-keyboard-response","447","2.0.0","359997","p3jrtd2k7rr","mus","penguin","19","female","yes","yes","12","2-3 hr","null","","null","","","","","","",""
"","","","","","image-keyboard-response","448","2.0.0","360776","p3jrtd2k7rr","mus","penguin","19","female","yes","yes","12","2-3 hr","776","stimuli/pictures/bird_song_1.jpg","1","1","","true","yes","sound","stimuli/sounds/bird_label_A.wav",""
"","","","","","audio-keyboard-response","449","2.0.0","361778","p3jrtd2k7rr","mus","penguin","19","female","yes","yes","12","2-3 hr","null","stimuli/sounds/bleep.wav","null","","","","","","",""
"","","","","","html-keyboard-response","450","2.0.0","362161","p3jrtd2k7rr","mus","penguin","19","female","yes","yes","12","2-3 hr","281","<div style=""font-size:30px;"">Press space to start the trial</div>"," ","","","","","","",""
"","","","","","html-keyboard-response","451","2.0.0","362414","p3jrtd2k7rr","mus","penguin","19","female","yes","yes","12","2-3 hr","null","<div style=""font-size:60px;"">+</div>","null","","","","","","",""
"","","","","","audio-keyboard-response","452","2.0.0","363015","p3jrtd2k7rr","mus","penguin","19","female","yes","yes","12","2-3 hr","null","stimuli/sounds/bird_sound_B.wav","null","","","","","","",""
"","","","","","html-keyboard-response","453","2.0.0","364017","p3jrtd2k7rr","mus","penguin","19","female","yes","yes","12","2-3 hr","null","","null","","","","","","",""
"","","","","","image-keyboard-response","454","2.0.0","364492","p3jrtd2k7rr","mus","penguin","19","female","yes","yes","12","2-3 hr","473","stimuli/pictures/bird_hawk_1.jpg","1","1","","true","no","sound","stimuli/sounds/bird_sound_B.wav",""
"","","","","","audio-keyboard-response","455","2.0.0","365495","p3jrtd2k7rr","mus","penguin","19","female","yes","yes","12","2-3 hr","null","stimuli/sounds/bleep.wav","null","","","","","","",""
"","","","","","html-keyboard-response","456","2.0.0","365910","p3jrtd2k7rr","mus","penguin","19","female","yes","yes","12","2-3 hr","313","<div style=""font-size:30px;"">Press space to start the trial</div>"," ","","","","","","",""
"","","","","","html-keyboard-response","457","2.0.0","366162","p3jrtd2k7rr","mus","penguin","19","female","yes","yes","12","2-3 hr","null","<div style=""font-size:60px;"">+</div>","null","","","","","","",""
"","","","","","audio-keyboard-response","458","2.0.0","366765","p3jrtd2k7rr","mus","penguin","19","female","yes","yes","12","2-3 hr","null","stimuli/sounds/piano_sound_B.wav","null","","","","","","",""
"","","","","","html-keyboard-response","459","2.0.0","367769","p3jrtd2k7rr","mus","penguin","19","female","yes","yes","12","2-3 hr","null","","null","","","","","","",""
"","","","","","image-keyboard-response","460","2.0.0","368349","p3jrtd2k7rr","mus","penguin","19","female","yes","yes","12","2-3 hr","579","stimuli/pictures/piano_grand_1.jpg","1","1","","true","no","sound","stimuli/sounds/piano_sound_B.wav",""
"","","","","","audio-keyboard-response","461","2.0.0","369351","p3jrtd2k7rr","mus","penguin","19","female","yes","yes","12","2-3 hr","null","stimuli/sounds/bleep.wav","null","","","","","","",""
"","","","","","html-keyboard-response","462","2.0.0","369743","p3jrtd2k7rr","mus","penguin","19","female","yes","yes","12","2-3 hr","289","<div style=""font-size:30px;"">Press space to start the trial</div>"," ","","","","","","",""
"","","","","","html-keyboard-response","463","2.0.0","369995","p3jrtd2k7rr","mus","penguin","19","female","yes","yes","12","2-3 hr","null","<div style=""font-size:60px;"">+</div>","null","","","","","","",""
"","","","","","audio-keyboard-response","464","2.0.0","370599","p3jrtd2k7rr","mus","penguin","19","female","yes","yes","12","2-3 hr","null","stimuli/sounds/bird_label_A.wav","null","","","","","","",""
"","","","","","html-keyboard-response","465","2.0.0","371602","p3jrtd2k7rr","mus","penguin","19","female","yes","yes","12","2-3 hr","null","","null","","","","","","",""
"","","","","","image-keyboard-response","466","2.0.0","372058","p3jrtd2k7rr","mus","penguin","19","female","yes","yes","12","2-3 hr","454","stimuli/pictures/bird_song_2.jpg","1","1","","true","yes","sound","stimuli/sounds/bird_label_A.wav",""
"","","","","","audio-keyboard-response","467","2.0.0","373061","p3jrtd2k7rr","mus","penguin","19","female","yes","yes","12","2-3 hr","null","stimuli/sounds/bleep.wav","null","","","","","","",""
"","","","","","html-keyboard-response","468","2.0.0","373793","p3jrtd2k7rr","mus","penguin","19","female","yes","yes","12","2-3 hr","630","<div style=""font-size:30px;"">Press space to start the trial</div>"," ","","","","","","",""
"","","","","","html-keyboard-response","469","2.0.0","374045","p3jrtd2k7rr","mus","penguin","19","female","yes","yes","12","2-3 hr","null","<div style=""font-size:60px;"">+</div>","null","","","","","","",""
