"success","timeout","failed_images","failed_audio","failed_video","trial_type","trial_index","plugin_version","time_elapsed","random_id","condition","participant","age","gender_id","mus_exp","inst_exp","years_exp","mus_listening","rt","stimulus","response","correct_response","practice","correct","congruent","sound_type","audio","question_order"
"true","false","[]","[]","[]","preload","0","2.0.0","1913","p58tn73t71r","ono","ladybug","21","female","no","yes","2","2","","","","","","","","","",""
"","","","","","html-keyboard-response","1","2.0.0","10486","p58tn73t71r","ono","ladybug","21","female","no","yes","2","2","8572","Welcome to the experiment! Press any key to begin."," ","","","","","","",""
"true","","","","","fullscreen","2","null","13682","p58tn73t71r","ono","ladybug","21","female","no","yes","2","2","2192","","","","","","","","",""
"","","","","","survey-text","3","2.0.0","18247","p58tn73t71r","ono","ladybug","21","female","no","yes","2","2","4559","","{""participant_id"":""ladybug""}","","","","","","",""
"","","","","","html-keyboard-response","4","2.0.0","56373","p58tn73t71r","ono","ladybug","21","female","no","yes","2","2","38124","
    <p> Please use headphones for the duration of the study.</p>
    <p> Within each trial, you will hear a sound and then be presented with an image in the center of your screen.</p>
    <p>Press the <b>'1'</b> key if what you hear <u>matches</u> what you see.</p>
    <p>Press the <b>'0'</b> key if what you hear <u>does not match</u> what you see.</p>
    <p>Try to respond as quickly and accurately as you can.</p>
    <p> Press any key to begin.</p>
    "," ","","","","","","",""
"","","","","","html-keyboard-response","5","2.0.0","61302","p58tn73t71r","ono","ladybug","21","female","no","yes","2","2","4928","
    <div style=""font-size:28px;"">
      <p>You will now complete 4 short practice trials.</p>
      <p>This is just to help you get familiar with the task.</p>
      <p>Press any key to begin.</p>
    </div>
  "," ","","","","","","",""
"","","","","","html-keyboard-response","6","2.0.0","61804","p58tn73t71r","ono","ladybug","21","female","no","yes","2","2","null","<div style=""font-size:60px;"">+</div>","null","","","","","","",""
"","","","","","audio-keyboard-response","7","2.0.0","62892","p58tn73t71r","ono","ladybug","21","female","no","yes","2","2","null","stimuli/sounds/guitar_label_A.wav","null","","","","","","",""
"","","","","","image-keyboard-response","8","2.0.0","64268","p58tn73t71r","ono","ladybug","21","female","no","yes","2","2","1372","stimuli/pictures/guitar_acoustic_1.jpg","1","1","true","true","","","",""
"","","","","","audio-keyboard-response","9","2.0.0","65071","p58tn73t71r","ono","ladybug","21","female","no","yes","2","2","null","stimuli/sounds/bleep.wav","null","","","","","","",""
"","","","","","html-keyboard-response","10","2.0.0","65775","p58tn73t71r","ono","ladybug","21","female","no","yes","2","2","null","<p style='color:green; font-size:30px;'>Correct!</p>","null","","","","","","",""
"","","","","","html-keyboard-response","11","2.0.0","66278","p58tn73t71r","ono","ladybug","21","female","no","yes","2","2","null","<div style=""font-size:60px;"">+</div>","null","","","","","","",""
"","","","","","audio-keyboard-response","12","2.0.0","66881","p58tn73t71r","ono","ladybug","21","female","no","yes","2","2","null","stimuli/sounds/guitar_sound_B.wav","null","","","","","","",""
"","","","","","image-keyboard-response","13","2.0.0","68685","p58tn73t71r","ono","ladybug","21","female","no","yes","2","2","1802","stimuli/pictures/guitar_acoustic_2.jpg","1","1","true","true","","","",""
"","","","","","audio-keyboard-response","14","2.0.0","69488","p58tn73t71r","ono","ladybug","21","female","no","yes","2","2","null","stimuli/sounds/bleep.wav","null","","","","","","",""
"","","","","","html-keyboard-response","15","2.0.0","70191","p58tn73t71r","ono","ladybug","21","female","no","yes","2","2","null","<p style='color:green; font-size:30px;'>Correct!</p>","null","","","","","","",""
"","","","","","html-keyboard-response","16","2.0.0","70694","p58tn73t71r","ono","ladybug","21","female","no","yes","2","2","null","<div style=""font-size:60px;"">+</div>","null","","","","","","",""
"","","","","","audio-keyboard-response","17","2.0.0","71297","p58tn73t71r","ono","ladybug","21","female","no","yes","2","2","null","stimuli/sounds/flute_sound_A.wav","null","","","","","","",""
"","","","","","image-keyboard-response","18","2.0.0","72607","p58tn73t71r","ono","ladybug","21","female","no","yes","2","2","1308","stimuli/pictures/guitar_electric_1.jpg","0","0","true","true","","","",""
"","","","","","audio-keyboard-response","19","2.0.0","73410","p58tn73t71r","ono","ladybug","21","female","no","yes","2","2","null","stimuli/sounds/bleep.wav","null","","","","","","",""
"","","","","","html-keyboard-response","20","2.0.0","74113","p58tn73t71r","ono","ladybug","21","female","no","yes","2","2","null","<p style='color:green; font-size:30px;'>Correct!</p>","null","","","","","","",""
"","","","","","html-keyboard-response","21","2.0.0","74615","p58tn73t71r","ono","ladybug","21","female","no","yes","2","2","null","<div style=""font-size:60px;"">+</div>","null","","","","","","",""
"","","","","","audio-keyboard-response","22","2.0.0","75217","p58tn73t71r","ono","ladybug","21","female","no","yes","2","2","null","stimuli/sounds/guitar_sound_A.wav","null","","","","","","",""
"","","","","","image-keyboard-response","23","2.0.0","75760","p58tn73t71r","ono","ladybug","21","female","no","yes","2","2","541","stimuli/pictures/guitar_acoustic_1.jpg","1","1","true","true","","","",""
"","","","","","audio-keyboard-response","24","2.0.0","76562","p58tn73t71r","ono","ladybug","21","female","no","yes","2","2","null","stimuli/sounds/bleep.wav","null","","","","","","",""
"","","","","","html-keyboard-response","25","2.0.0","77264","p58tn73t71r","ono","ladybug","21","female","no","yes","2","2","null","<p style='color:green; font-size:30px;'>Correct!</p>","null","","","","","","",""
"","","","","","html-keyboard-response","26","2.0.0","205025","p58tn73t71r","ono","ladybug","21","female","no","yes","2","2","127760","<p>Practice complete. Press any key to begin the real experiment.</p>"," ","","","","","","",""
"","","","","","html-keyboard-response","27","2.0.0","232603","p58tn73t71r","ono","ladybug","21","female","no","yes","2","2","27576","<div style=""font-size:30px;"">Press space to start the trial</div>"," ","","","","","","",""
"","","","","","html-keyboard-response","28","2.0.0","232855","p58tn73t71r","ono","ladybug","21","female","no","yes","2","2","null","<div style=""font-size:60px;"">+</div>","null","","","","","","",""
"","","","","","audio-keyboard-response","29","2.0.0","233826","p58tn73t71r","ono","ladybug","21","female","no","yes","2","2","null","stimuli/sounds/drop_sound_A.wav","null","","","","","","",""
"","","","","","html-keyboard-response","30","2.0.0","234830","p58tn73t71r","ono","ladybug","21","female","no","yes","2","2","null","","null","","","","","","",""
"","","","","","image-keyboard-response","31","2.0.0","236335","p58tn73t71r","ono","ladybug","21","female","no","yes","2","2","1502","stimuli/pictures/drop_single_2.jpg","1","1","","true","yes","sound","stimuli/sounds/drop_sound_A.wav",""
"","","","","","audio-keyboard-response","32","2.0.0","237339","p58tn73t71r","ono","ladybug","21","female","no","yes","2","2","null","stimuli/sounds/bleep.wav","null","","","","","","",""
"","","","","","html-keyboard-response","33","2.0.0","241638","p58tn73t71r","ono","ladybug","21","female","no","yes","2","2","4197","<div style=""font-size:30px;"">Press space to start the trial</div>"," ","","","","","","",""
"","","","","","html-keyboard-response","34","2.0.0","241890","p58tn73t71r","ono","ladybug","21","female","no","yes","2","2","null","<div style=""font-size:60px;"">+</div>","null","","","","","","",""
"","","","","","audio-keyboard-response","35","2.0.0","242476","p58tn73t71r","ono","ladybug","21","female","no","yes","2","2","null","stimuli/sounds/drop_sound_A.wav","null","","","","","","",""
"","","","","","html-keyboard-response","36","2.0.0","243479","p58tn73t71r","ono","ladybug","21","female","no","yes","2","2","null","","null","","","","","","",""
"","","","","","image-keyboard-response","37","2.0.0","244545","p58tn73t71r","ono","ladybug","21","female","no","yes","2","2","1064","stimuli/pictures/drop_multi_2.jpg","1","1","","true","no","sound","stimuli/sounds/drop_sound_A.wav",""
"","","","","","audio-keyboard-response","38","2.0.0","245548","p58tn73t71r","ono","ladybug","21","female","no","yes","2","2","null","stimuli/sounds/bleep.wav","null","","","","","","",""
"","","","","","html-keyboard-response","39","2.0.0","246495","p58tn73t71r","ono","ladybug","21","female","no","yes","2","2","845","<div style=""font-size:30px;"">Press space to start the trial</div>"," ","","","","","","",""
"","","","","","html-keyboard-response","40","2.0.0","246748","p58tn73t71r","ono","ladybug","21","female","no","yes","2","2","null","<div style=""font-size:60px;"">+</div>","null","","","","","","",""
"","","","","","audio-keyboard-response","41","2.0.0","247356","p58tn73t71r","ono","ladybug","21","female","no","yes","2","2","null","stimuli/sounds/hiccup_sound_A.wav","null","","","","","","",""
"","","","","","html-keyboard-response","42","2.0.0","248359","p58tn73t71r","ono","ladybug","21","female","no","yes","2","2","null","","null","","","","","","",""
"","","","","","image-keyboard-response","43","2.0.0","250317","p58tn73t71r","ono","ladybug","21","female","no","yes","2","2","1956","stimuli/pictures/hiccup_wom_2.jpg","1","1","","true","yes","sound","stimuli/sounds/hiccup_sound_A.wav",""
"","","","","","audio-keyboard-response","44","2.0.0","251320","p58tn73t71r","ono","ladybug","21","female","no","yes","2","2","null","stimuli/sounds/bleep.wav","null","","","","","","",""
"","","","","","html-keyboard-response","45","2.0.0","253511","p58tn73t71r","ono","ladybug","21","female","no","yes","2","2","2088","<div style=""font-size:30px;"">Press space to start the trial</div>"," ","","","","","","",""
"","","","","","html-keyboard-response","46","2.0.0","253763","p58tn73t71r","ono","ladybug","21","female","no","yes","2","2","null","<div style=""font-size:60px;"">+</div>","null","","","","","","",""
"","","","","","audio-keyboard-response","47","2.0.0","254364","p58tn73t71r","ono","ladybug","21","female","no","yes","2","2","null","stimuli/sounds/dog_label_B.wav","null","","","","","","",""
"","","","","","html-keyboard-response","48","2.0.0","255367","p58tn73t71r","ono","ladybug","21","female","no","yes","2","2","null","","null","","","","","","",""
"","","","","","image-keyboard-response","49","2.0.0","257105","p58tn73t71r","ono","ladybug","21","female","no","yes","2","2","1735","stimuli/pictures/cough_wom_2.jpg","0","0","","true","no","sound","stimuli/sounds/dog_label_B.wav",""
"","","","","","audio-keyboard-response","50","2.0.0","258107","p58tn73t71r","ono","ladybug","21","female","no","yes","2","2","null","stimuli/sounds/bleep.wav","null","","","","","","",""
"","","","","","html-keyboard-response","51","2.0.0","260338","p58tn73t71r","ono","ladybug","21","female","no","yes","2","2","2128","<div style=""font-size:30px;"">Press space to start the trial</div>"," ","","","","","","",""
"","","","","","html-keyboard-response","52","2.0.0","260590","p58tn73t71r","ono","ladybug","21","female","no","yes","2","2","null","<div style=""font-size:60px;"">+</div>","null","","","","","","",""
"","","","","","audio-keyboard-response","53","2.0.0","261196","p58tn73t71r","ono","ladybug","21","female","no","yes","2","2","null","stimuli/sounds/drop_sound_B.wav","null","","","","","","",""
"","","","","","html-keyboard-response","54","2.0.0","262199","p58tn73t71r","ono","ladybug","21","female","no","yes","2","2","null","","null","","","","","","",""
"","","","","","image-keyboard-response","55","2.0.0","262629","p58tn73t71r","ono","ladybug","21","female","no","yes","2","2","427","stimuli/pictures/drop_multi_1.jpg","1","1","","true","yes","sound","stimuli/sounds/drop_sound_B.wav",""
"","","","","","audio-keyboard-response","56","2.0.0","263631","p58tn73t71r","ono","ladybug","21","female","no","yes","2","2","null","stimuli/sounds/bleep.wav","null","","","","","","",""
"","","","","","html-keyboard-response","57","2.0.0","265965","p58tn73t71r","ono","ladybug","21","female","no","yes","2","2","2232","<div style=""font-size:30px;"">Press space to start the trial</div>"," ","","","","","","",""
"","","","","","html-keyboard-response","58","2.0.0","266218","p58tn73t71r","ono","ladybug","21","female","no","yes","2","2","null","<div style=""font-size:60px;"">+</div>","null","","","","","","",""
"","","","","","audio-keyboard-response","59","2.0.0","266817","p58tn73t71r","ono","ladybug","21","female","no","yes","2","2","null","stimuli/sounds/dog_label_B.wav","null","","","","","","",""
"","","","","","html-keyboard-response","60","2.0.0","267820","p58tn73t71r","ono","ladybug","21","female","no","yes","2","2","null","","null","","","","","","",""
"","","","","","image-keyboard-response","61","2.0.0","269020","p58tn73t71r","ono","ladybug","21","female","no","yes","2","2","1198","stimuli/pictures/dog_york_1.jpg","1","1","","true","yes","sound","stimuli/sounds/dog_label_B.wav",""
"","","","","","audio-keyboard-response","62","2.0.0","270023","p58tn73t71r","ono","ladybug","21","female","no","yes","2","2","null","stimuli/sounds/bleep.wav","null","","","","","","",""
"","","","","","html-keyboard-response","63","2.0.0","271453","p58tn73t71r","ono","ladybug","21","female","no","yes","2","2","1326","<div style=""font-size:30px;"">Press space to start the trial</div>"," ","","","","","","",""
"","","","","","html-keyboard-response","64","2.0.0","271706","p58tn73t71r","ono","ladybug","21","female","no","yes","2","2","null","<div style=""font-size:60px;"">+</div>","null","","","","","","",""
"","","","","","audio-keyboard-response","65","2.0.0","272305","p58tn73t71r","ono","ladybug","21","female","no","yes","2","2","null","stimuli/sounds/dog_label_B.wav","null","","","","","","",""
"","","","","","html-keyboard-response","66","2.0.0","273308","p58tn73t71r","ono","ladybug","21","female","no","yes","2","2","null","","null","","","","","","",""
"","","","","","image-keyboard-response","67","2.0.0","273796","p58tn73t71r","ono","ladybug","21","female","no","yes","2","2","487","stimuli/pictures/dog_york_2.jpg","1","1","","true","yes","sound","stimuli/sounds/dog_label_B.wav",""
"","","","","","audio-keyboard-response","68","2.0.0","274799","p58tn73t71r","ono","ladybug","21","female","no","yes","2","2","null","stimuli/sounds/bleep.wav","null","","","","","","",""
"","","","","","html-keyboard-response","69","2.0.0","275722","p58tn73t71r","ono","ladybug","21","female","no","yes","2","2","822","<div style=""font-size:30px;"">Press space to start the trial</div>"," ","","","","","","",""
"","","","","","html-keyboard-response","70","2.0.0","275975","p58tn73t71r","ono","ladybug","21","female","no","yes","2","2","null","<div style=""font-size:60px;"">+</div>","null","","","","","","",""
"","","","","","audio-keyboard-response","71","2.0.0","276577","p58tn73t71r","ono","ladybug","21","female","no","yes","2","2","null","stimuli/sounds/motor_sound_B.wav","null","","","","","","",""
"","","","","","html-keyboard-response","72","2.0.0","277580","p58tn73t71r","ono","ladybug","21","female","no","yes","2","2","null","","null","","","","","","",""
"","","","","","image-keyboard-response","73","2.0.0","278532","p58tn73t71r","ono","ladybug","21","female","no","yes","2","2","949","stimuli/pictures/motor_harley_1.jpg","1","1","","true","yes","sound","stimuli/sounds/motor_sound_B.wav",""
"","","","","","audio-keyboard-response","74","2.0.0","279534","p58tn73t71r","ono","ladybug","21","female","no","yes","2","2","null","stimuli/sounds/bleep.wav","null","","","","","","",""
"","","","","","html-keyboard-response","75","2.0.0","280516","p58tn73t71r","ono","ladybug","21","female","no","yes","2","2","879","<div style=""font-size:30px;"">Press space to start the trial</div>"," ","","","","","","",""
"","","","","","html-keyboard-response","76","2.0.0","280769","p58tn73t71r","ono","ladybug","21","female","no","yes","2","2","null","<div style=""font-size:60px;"">+</div>","null","","","","","","",""
"","","","","","audio-keyboard-response","77","2.0.0","281452","p58tn73t71r","ono","ladybug","21","female","no","yes","2","2","null","stimuli/sounds/cough_sound_B.wav","null","","","","","","",""
"","","","","","html-keyboard-response","78","2.0.0","282455","p58tn73t71r","ono","ladybug","21","female","no","yes","2","2","null","","null","","","","","","",""
"","","","","","image-keyboard-response","79","2.0.0","283813","p58tn73t71r","ono","ladybug","21","female","no","yes","2","2","1356","stimuli/pictures/cough_man_1.jpg","1","1","","true","yes","sound","stimuli/sounds/cough_sound_B.wav",""
"","","","","","audio-keyboard-response","80","2.0.0","284816","p58tn73t71r","ono","ladybug","21","female","no","yes","2","2","null","stimuli/sounds/bleep.wav","null","","","","","","",""
"","","","","","html-keyboard-response","81","2.0.0","288805","p58tn73t71r","ono","ladybug","21","female","no","yes","2","2","3886","<div style=""font-size:30px;"">Press space to start the trial</div>"," ","","","","","","",""
"","","","","","html-keyboard-response","82","2.0.0","289056","p58tn73t71r","ono","ladybug","21","female","no","yes","2","2","null","<div style=""font-size:60px;"">+</div>","null","","","","","","",""
"","","","","","audio-keyboard-response","83","2.0.0","289665","p58tn73t71r","ono","ladybug","21","female","no","yes","2","2","null","stimuli/sounds/hiccup_sound_A.wav","null","","","","","","",""
"","","","","","html-keyboard-response","84","2.0.0","290668","p58tn73t71r","ono","ladybug","21","female","no","yes","2","2","null","","null","","","","","","",""
"","","","","","image-keyboard-response","85","2.0.0","292060","p58tn73t71r","ono","ladybug","21","female","no","yes","2","2","1391","stimuli/pictures/hiccup_wom_1.jpg","1","1","","true","yes","sound","stimuli/sounds/hiccup_sound_A.wav",""
"","","","","","audio-keyboard-response","86","2.0.0","293063","p58tn73t71r","ono","ladybug","21","female","no","yes","2","2","null","stimuli/sounds/bleep.wav","null","","","","","","",""
"","","","","","html-keyboard-response","87","2.0.0","294374","p58tn73t71r","ono","ladybug","21","female","no","yes","2","2","1209","<div style=""font-size:30px;"">Press space to start the trial</div>"," ","","","","","","",""
"","","","","","html-keyboard-response","88","2.0.0","294626","p58tn73t71r","ono","ladybug","21","female","no","yes","2","2","null","<div style=""font-size:60px;"">+</div>","null","","","","","","",""
"","","","","","audio-keyboard-response","89","2.0.0","295164","p58tn73t71r","ono","ladybug","21","female","no","yes","2","2","null","stimuli/sounds/hiccup_label_A.wav","null","","","","","","",""
"","","","","","html-keyboard-response","90","2.0.0","296166","p58tn73t71r","ono","ladybug","21","female","no","yes","2","2","null","","null","","","","","","",""
"","","","","","image-keyboard-response","91","2.0.0","297614","p58tn73t71r","ono","ladybug","21","female","no","yes","2","2","1445","stimuli/pictures/hiccup_wom_2.jpg","1","1","","true","yes","sound","stimuli/sounds/hiccup_label_A.wav",""
"","","","","","audio-keyboard-response","92","2.0.0","298617","p58tn73t71r","ono","ladybug","21","female","no","yes","2","2","null","stimuli/sounds/bleep.wav","null","","","","","","",""
"","","","","","html-keyboard-response","93","2.0.0","299200","p58tn73t71r","ono","ladybug","21","female","no","yes","2","2","481","<div style=""font-size:30px;"">Press space to start the trial</div>"," ","","","","","","",""
"","","","","","html-keyboard-response","94","2.0.0","299452","p58tn73t71r","ono","ladybug","21","female","no","yes","2","2","null","<div style=""font-size:60px;"">+</div>","null","","","","","","",""
"","","","","","audio-keyboard-response","95","2.0.0","300060","p58tn73t71r","ono","ladybug","21","female","no","yes","2","2","null","stimuli/sounds/drop_sound_B.wav","null","","","","","","",""
"","","","","","html-keyboard-response","96","2.0.0","301062","p58tn73t71r","ono","ladybug","21","female","no","yes","2","2","null","","null","","","","","","",""
"","","","","","image-keyboard-response","97","2.0.0","301818","p58tn73t71r","ono","ladybug","21","female","no","yes","2","2","754","stimuli/pictures/drop_single_2.jpg","1","1","","true","no","sound","stimuli/sounds/drop_sound_B.wav",""
"","","","","","audio-keyboard-response","98","2.0.0","302820","p58tn73t71r","ono","ladybug","21","female","no","yes","2","2","null","stimuli/sounds/bleep.wav","null","","","","","","",""
"","","","","","html-keyboard-response","99","2.0.0","303609","p58tn73t71r","ono","ladybug","21","female","no","yes","2","2","686","<div style=""font-size:30px;"">Press space to start the trial</div>"," ","","","","","","",""
"","","","","","html-keyboard-response","100","2.0.0","303860","p58tn73t71r","ono","ladybug","21","female","no","yes","2","2","null","<div style=""font-size:60px;"">+</div>","null","","","","","","",""
"","","","","","audio-keyboard-response","101","2.0.0","304407","p58tn73t71r","ono","ladybug","21","female","no","yes","2","2","null","stimuli/sounds/drop_label_A.wav","null","","","","","","",""
"","","","","","html-keyboard-response","102","2.0.0","305409","p58tn73t71r","ono","ladybug","21","female","no","yes","2","2","null","","null","","","","","","",""
"","","","","","image-keyboard-response","103","2.0.0","306233","p58tn73t71r","ono","ladybug","21","female","no","yes","2","2","822","stimuli/pictures/drop_multi_2.jpg","1","1","","true","yes","sound","stimuli/sounds/drop_label_A.wav",""
"","","","","","audio-keyboard-response","104","2.0.0","307236","p58tn73t71r","ono","ladybug","21","female","no","yes","2","2","null","stimuli/sounds/bleep.wav","null","","","","","","",""
"","","","","","html-keyboard-response","105","2.0.0","308292","p58tn73t71r","ono","ladybug","21","female","no","yes","2","2","954","<div style=""font-size:30px;"">Press space to start the trial</div>"," ","","","","","","",""
"","","","","","html-keyboard-response","106","2.0.0","308545","p58tn73t71r","ono","ladybug","21","female","no","yes","2","2","null","<div style=""font-size:60px;"">+</div>","null","","","","","","",""
"","","","","","audio-keyboard-response","107","2.0.0","309148","p58tn73t71r","ono","ladybug","21","female","no","yes","2","2","null","stimuli/sounds/dog_sound_B.wav","null","","","","","","",""
"","","","","","html-keyboard-response","108","2.0.0","310151","p58tn73t71r","ono","ladybug","21","female","no","yes","2","2","null","","null","","","","","","",""
"","","","","","image-keyboard-response","109","2.0.0","310690","p58tn73t71r","ono","ladybug","21","female","no","yes","2","2","537","stimuli/pictures/motor_dirt_1.jpg","0","0","","true","no","sound","stimuli/sounds/dog_sound_B.wav",""
"","","","","","audio-keyboard-response","110","2.0.0","311693","p58tn73t71r","ono","ladybug","21","female","no","yes","2","2","null","stimuli/sounds/bleep.wav","null","","","","","","",""
"","","","","","html-keyboard-response","111","2.0.0","312644","p58tn73t71r","ono","ladybug","21","female","no","yes","2","2","849","<div style=""font-size:30px;"">Press space to start the trial</div>"," ","","","","","","",""
"","","","","","html-keyboard-response","112","2.0.0","312897","p58tn73t71r","ono","ladybug","21","female","no","yes","2","2","null","<div style=""font-size:60px;"">+</div>","null","","","","","","",""
"","","","","","audio-keyboard-response","113","2.0.0","313500","p58tn73t71r","ono","ladybug","21","female","no","yes","2","2","null","stimuli/sounds/hiccup_sound_B.wav","null","","","","","","",""
"","","","","","html-keyboard-response","114","2.0.0","314502","p58tn73t71r","ono","ladybug","21","female","no","yes","2","2","null","","null","","","","","","",""
"","","","","","image-keyboard-response","115","2.0.0","315191","p58tn73t71r","ono","ladybug","21","female","no","yes","2","2","687","stimuli/pictures/drop_multi_1.jpg","0","0","","true","no","sound","stimuli/sounds/hiccup_sound_B.wav",""
"","","","","","audio-keyboard-response","116","2.0.0","316194","p58tn73t71r","ono","ladybug","21","female","no","yes","2","2","null","stimuli/sounds/bleep.wav","null","","","","","","",""
"","","","","","html-keyboard-response","117","2.0.0","324273","p58tn73t71r","ono","ladybug","21","female","no","yes","2","2","7975","<div style=""font-size:30px;"">Press space to start the trial</div>"," ","","","","","","",""
"","","","","","html-keyboard-response","118","2.0.0","324525","p58tn73t71r","ono","ladybug","21","female","no","yes","2","2","null","<div style=""font-size:60px;"">+</div>","null","","","","","","",""
"","","","","","audio-keyboard-response","119","2.0.0","325126","p58tn73t71r","ono","ladybug","21","female","no","yes","2","2","null","stimuli/sounds/motor_label_B.wav","null","","","","","","",""
"","","","","","html-keyboard-response","120","2.0.0","326129","p58tn73t71r","ono","ladybug","21","female","no","yes","2","2","null","","null","","","","","","",""
"","","","","","image-keyboard-response","121","2.0.0","327169","p58tn73t71r","ono","ladybug","21","female","no","yes","2","2","1038","stimuli/pictures/hiccup_man_2.jpg","0","0","","true","no","sound","stimuli/sounds/motor_label_B.wav",""
"","","","","","audio-keyboard-response","122","2.0.0","328171","p58tn73t71r","ono","ladybug","21","female","no","yes","2","2","null","stimuli/sounds/bleep.wav","null","","","","","","",""
"","","","","","html-keyboard-response","123","2.0.0","330164","p58tn73t71r","ono","ladybug","21","female","no","yes","2","2","1890","<div style=""font-size:30px;"">Press space to start the trial</div>"," ","","","","","","",""
"","","","","","html-keyboard-response","124","2.0.0","330417","p58tn73t71r","ono","ladybug","21","female","no","yes","2","2","null","<div style=""font-size:60px;"">+</div>","null","","","","","","",""
"","","","","","audio-keyboard-response","125","2.0.0","331030","p58tn73t71r","ono","ladybug","21","female","no","yes","2","2","null","stimuli/sounds/drop_label_B.wav","null","","","","","","",""
"","","","","","html-keyboard-response","126","2.0.0","332033","p58tn73t71r","ono","ladybug","21","female","no","yes","2","2","null","","null","","","","","","",""
"","","","","","image-keyboard-response","127","2.0.0","332987","p58tn73t71r","ono","ladybug","21","female","no","yes","2","2","952","stimuli/pictures/drop_multi_1.jpg","1","1","","true","yes","sound","stimuli/sounds/drop_label_B.wav",""
"","","","","","audio-keyboard-response","128","2.0.0","333990","p58tn73t71r","ono","ladybug","21","female","no","yes","2","2","null","stimuli/sounds/bleep.wav","null","","","","","","",""
"","","","","","html-keyboard-response","129","2.0.0","335759","p58tn73t71r","ono","ladybug","21","female","no","yes","2","2","1666","<div style=""font-size:30px;"">Press space to start the trial</div>"," ","","","","","","",""
"","","","","","html-keyboard-response","130","2.0.0","336011","p58tn73t71r","ono","ladybug","21","female","no","yes","2","2","null","<div style=""font-size:60px;"">+</div>","null","","","","","","",""
"","","","","","audio-keyboard-response","131","2.0.0","336620","p58tn73t71r","ono","ladybug","21","female","no","yes","2","2","null","stimuli/sounds/drop_sound_B.wav","null","","","","","","",""
"","","","","","html-keyboard-response","132","2.0.0","337622","p58tn73t71r","ono","ladybug","21","female","no","yes","2","2","null","","null","","","","","","",""
"","","","","","image-keyboard-response","133","2.0.0","339430","p58tn73t71r","ono","ladybug","21","female","no","yes","2","2","1806","stimuli/pictures/dog_rott_1.jpg","0","0","","true","no","sound","stimuli/sounds/drop_sound_B.wav",""
"","","","","","audio-keyboard-response","134","2.0.0","340433","p58tn73t71r","ono","ladybug","21","female","no","yes","2","2","null","stimuli/sounds/bleep.wav","null","","","","","","",""
"","","","","","html-keyboard-response","135","2.0.0","343967","p58tn73t71r","ono","ladybug","21","female","no","yes","2","2","3432","<div style=""font-size:30px;"">Press space to start the trial</div>"," ","","","","","","",""
"","","","","","html-keyboard-response","136","2.0.0","344220","p58tn73t71r","ono","ladybug","21","female","no","yes","2","2","null","<div style=""font-size:60px;"">+</div>","null","","","","","","",""
"","","","","","audio-keyboard-response","137","2.0.0","344828","p58tn73t71r","ono","ladybug","21","female","no","yes","2","2","null","stimuli/sounds/hiccup_sound_A.wav","null","","","","","","",""
"","","","","","html-keyboard-response","138","2.0.0","345831","p58tn73t71r","ono","ladybug","21","female","no","yes","2","2","null","","null","","","","","","",""
"","","","","","image-keyboard-response","139","2.0.0","346612","p58tn73t71r","ono","ladybug","21","female","no","yes","2","2","779","stimuli/pictures/motor_dirt_2.jpg","0","0","","true","no","sound","stimuli/sounds/hiccup_sound_A.wav",""
"","","","","","audio-keyboard-response","140","2.0.0","347615","p58tn73t71r","ono","ladybug","21","female","no","yes","2","2","null","stimuli/sounds/bleep.wav","null","","","","","","",""
"","","","","","html-keyboard-response","141","2.0.0","350964","p58tn73t71r","ono","ladybug","21","female","no","yes","2","2","3247","<div style=""font-size:30px;"">Press space to start the trial</div>"," ","","","","","","",""
"","","","","","html-keyboard-response","142","2.0.0","351217","p58tn73t71r","ono","ladybug","21","female","no","yes","2","2","null","<div style=""font-size:60px;"">+</div>","null","","","","","","",""
"","","","","","audio-keyboard-response","143","2.0.0","351820","p58tn73t71r","ono","ladybug","21","female","no","yes","2","2","null","stimuli/sounds/dog_sound_A.wav","null","","","","","","",""
"","","","","","html-keyboard-response","144","2.0.0","352822","p58tn73t71r","ono","ladybug","21","female","no","yes","2","2","null","","null","","","","","","",""
"","","","","","image-keyboard-response","145","2.0.0","353442","p58tn73t71r","ono","ladybug","21","female","no","yes","2","2","618","stimuli/pictures/dog_york_2.jpg","1","1","","true","no","sound","stimuli/sounds/dog_sound_A.wav",""
"","","","","","audio-keyboard-response","146","2.0.0","354446","p58tn73t71r","ono","ladybug","21","female","no","yes","2","2","null","stimuli/sounds/bleep.wav","null","","","","","","",""
"","","","","","html-keyboard-response","147","2.0.0","357838","p58tn73t71r","ono","ladybug","21","female","no","yes","2","2","3290","<p>You have completed a block. Press R when you are ready to continue</p>","r","","","","","","",""
"","","","","","html-keyboard-response","148","2.0.0","361300","p58tn73t71r","ono","ladybug","21","female","no","yes","2","2","3461","<div style=""font-size:30px;"">Press space to start the trial</div>"," ","","","","","","",""
"","","","","","html-keyboard-response","149","2.0.0","361553","p58tn73t71r","ono","ladybug","21","female","no","yes","2","2","null","<div style=""font-size:60px;"">+</div>","null","","","","","","",""
"","","","","","audio-keyboard-response","150","2.0.0","362156","p58tn73t71r","ono","ladybug","21","female","no","yes","2","2","null","stimuli/sounds/motor_sound_B.wav","null","","","","","","",""
"","","","","","html-keyboard-response","151","2.0.0","363158","p58tn73t71r","ono","ladybug","21","female","no","yes","2","2","null","","null","","","","","","",""
"","","","","","image-keyboard-response","152","2.0.0","364020","p58tn73t71r","ono","ladybug","21","female","no","yes","2","2","860","stimuli/pictures/cough_man_1.jpg","0","0","","true","no","sound","stimuli/sounds/motor_sound_B.wav",""
"","","","","","audio-keyboard-response","153","2.0.0","365023","p58tn73t71r","ono","ladybug","21","female","no","yes","2","2","null","stimuli/sounds/bleep.wav","null","","","","","","",""
"","","","","","html-keyboard-response","154","2.0.0","370355","p58tn73t71r","ono","ladybug","21","female","no","yes","2","2","5229","<div style=""font-size:30px;"">Press space to start the trial</div>"," ","","","","","","",""
"","","","","","html-keyboard-response","155","2.0.0","370608","p58tn73t71r","ono","ladybug","21","female","no","yes","2","2","null","<div style=""font-size:60px;"">+</div>","null","","","","","","",""
"","","","","","audio-keyboard-response","156","2.0.0","371206","p58tn73t71r","ono","ladybug","21","female","no","yes","2","2","null","stimuli/sounds/motor_sound_A.wav","null","","","","","","",""
"","","","","","html-keyboard-response","157","2.0.0","372208","p58tn73t71r","ono","ladybug","21","female","no","yes","2","2","null","","null","","","","","","",""
"","","","","","image-keyboard-response","158","2.0.0","372915","p58tn73t71r","ono","ladybug","21","female","no","yes","2","2","705","stimuli/pictures/drop_single_2.jpg","0","0","","true","no","sound","stimuli/sounds/motor_sound_A.wav",""
"","","","","","audio-keyboard-response","159","2.0.0","373918","p58tn73t71r","ono","ladybug","21","female","no","yes","2","2","null","stimuli/sounds/bleep.wav","null","","","","","","",""
"","","","","","html-keyboard-response","160","2.0.0","376503","p58tn73t71r","ono","ladybug","21","female","no","yes","2","2","2482","<div style=""font-size:30px;"">Press space to start the trial</div>"," ","","","","","","",""
"","","","","","html-keyboard-response","161","2.0.0","376756","p58tn73t71r","ono","ladybug","21","female","no","yes","2","2","null","<div style=""font-size:60px;"">+</div>","null","","","","","","",""
"","","","","","audio-keyboard-response","162","2.0.0","377435","p58tn73t71r","ono","ladybug","21","female","no","yes","2","2","null","stimuli/sounds/cough_sound_B.wav","null","","","","","","",""
"","","","","","html-keyboard-response","163","2.0.0","378438","p58tn73t71r","ono","ladybug","21","female","no","yes","2","2","null","","null","","","","","","",""
"","","","","","image-keyboard-response","164","2.0.0","379620","p58tn73t71r","ono","ladybug","21","female","no","yes","2","2","1180","stimuli/pictures/cough_wom_2.jpg","1","1","","true","no","sound","stimuli/sounds/cough_sound_B.wav",""
"","","","","","audio-keyboard-response","165","2.0.0","380623","p58tn73t71r","ono","ladybug","21","female","no","yes","2","2","null","stimuli/sounds/bleep.wav","null","","","","","","",""
"","","","","","html-keyboard-response","166","2.0.0","382138","p58tn73t71r","ono","ladybug","21","female","no","yes","2","2","1414","<div style=""font-size:30px;"">Press space to start the trial</div>"," ","","","","","","",""
"","","","","","html-keyboard-response","167","2.0.0","382391","p58tn73t71r","ono","ladybug","21","female","no","yes","2","2","null","<div style=""font-size:60px;"">+</div>","null","","","","","","",""
"","","","","","audio-keyboard-response","168","2.0.0","382993","p58tn73t71r","ono","ladybug","21","female","no","yes","2","2","null","stimuli/sounds/hiccup_sound_B.wav","null","","","","","","",""
"","","","","","html-keyboard-response","169","2.0.0","383996","p58tn73t71r","ono","ladybug","21","female","no","yes","2","2","null","","null","","","","","","",""
"","","","","","image-keyboard-response","170","2.0.0","387273","p58tn73t71r","ono","ladybug","21","female","no","yes","2","2","3275","stimuli/pictures/drop_single_2.jpg","0","0","","true","no","sound","stimuli/sounds/hiccup_sound_B.wav",""
"","","","","","audio-keyboard-response","171","2.0.0","388274","p58tn73t71r","ono","ladybug","21","female","no","yes","2","2","null","stimuli/sounds/bleep.wav","null","","","","","","",""
"","","","","","html-keyboard-response","172","2.0.0","389847","p58tn73t71r","ono","ladybug","21","female","no","yes","2","2","1471","<div style=""font-size:30px;"">Press space to start the trial</div>"," ","","","","","","",""
"","","","","","html-keyboard-response","173","2.0.0","390100","p58tn73t71r","ono","ladybug","21","female","no","yes","2","2","null","<div style=""font-size:60px;"">+</div>","null","","","","","","",""
"","","","","","audio-keyboard-response","174","2.0.0","390700","p58tn73t71r","ono","ladybug","21","female","no","yes","2","2","null","stimuli/sounds/dog_label_A.wav","null","","","","","","",""
"","","","","","html-keyboard-response","175","2.0.0","391703","p58tn73t71r","ono","ladybug","21","female","no","yes","2","2","null","","null","","","","","","",""
"","","","","","image-keyboard-response","176","2.0.0","395525","p58tn73t71r","ono","ladybug","21","female","no","yes","2","2","3820","stimuli/pictures/drop_multi_2.jpg","0","0","","true","no","sound","stimuli/sounds/dog_label_A.wav",""
"","","","","","audio-keyboard-response","177","2.0.0","396528","p58tn73t71r","ono","ladybug","21","female","no","yes","2","2","null","stimuli/sounds/bleep.wav","null","","","","","","",""
"","","","","","html-keyboard-response","178","2.0.0","397859","p58tn73t71r","ono","ladybug","21","female","no","yes","2","2","1230","<div style=""font-size:30px;"">Press space to start the trial</div>"," ","","","","","","",""
"","","","","","html-keyboard-response","179","2.0.0","398112","p58tn73t71r","ono","ladybug","21","female","no","yes","2","2","null","<div style=""font-size:60px;"">+</div>","null","","","","","","",""
"","","","","","audio-keyboard-response","180","2.0.0","398662","p58tn73t71r","ono","ladybug","21","female","no","yes","2","2","null","stimuli/sounds/drop_label_A.wav","null","","","","","","",""
"","","","","","html-keyboard-response","181","2.0.0","399665","p58tn73t71r","ono","ladybug","21","female","no","yes","2","2","null","","null","","","","","","",""
"","","","","","image-keyboard-response","182","2.0.0","407231","p58tn73t71r","ono","ladybug","21","female","no","yes","2","2","7565","stimuli/pictures/hiccup_wom_2.jpg","0","0","","true","no","sound","stimuli/sounds/drop_label_A.wav",""
"","","","","","audio-keyboard-response","183","2.0.0","408234","p58tn73t71r","ono","ladybug","21","female","no","yes","2","2","null","stimuli/sounds/bleep.wav","null","","","","","","",""
"","","","","","html-keyboard-response","184","2.0.0","409402","p58tn73t71r","ono","ladybug","21","female","no","yes","2","2","1066","<div style=""font-size:30px;"">Press space to start the trial</div>"," ","","","","","","",""
"","","","","","html-keyboard-response","185","2.0.0","409655","p58tn73t71r","ono","ladybug","21","female","no","yes","2","2","null","<div style=""font-size:60px;"">+</div>","null","","","","","","",""
"","","","","","audio-keyboard-response","186","2.0.0","410337","p58tn73t71r","ono","ladybug","21","female","no","yes","2","2","null","stimuli/sounds/cough_sound_B.wav","null","","","","","","",""
"","","","","","html-keyboard-response","187","2.0.0","411339","p58tn73t71r","ono","ladybug","21","female","no","yes","2","2","null","","null","","","","","","",""
"","","","","","image-keyboard-response","188","2.0.0","412998","p58tn73t71r","ono","ladybug","21","female","no","yes","2","2","1657","stimuli/pictures/cough_man_2.jpg","1","1","","true","yes","sound","stimuli/sounds/cough_sound_B.wav",""
"","","","","","audio-keyboard-response","189","2.0.0","414001","p58tn73t71r","ono","ladybug","21","female","no","yes","2","2","null","stimuli/sounds/bleep.wav","null","","","","","","",""
"","","","","","html-keyboard-response","190","2.0.0","415485","p58tn73t71r","ono","ladybug","21","female","no","yes","2","2","1381","<div style=""font-size:30px;"">Press space to start the trial</div>"," ","","","","","","",""
"","","","","","html-keyboard-response","191","2.0.0","415738","p58tn73t71r","ono","ladybug","21","female","no","yes","2","2","null","<div style=""font-size:60px;"">+</div>","null","","","","","","",""
"","","","","","audio-keyboard-response","192","2.0.0","416342","p58tn73t71r","ono","ladybug","21","female","no","yes","2","2","null","stimuli/sounds/dog_sound_A.wav","null","","","","","","",""
"","","","","","html-keyboard-response","193","2.0.0","417344","p58tn73t71r","ono","ladybug","21","female","no","yes","2","2","null","","null","","","","","","",""
"","","","","","image-keyboard-response","194","2.0.0","418296","p58tn73t71r","ono","ladybug","21","female","no","yes","2","2","950","stimuli/pictures/hiccup_wom_1.jpg","0","0","","true","no","sound","stimuli/sounds/dog_sound_A.wav",""
"","","","","","audio-keyboard-response","195","2.0.0","419299","p58tn73t71r","ono","ladybug","21","female","no","yes","2","2","null","stimuli/sounds/bleep.wav","null","","","","","","",""
"","","","","","html-keyboard-response","196","2.0.0","421471","p58tn73t71r","ono","ladybug","21","female","no","yes","2","2","2069","<div style=""font-size:30px;"">Press space to start the trial</div>"," ","","","","","","",""
"","","","","","html-keyboard-response","197","2.0.0","421724","p58tn73t71r","ono","ladybug","21","female","no","yes","2","2","null","<div style=""font-size:60px;"">+</div>","null","","","","","","",""
"","","","","","audio-keyboard-response","198","2.0.0","422326","p58tn73t71r","ono","ladybug","21","female","no","yes","2","2","null","stimuli/sounds/motor_sound_B.wav","null","","","","","","",""
"","","","","","html-keyboard-response","199","2.0.0","423328","p58tn73t71r","ono","ladybug","21","female","no","yes","2","2","null","","null","","","","","","",""
"","","","","","image-keyboard-response","200","2.0.0","424227","p58tn73t71r","ono","ladybug","21","female","no","yes","2","2","897","stimuli/pictures/cough_man_2.jpg","0","0","","true","no","sound","stimuli/sounds/motor_sound_B.wav",""
"","","","","","audio-keyboard-response","201","2.0.0","425229","p58tn73t71r","ono","ladybug","21","female","no","yes","2","2","null","stimuli/sounds/bleep.wav","null","","","","","","",""
"","","","","","html-keyboard-response","202","2.0.0","426027","p58tn73t71r","ono","ladybug","21","female","no","yes","2","2","695","<div style=""font-size:30px;"">Press space to start the trial</div>"," ","","","","","","",""
"","","","","","html-keyboard-response","203","2.0.0","426279","p58tn73t71r","ono","ladybug","21","female","no","yes","2","2","null","<div style=""font-size:60px;"">+</div>","null","","","","","","",""
"","","","","","audio-keyboard-response","204","2.0.0","426881","p58tn73t71r","ono","ladybug","21","female","no","yes","2","2","null","stimuli/sounds/dog_sound_B.wav","null","","","","","","",""
"","","","","","html-keyboard-response","205","2.0.0","427883","p58tn73t71r","ono","ladybug","21","female","no","yes","2","2","null","","null","","","","","","",""
"","","","","","image-keyboard-response","206","2.0.0","428726","p58tn73t71r","ono","ladybug","21","female","no","yes","2","2","840","stimuli/pictures/dog_york_1.jpg","1","1","","true","yes","sound","stimuli/sounds/dog_sound_B.wav",""
"","","","","","audio-keyboard-response","207","2.0.0","429729","p58tn73t71r","ono","ladybug","21","female","no","yes","2","2","null","stimuli/sounds/bleep.wav","null","","","","","","",""
"","","","","","html-keyboard-response","208","2.0.0","431440","p58tn73t71r","ono","ladybug","21","female","no","yes","2","2","1608","<div style=""font-size:30px;"">Press space to start the trial</div>"," ","","","","","","",""
"","","","","","html-keyboard-response","209","2.0.0","431693","p58tn73t71r","ono","ladybug","21","female","no","yes","2","2","null","<div style=""font-size:60px;"">+</div>","null","","","","","","",""
"","","","","","audio-keyboard-response","210","2.0.0","432241","p58tn73t71r","ono","ladybug","21","female","no","yes","2","2","null","stimuli/sounds/drop_label_A.wav","null","","","","","","",""
"","","","","","html-keyboard-response","211","2.0.0","433243","p58tn73t71r","ono","ladybug","21","female","no","yes","2","2","null","","null","","","","","","",""
"","","","","","image-keyboard-response","212","2.0.0","433661","p58tn73t71r","ono","ladybug","21","female","no","yes","2","2","416","stimuli/pictures/drop_multi_1.jpg","1","1","","true","yes","sound","stimuli/sounds/drop_label_A.wav",""
"","","","","","audio-keyboard-response","213","2.0.0","434664","p58tn73t71r","ono","ladybug","21","female","no","yes","2","2","null","stimuli/sounds/bleep.wav","null","","","","","","",""
"","","","","","html-keyboard-response","214","2.0.0","436097","p58tn73t71r","ono","ladybug","21","female","no","yes","2","2","1331","<div style=""font-size:30px;"">Press space to start the trial</div>"," ","","","","","","",""
"","","","","","html-keyboard-response","215","2.0.0","436348","p58tn73t71r","ono","ladybug","21","female","no","yes","2","2","null","<div style=""font-size:60px;"">+</div>","null","","","","","","",""
"","","","","","audio-keyboard-response","216","2.0.0","436950","p58tn73t71r","ono","ladybug","21","female","no","yes","2","2","null","stimuli/sounds/dog_label_B.wav","null","","","","","","",""
"","","","","","html-keyboard-response","217","2.0.0","437952","p58tn73t71r","ono","ladybug","21","female","no","yes","2","2","null","","null","","","","","","",""
"","","","","","image-keyboard-response","218","2.0.0","438506","p58tn73t71r","ono","ladybug","21","female","no","yes","2","2","551","stimuli/pictures/dog_rott_2.jpg","1","1","","true","yes","sound","stimuli/sounds/dog_label_B.wav",""
"","","","","","audio-keyboard-response","219","2.0.0","439509","p58tn73t71r","ono","ladybug","21","female","no","yes","2","2","null","stimuli/sounds/bleep.wav","null","","","","","","",""
"","","","","","html-keyboard-response","220","2.0.0","440363","p58tn73t71r","ono","ladybug","21","female","no","yes","2","2","751","<div style=""font-size:30px;"">Press space to start the trial</div>"," ","","","","","","",""
"","","","","","html-keyboard-response","221","2.0.0","440616","p58tn73t71r","ono","ladybug","21","female","no","yes","2","2","null","<div style=""font-size:60px;"">+</div>","null","","","","","","",""
"","","","","","audio-keyboard-response","222","2.0.0","441222","p58tn73t71r","ono","ladybug","21","female","no","yes","2","2","null","stimuli/sounds/cough_label_B.wav","null","","","","","","",""
"","","","","","html-keyboard-response","223","2.0.0","442225","p58tn73t71r","ono","ladybug","21","female","no","yes","2","2","null","","null","","","","","","",""
"","","","","","image-keyboard-response","224","2.0.0","442988","p58tn73t71r","ono","ladybug","21","female","no","yes","2","2","761","stimuli/pictures/drop_single_2.jpg","0","0","","true","no","sound","stimuli/sounds/cough_label_B.wav",""
"","","","","","audio-keyboard-response","225","2.0.0","443991","p58tn73t71r","ono","ladybug","21","female","no","yes","2","2","null","stimuli/sounds/bleep.wav","null","","","","","","",""
"","","","","","html-keyboard-response","226","2.0.0","445520","p58tn73t71r","ono","ladybug","21","female","no","yes","2","2","1424","<div style=""font-size:30px;"">Press space to start the trial</div>"," ","","","","","","",""
"","","","","","html-keyboard-response","227","2.0.0","445773","p58tn73t71r","ono","ladybug","21","female","no","yes","2","2","null","<div style=""font-size:60px;"">+</div>","null","","","","","","",""
"","","","","","audio-keyboard-response","228","2.0.0","446374","p58tn73t71r","ono","ladybug","21","female","no","yes","2","2","null","stimuli/sounds/motor_label_A.wav","null","","","","","","",""
"","","","","","html-keyboard-response","229","2.0.0","447376","p58tn73t71r","ono","ladybug","21","female","no","yes","2","2","null","","null","","","","","","",""
"","","","","","image-keyboard-response","230","2.0.0","447871","p58tn73t71r","ono","ladybug","21","female","no","yes","2","2","493","stimuli/pictures/motor_harley_1.jpg","0","1","","false","yes","sound","stimuli/sounds/motor_label_A.wav",""
"","","","","","audio-keyboard-response","231","2.0.0","448874","p58tn73t71r","ono","ladybug","21","female","no","yes","2","2","null","stimuli/sounds/buzz.wav","null","","","","","","",""
"","","","","","html-keyboard-response","232","2.0.0","449742","p58tn73t71r","ono","ladybug","21","female","no","yes","2","2","767","<div style=""font-size:30px;"">Press space to start the trial</div>"," ","","","","","","",""
"","","","","","html-keyboard-response","233","2.0.0","449994","p58tn73t71r","ono","ladybug","21","female","no","yes","2","2","null","<div style=""font-size:60px;"">+</div>","null","","","","","","",""
"","","","","","audio-keyboard-response","234","2.0.0","450630","p58tn73t71r","ono","ladybug","21","female","no","yes","2","2","null","stimuli/sounds/cough_label_A.wav","null","","","","","","",""
"","","","","","html-keyboard-response","235","2.0.0","451632","p58tn73t71r","ono","ladybug","21","female","no","yes","2","2","null","","null","","","","","","",""
"","","","","","image-keyboard-response","236","2.0.0","452371","p58tn73t71r","ono","ladybug","21","female","no","yes","2","2","737","stimuli/pictures/cough_wom_2.jpg","1","1","","true","yes","sound","stimuli/sounds/cough_label_A.wav",""
"","","","","","audio-keyboard-response","237","2.0.0","453374","p58tn73t71r","ono","ladybug","21","female","no","yes","2","2","null","stimuli/sounds/bleep.wav","null","","","","","","",""
"","","","","","html-keyboard-response","238","2.0.0","454924","p58tn73t71r","ono","ladybug","21","female","no","yes","2","2","1448","<div style=""font-size:30px;"">Press space to start the trial</div>"," ","","","","","","",""
"","","","","","html-keyboard-response","239","2.0.0","455177","p58tn73t71r","ono","ladybug","21","female","no","yes","2","2","null","<div style=""font-size:60px;"">+</div>","null","","","","","","",""
"","","","","","audio-keyboard-response","240","2.0.0","455808","p58tn73t71r","ono","ladybug","21","female","no","yes","2","2","null","stimuli/sounds/cough_label_A.wav","null","","","","","","",""
"","","","","","html-keyboard-response","241","2.0.0","456811","p58tn73t71r","ono","ladybug","21","female","no","yes","2","2","null","","null","","","","","","",""
"","","","","","image-keyboard-response","242","2.0.0","457275","p58tn73t71r","ono","ladybug","21","female","no","yes","2","2","462","stimuli/pictures/motor_harley_2.jpg","0","0","","true","no","sound","stimuli/sounds/cough_label_A.wav",""
"","","","","","audio-keyboard-response","243","2.0.0","458277","p58tn73t71r","ono","ladybug","21","female","no","yes","2","2","null","stimuli/sounds/bleep.wav","null","","","","","","",""
"","","","","","html-keyboard-response","244","2.0.0","459956","p58tn73t71r","ono","ladybug","21","female","no","yes","2","2","1576","<div style=""font-size:30px;"">Press space to start the trial</div>"," ","","","","","","",""
"","","","","","html-keyboard-response","245","2.0.0","460208","p58tn73t71r","ono","ladybug","21","female","no","yes","2","2","null","<div style=""font-size:60px;"">+</div>","null","","","","","","",""
"","","","","","audio-keyboard-response","246","2.0.0","460811","p58tn73t71r","ono","ladybug","21","female","no","yes","2","2","null","stimuli/sounds/dog_label_A.wav","null","","","","","","",""
"","","","","","html-keyboard-response","247","2.0.0","461813","p58tn73t71r","ono","ladybug","21","female","no","yes","2","2","null","","null","","","","","","",""
"","","","","","image-keyboard-response","248","2.0.0","462228","p58tn73t71r","ono","ladybug","21","female","no","yes","2","2","412","stimuli/pictures/dog_rott_2.jpg","1","1","","true","yes","sound","stimuli/sounds/dog_label_A.wav",""
"","","","","","audio-keyboard-response","249","2.0.0","463230","p58tn73t71r","ono","ladybug","21","female","no","yes","2","2","null","stimuli/sounds/bleep.wav","null","","","","","","",""
"","","","","","html-keyboard-response","250","2.0.0","464472","p58tn73t71r","ono","ladybug","21","female","no","yes","2","2","1140","<div style=""font-size:30px;"">Press space to start the trial</div>"," ","","","","","","",""
"","","","","","html-keyboard-response","251","2.0.0","464725","p58tn73t71r","ono","ladybug","21","female","no","yes","2","2","null","<div style=""font-size:60px;"">+</div>","null","","","","","","",""
"","","","","","audio-keyboard-response","252","2.0.0","465392","p58tn73t71r","ono","ladybug","21","female","no","yes","2","2","null","stimuli/sounds/cough_sound_A.wav","null","","","","","","",""
"","","","","","html-keyboard-response","253","2.0.0","466395","p58tn73t71r","ono","ladybug","21","female","no","yes","2","2","null","","null","","","","","","",""
"","","","","","image-keyboard-response","254","2.0.0","467266","p58tn73t71r","ono","ladybug","21","female","no","yes","2","2","869","stimuli/pictures/dog_york_2.jpg","0","0","","true","no","sound","stimuli/sounds/cough_sound_A.wav",""
"","","","","","audio-keyboard-response","255","2.0.0","468269","p58tn73t71r","ono","ladybug","21","female","no","yes","2","2","null","stimuli/sounds/bleep.wav","null","","","","","","",""
"","","","","","html-keyboard-response","256","2.0.0","470236","p58tn73t71r","ono","ladybug","21","female","no","yes","2","2","1864","<div style=""font-size:30px;"">Press space to start the trial</div>"," ","","","","","","",""
"","","","","","html-keyboard-response","257","2.0.0","470489","p58tn73t71r","ono","ladybug","21","female","no","yes","2","2","null","<div style=""font-size:60px;"">+</div>","null","","","","","","",""
"","","","","","audio-keyboard-response","258","2.0.0","471088","p58tn73t71r","ono","ladybug","21","female","no","yes","2","2","null","stimuli/sounds/dog_label_A.wav","null","","","","","","",""
"","","","","","html-keyboard-response","259","2.0.0","472091","p58tn73t71r","ono","ladybug","21","female","no","yes","2","2","null","","null","","","","","","",""
"","","","","","image-keyboard-response","260","2.0.0","472598","p58tn73t71r","ono","ladybug","21","female","no","yes","2","2","506","stimuli/pictures/drop_multi_1.jpg","0","0","","true","no","sound","stimuli/sounds/dog_label_A.wav",""
"","","","","","audio-keyboard-response","261","2.0.0","473600","p58tn73t71r","ono","ladybug","21","female","no","yes","2","2","null","stimuli/sounds/bleep.wav","null","","","","","","",""
"","","","","","html-keyboard-response","262","2.0.0","475726","p58tn73t71r","ono","ladybug","21","female","no","yes","2","2","2023","<div style=""font-size:30px;"">Press space to start the trial</div>"," ","","","","","","",""
"","","","","","html-keyboard-response","263","2.0.0","475978","p58tn73t71r","ono","ladybug","21","female","no","yes","2","2","null","<div style=""font-size:60px;"">+</div>","null","","","","","","",""
"","","","","","audio-keyboard-response","264","2.0.0","476592","p58tn73t71r","ono","ladybug","21","female","no","yes","2","2","null","stimuli/sounds/drop_label_B.wav","null","","","","","","",""
"","","","","","html-keyboard-response","265","2.0.0","477594","p58tn73t71r","ono","ladybug","21","female","no","yes","2","2","null","","null","","","","","","",""
"","","","","","image-keyboard-response","266","2.0.0","477986","p58tn73t71r","ono","ladybug","21","female","no","yes","2","2","389","stimuli/pictures/drop_single_2.jpg","1","1","","true","yes","sound","stimuli/sounds/drop_label_B.wav",""
"","","","","","audio-keyboard-response","267","2.0.0","478989","p58tn73t71r","ono","ladybug","21","female","no","yes","2","2","null","stimuli/sounds/bleep.wav","null","","","","","","",""
"","","","","","html-keyboard-response","268","2.0.0","480968","p58tn73t71r","ono","ladybug","21","female","no","yes","2","2","1877","<p>You have completed a block. Press R when you are ready to continue</p>","r","","","","","","",""
"","","","","","html-keyboard-response","269","2.0.0","482509","p58tn73t71r","ono","ladybug","21","female","no","yes","2","2","1540","<div style=""font-size:30px;"">Press space to start the trial</div>"," ","","","","","","",""
"","","","","","html-keyboard-response","270","2.0.0","482761","p58tn73t71r","ono","ladybug","21","female","no","yes","2","2","null","<div style=""font-size:60px;"">+</div>","null","","","","","","",""
"","","","","","audio-keyboard-response","271","2.0.0","483424","p58tn73t71r","ono","ladybug","21","female","no","yes","2","2","null","stimuli/sounds/cough_sound_A.wav","null","","","","","","",""
"","","","","","html-keyboard-response","272","2.0.0","484427","p58tn73t71r","ono","ladybug","21","female","no","yes","2","2","null","","null","","","","","","",""
"","","","","","image-keyboard-response","273","2.0.0","485453","p58tn73t71r","ono","ladybug","21","female","no","yes","2","2","1023","stimuli/pictures/cough_wom_1.jpg","1","1","","true","yes","sound","stimuli/sounds/cough_sound_A.wav",""
"","","","","","audio-keyboard-response","274","2.0.0","486456","p58tn73t71r","ono","ladybug","21","female","no","yes","2","2","null","stimuli/sounds/bleep.wav","null","","","","","","",""
"","","","","","html-keyboard-response","275","2.0.0","487877","p58tn73t71r","ono","ladybug","21","female","no","yes","2","2","1318","<div style=""font-size:30px;"">Press space to start the trial</div>"," ","","","","","","",""
"","","","","","html-keyboard-response","276","2.0.0","488130","p58tn73t71r","ono","ladybug","21","female","no","yes","2","2","null","<div style=""font-size:60px;"">+</div>","null","","","","","","",""
"","","","","","audio-keyboard-response","277","2.0.0","488731","p58tn73t71r","ono","ladybug","21","female","no","yes","2","2","null","stimuli/sounds/hiccup_sound_B.wav","null","","","","","","",""
"","","","","","html-keyboard-response","278","2.0.0","489734","p58tn73t71r","ono","ladybug","21","female","no","yes","2","2","null","","null","","","","","","",""
"","","","","","image-keyboard-response","279","2.0.0","490406","p58tn73t71r","ono","ladybug","21","female","no","yes","2","2","669","stimuli/pictures/drop_multi_2.jpg","0","0","","true","no","sound","stimuli/sounds/hiccup_sound_B.wav",""
"","","","","","audio-keyboard-response","280","2.0.0","491408","p58tn73t71r","ono","ladybug","21","female","no","yes","2","2","null","stimuli/sounds/bleep.wav","null","","","","","","",""
"","","","","","html-keyboard-response","281","2.0.0","492178","p58tn73t71r","ono","ladybug","21","female","no","yes","2","2","668","<div style=""font-size:30px;"">Press space to start the trial</div>"," ","","","","","","",""
"","","","","","html-keyboard-response","282","2.0.0","492431","p58tn73t71r","ono","ladybug","21","female","no","yes","2","2","null","<div style=""font-size:60px;"">+</div>","null","","","","","","",""
"","","","","","audio-keyboard-response","283","2.0.0","493046","p58tn73t71r","ono","ladybug","21","female","no","yes","2","2","null","stimuli/sounds/drop_label_B.wav","null","","","","","","",""
"","","","","","html-keyboard-response","284","2.0.0","494048","p58tn73t71r","ono","ladybug","21","female","no","yes","2","2","null","","null","","","","","","",""
"","","","","","image-keyboard-response","285","2.0.0","494652","p58tn73t71r","ono","ladybug","21","female","no","yes","2","2","603","stimuli/pictures/drop_single_1.jpg","1","1","","true","yes","sound","stimuli/sounds/drop_label_B.wav",""
"","","","","","audio-keyboard-response","286","2.0.0","495654","p58tn73t71r","ono","ladybug","21","female","no","yes","2","2","null","stimuli/sounds/bleep.wav","null","","","","","","",""
"","","","","","html-keyboard-response","287","2.0.0","496487","p58tn73t71r","ono","ladybug","21","female","no","yes","2","2","729","<div style=""font-size:30px;"">Press space to start the trial</div>"," ","","","","","","",""
"","","","","","html-keyboard-response","288","2.0.0","496740","p58tn73t71r","ono","ladybug","21","female","no","yes","2","2","null","<div style=""font-size:60px;"">+</div>","null","","","","","","",""
"","","","","","audio-keyboard-response","289","2.0.0","497419","p58tn73t71r","ono","ladybug","21","female","no","yes","2","2","null","stimuli/sounds/cough_sound_B.wav","null","","","","","","",""
"","","","","","html-keyboard-response","290","2.0.0","498422","p58tn73t71r","ono","ladybug","21","female","no","yes","2","2","null","","null","","","","","","",""
"","","","","","image-keyboard-response","291","2.0.0","499600","p58tn73t71r","ono","ladybug","21","female","no","yes","2","2","1177","stimuli/pictures/hiccup_man_1.jpg","1","0","","false","no","sound","stimuli/sounds/cough_sound_B.wav",""
"","","","","","audio-keyboard-response","292","2.0.0","500603","p58tn73t71r","ono","ladybug","21","female","no","yes","2","2","null","stimuli/sounds/buzz.wav","null","","","","","","",""
"","","","","","html-keyboard-response","293","2.0.0","502033","p58tn73t71r","ono","ladybug","21","female","no","yes","2","2","1328","<div style=""font-size:30px;"">Press space to start the trial</div>"," ","","","","","","",""
"","","","","","html-keyboard-response","294","2.0.0","502286","p58tn73t71r","ono","ladybug","21","female","no","yes","2","2","null","<div style=""font-size:60px;"">+</div>","null","","","","","","",""
"","","","","","audio-keyboard-response","295","2.0.0","502885","p58tn73t71r","ono","ladybug","21","female","no","yes","2","2","null","stimuli/sounds/dog_sound_A.wav","null","","","","","","",""
"","","","","","html-keyboard-response","296","2.0.0","503888","p58tn73t71r","ono","ladybug","21","female","no","yes","2","2","null","","null","","","","","","",""
"","","","","","image-keyboard-response","297","2.0.0","504529","p58tn73t71r","ono","ladybug","21","female","no","yes","2","2","639","stimuli/pictures/dog_rott_1.jpg","1","1","","true","yes","sound","stimuli/sounds/dog_sound_A.wav",""
"","","","","","audio-keyboard-response","298","2.0.0","505532","p58tn73t71r","ono","ladybug","21","female","no","yes","2","2","null","stimuli/sounds/bleep.wav","null","","","","","","",""
"","","","","","html-keyboard-response","299","2.0.0","506679","p58tn73t71r","ono","ladybug","21","female","no","yes","2","2","1044","<div style=""font-size:30px;"">Press space to start the trial</div>"," ","","","","","","",""
"","","","","","html-keyboard-response","300","2.0.0","506931","p58tn73t71r","ono","ladybug","21","female","no","yes","2","2","null","<div style=""font-size:60px;"">+</div>","null","","","","","","",""
"","","","","","audio-keyboard-response","301","2.0.0","507563","p58tn73t71r","ono","ladybug","21","female","no","yes","2","2","null","stimuli/sounds/cough_label_A.wav","null","","","","","","",""
"","","","","","html-keyboard-response","302","2.0.0","508566","p58tn73t71r","ono","ladybug","21","female","no","yes","2","2","null","","null","","","","","","",""
"","","","","","image-keyboard-response","303","2.0.0","509161","p58tn73t71r","ono","ladybug","21","female","no","yes","2","2","594","stimuli/pictures/motor_dirt_2.jpg","0","0","","true","no","sound","stimuli/sounds/cough_label_A.wav",""
"","","","","","audio-keyboard-response","304","2.0.0","510164","p58tn73t71r","ono","ladybug","21","female","no","yes","2","2","null","stimuli/sounds/bleep.wav","null","","","","","","",""
"","","","","","html-keyboard-response","305","2.0.0","510973","p58tn73t71r","ono","ladybug","21","female","no","yes","2","2","706","<div style=""font-size:30px;"">Press space to start the trial</div>"," ","","","","","","",""
"","","","","","html-keyboard-response","306","2.0.0","511226","p58tn73t71r","ono","ladybug","21","female","no","yes","2","2","null","<div style=""font-size:60px;"">+</div>","null","","","","","","",""
"","","","","","audio-keyboard-response","307","2.0.0","511830","p58tn73t71r","ono","ladybug","21","female","no","yes","2","2","null","stimuli/sounds/dog_label_A.wav","null","","","","","","",""
"","","","","","html-keyboard-response","308","2.0.0","512832","p58tn73t71r","ono","ladybug","21","female","no","yes","2","2","null","","null","","","","","","",""
"","","","","","image-keyboard-response","309","2.0.0","513352","p58tn73t71r","ono","ladybug","21","female","no","yes","2","2","518","stimuli/pictures/dog_york_1.jpg","1","1","","true","yes","sound","stimuli/sounds/dog_label_A.wav",""
"","","","","","audio-keyboard-response","310","2.0.0","514355","p58tn73t71r","ono","ladybug","21","female","no","yes","2","2","null","stimuli/sounds/bleep.wav","null","","","","","","",""
"","","","","","html-keyboard-response","311","2.0.0","515573","p58tn73t71r","ono","ladybug","21","female","no","yes","2","2","1116","<div style=""font-size:30px;"">Press space to start the trial</div>"," ","","","","","","",""
"","","","","","html-keyboard-response","312","2.0.0","515827","p58tn73t71r","ono","ladybug","21","female","no","yes","2","2","null","<div style=""font-size:60px;"">+</div>","null","","","","","","",""
"","","","","","audio-keyboard-response","313","2.0.0","516491","p58tn73t71r","ono","ladybug","21","female","no","yes","2","2","null","stimuli/sounds/cough_sound_A.wav","null","","","","","","",""
"","","","","","html-keyboard-response","314","2.0.0","517492","p58tn73t71r","ono","ladybug","21","female","no","yes","2","2","null","","null","","","","","","",""
"","","","","","image-keyboard-response","315","2.0.0","518904","p58tn73t71r","ono","ladybug","21","female","no","yes","2","2","1410","stimuli/pictures/cough_man_2.jpg","1","1","","true","no","sound","stimuli/sounds/cough_sound_A.wav",""
"","","","","","audio-keyboard-response","316","2.0.0","519908","p58tn73t71r","ono","ladybug","21","female","no","yes","2","2","null","stimuli/sounds/bleep.wav","null","","","","","","",""
"","","","","","html-keyboard-response","317","2.0.0","521015","p58tn73t71r","ono","ladybug","21","female","no","yes","2","2","1006","<div style=""font-size:30px;"">Press space to start the trial</div>"," ","","","","","","",""
"","","","","","html-keyboard-response","318","2.0.0","521268","p58tn73t71r","ono","ladybug","21","female","no","yes","2","2","null","<div style=""font-size:60px;"">+</div>","null","","","","","","",""
"","","","","","audio-keyboard-response","319","2.0.0","521867","p58tn73t71r","ono","ladybug","21","female","no","yes","2","2","null","stimuli/sounds/motor_label_A.wav","null","","","","","","",""
"","","","","","html-keyboard-response","320","2.0.0","522868","p58tn73t71r","ono","ladybug","21","female","no","yes","2","2","null","","null","","","","","","",""
"","","","","","image-keyboard-response","321","2.0.0","523526","p58tn73t71r","ono","ladybug","21","female","no","yes","2","2","656","stimuli/pictures/dog_rott_1.jpg","0","0","","true","no","sound","stimuli/sounds/motor_label_A.wav",""
"","","","","","audio-keyboard-response","322","2.0.0","524529","p58tn73t71r","ono","ladybug","21","female","no","yes","2","2","null","stimuli/sounds/bleep.wav","null","","","","","","",""
"","","","","","html-keyboard-response","323","2.0.0","525469","p58tn73t71r","ono","ladybug","21","female","no","yes","2","2","838","<div style=""font-size:30px;"">Press space to start the trial</div>"," ","","","","","","",""
"","","","","","html-keyboard-response","324","2.0.0","525721","p58tn73t71r","ono","ladybug","21","female","no","yes","2","2","null","<div style=""font-size:60px;"">+</div>","null","","","","","","",""
"","","","","","audio-keyboard-response","325","2.0.0","526331","p58tn73t71r","ono","ladybug","21","female","no","yes","2","2","null","stimuli/sounds/hiccup_sound_A.wav","null","","","","","","",""
"","","","","","html-keyboard-response","326","2.0.0","527334","p58tn73t71r","ono","ladybug","21","female","no","yes","2","2","null","","null","","","","","","",""
"","","","","","image-keyboard-response","327","2.0.0","527902","p58tn73t71r","ono","ladybug","21","female","no","yes","2","2","567","stimuli/pictures/motor_harley_1.jpg","0","0","","true","no","sound","stimuli/sounds/hiccup_sound_A.wav",""
"","","","","","audio-keyboard-response","328","2.0.0","528905","p58tn73t71r","ono","ladybug","21","female","no","yes","2","2","null","stimuli/sounds/bleep.wav","null","","","","","","",""
"","","","","","html-keyboard-response","329","2.0.0","529874","p58tn73t71r","ono","ladybug","21","female","no","yes","2","2","867","<div style=""font-size:30px;"">Press space to start the trial</div>"," ","","","","","","",""
"","","","","","html-keyboard-response","330","2.0.0","530127","p58tn73t71r","ono","ladybug","21","female","no","yes","2","2","null","<div style=""font-size:60px;"">+</div>","null","","","","","","",""
"","","","","","audio-keyboard-response","331","2.0.0","530709","p58tn73t71r","ono","ladybug","21","female","no","yes","2","2","null","stimuli/sounds/drop_sound_A.wav","null","","","","","","",""
"","","","","","html-keyboard-response","332","2.0.0","531712","p58tn73t71r","ono","ladybug","21","female","no","yes","2","2","null","","null","","","","","","",""
"","","","","","image-keyboard-response","333","2.0.0","532212","p58tn73t71r","ono","ladybug","21","female","no","yes","2","2","498","stimuli/pictures/drop_single_1.jpg","1","1","","true","yes","sound","stimuli/sounds/drop_sound_A.wav",""
"","","","","","audio-keyboard-response","334","2.0.0","533215","p58tn73t71r","ono","ladybug","21","female","no","yes","2","2","null","stimuli/sounds/bleep.wav","null","","","","","","",""
"","","","","","html-keyboard-response","335","2.0.0","533883","p58tn73t71r","ono","ladybug","21","female","no","yes","2","2","566","<div style=""font-size:30px;"">Press space to start the trial</div>"," ","","","","","","",""
"","","","","","html-keyboard-response","336","2.0.0","534135","p58tn73t71r","ono","ladybug","21","female","no","yes","2","2","null","<div style=""font-size:60px;"">+</div>","null","","","","","","",""
"","","","","","audio-keyboard-response","337","2.0.0","534736","p58tn73t71r","ono","ladybug","21","female","no","yes","2","2","null","stimuli/sounds/dog_sound_A.wav","null","","","","","","",""
"","","","","","html-keyboard-response","338","2.0.0","535738","p58tn73t71r","ono","ladybug","21","female","no","yes","2","2","null","","null","","","","","","",""
"","","","","","image-keyboard-response","339","2.0.0","536266","p58tn73t71r","ono","ladybug","21","female","no","yes","2","2","527","stimuli/pictures/dog_york_1.jpg","1","1","","true","no","sound","stimuli/sounds/dog_sound_A.wav",""
"","","","","","audio-keyboard-response","340","2.0.0","537269","p58tn73t71r","ono","ladybug","21","female","no","yes","2","2","null","stimuli/sounds/bleep.wav","null","","","","","","",""
"","","","","","html-keyboard-response","341","2.0.0","542186","p58tn73t71r","ono","ladybug","21","female","no","yes","2","2","4814","<div style=""font-size:30px;"">Press space to start the trial</div>"," ","","","","","","",""
"","","","","","html-keyboard-response","342","2.0.0","542438","p58tn73t71r","ono","ladybug","21","female","no","yes","2","2","null","<div style=""font-size:60px;"">+</div>","null","","","","","","",""
"","","","","","audio-keyboard-response","343","2.0.0","543072","p58tn73t71r","ono","ladybug","21","female","no","yes","2","2","null","stimuli/sounds/cough_label_A.wav","null","","","","","","",""
"","","","","","html-keyboard-response","344","2.0.0","544074","p58tn73t71r","ono","ladybug","21","female","no","yes","2","2","null","","null","","","","","","",""
"","","","","","image-keyboard-response","345","2.0.0","545036","p58tn73t71r","ono","ladybug","21","female","no","yes","2","2","960","stimuli/pictures/cough_wom_1.jpg","1","1","","true","yes","sound","stimuli/sounds/cough_label_A.wav",""
"","","","","","audio-keyboard-response","346","2.0.0","546039","p58tn73t71r","ono","ladybug","21","female","no","yes","2","2","null","stimuli/sounds/bleep.wav","null","","","","","","",""
"","","","","","html-keyboard-response","347","2.0.0","548355","p58tn73t71r","ono","ladybug","21","female","no","yes","2","2","2214","<div style=""font-size:30px;"">Press space to start the trial</div>"," ","","","","","","",""
"","","","","","html-keyboard-response","348","2.0.0","548608","p58tn73t71r","ono","ladybug","21","female","no","yes","2","2","null","<div style=""font-size:60px;"">+</div>","null","","","","","","",""
"","","","","","audio-keyboard-response","349","2.0.0","549211","p58tn73t71r","ono","ladybug","21","female","no","yes","2","2","null","stimuli/sounds/dog_label_A.wav","null","","","","","","",""
"","","","","","html-keyboard-response","350","2.0.0","550213","p58tn73t71r","ono","ladybug","21","female","no","yes","2","2","null","","null","","","","","","",""
"","","","","","image-keyboard-response","351","2.0.0","550891","p58tn73t71r","ono","ladybug","21","female","no","yes","2","2","675","stimuli/pictures/dog_rott_1.jpg","1","1","","true","yes","sound","stimuli/sounds/dog_label_A.wav",""
"","","","","","audio-keyboard-response","352","2.0.0","551894","p58tn73t71r","ono","ladybug","21","female","no","yes","2","2","null","stimuli/sounds/bleep.wav","null","","","","","","",""
"","","","","","html-keyboard-response","353","2.0.0","553617","p58tn73t71r","ono","ladybug","21","female","no","yes","2","2","1620","<div style=""font-size:30px;"">Press space to start the trial</div>"," ","","","","","","",""
"","","","","","html-keyboard-response","354","2.0.0","553869","p58tn73t71r","ono","ladybug","21","female","no","yes","2","2","null","<div style=""font-size:60px;"">+</div>","null","","","","","","",""
"","","","","","audio-keyboard-response","355","2.0.0","554469","p58tn73t71r","ono","ladybug","21","female","no","yes","2","2","null","stimuli/sounds/motor_label_A.wav","null","","","","","","",""
"","","","","","html-keyboard-response","356","2.0.0","555472","p58tn73t71r","ono","ladybug","21","female","no","yes","2","2","null","","null","","","","","","",""
"","","","","","image-keyboard-response","357","2.0.0","556115","p58tn73t71r","ono","ladybug","21","female","no","yes","2","2","641","stimuli/pictures/motor_dirt_2.jpg","0","1","","false","yes","sound","stimuli/sounds/motor_label_A.wav",""
"","","","","","audio-keyboard-response","358","2.0.0","557118","p58tn73t71r","ono","ladybug","21","female","no","yes","2","2","null","stimuli/sounds/buzz.wav","null","","","","","","",""
"","","","","","html-keyboard-response","359","2.0.0","557994","p58tn73t71r","ono","ladybug","21","female","no","yes","2","2","775","<div style=""font-size:30px;"">Press space to start the trial</div>"," ","","","","","","",""
"","","","","","html-keyboard-response","360","2.0.0","558247","p58tn73t71r","ono","ladybug","21","female","no","yes","2","2","null","<div style=""font-size:60px;"">+</div>","null","","","","","","",""
"","","","","","audio-keyboard-response","361","2.0.0","558848","p58tn73t71r","ono","ladybug","21","female","no","yes","2","2","null","stimuli/sounds/motor_label_B.wav","null","","","","","","",""
"","","","","","html-keyboard-response","362","2.0.0","559850","p58tn73t71r","ono","ladybug","21","female","no","yes","2","2","null","","null","","","","","","",""
"","","","","","image-keyboard-response","363","2.0.0","560536","p58tn73t71r","ono","ladybug","21","female","no","yes","2","2","683","stimuli/pictures/hiccup_wom_1.jpg","0","0","","true","no","sound","stimuli/sounds/motor_label_B.wav",""
"","","","","","audio-keyboard-response","364","2.0.0","561539","p58tn73t71r","ono","ladybug","21","female","no","yes","2","2","null","stimuli/sounds/bleep.wav","null","","","","","","",""
"","","","","","html-keyboard-response","365","2.0.0","563173","p58tn73t71r","ono","ladybug","21","female","no","yes","2","2","1531","<div style=""font-size:30px;"">Press space to start the trial</div>"," ","","","","","","",""
"","","","","","html-keyboard-response","366","2.0.0","563426","p58tn73t71r","ono","ladybug","21","female","no","yes","2","2","null","<div style=""font-size:60px;"">+</div>","null","","","","","","",""
"","","","","","audio-keyboard-response","367","2.0.0","564091","p58tn73t71r","ono","ladybug","21","female","no","yes","2","2","null","stimuli/sounds/cough_sound_A.wav","null","","","","","","",""
"","","","","","html-keyboard-response","368","2.0.0","565093","p58tn73t71r","ono","ladybug","21","female","no","yes","2","2","null","","null","","","","","","",""
"","","","","","image-keyboard-response","369","2.0.0","566558","p58tn73t71r","ono","ladybug","21","female","no","yes","2","2","1463","stimuli/pictures/dog_rott_1.jpg","0","0","","true","no","sound","stimuli/sounds/cough_sound_A.wav",""
"","","","","","audio-keyboard-response","370","2.0.0","567560","p58tn73t71r","ono","ladybug","21","female","no","yes","2","2","null","stimuli/sounds/bleep.wav","null","","","","","","",""
"","","","","","html-keyboard-response","371","2.0.0","569415","p58tn73t71r","ono","ladybug","21","female","no","yes","2","2","1751","<div style=""font-size:30px;"">Press space to start the trial</div>"," ","","","","","","",""
"","","","","","html-keyboard-response","372","2.0.0","569668","p58tn73t71r","ono","ladybug","21","female","no","yes","2","2","null","<div style=""font-size:60px;"">+</div>","null","","","","","","",""
"","","","","","audio-keyboard-response","373","2.0.0","570299","p58tn73t71r","ono","ladybug","21","female","no","yes","2","2","null","stimuli/sounds/cough_label_A.wav","null","","","","","","",""
"","","","","","html-keyboard-response","374","2.0.0","571300","p58tn73t71r","ono","ladybug","21","female","no","yes","2","2","null","","null","","","","","","",""
"","","","","","image-keyboard-response","375","2.0.0","571730","p58tn73t71r","ono","ladybug","21","female","no","yes","2","2","428","stimuli/pictures/cough_man_2.jpg","1","1","","true","yes","sound","stimuli/sounds/cough_label_A.wav",""
"","","","","","audio-keyboard-response","376","2.0.0","572733","p58tn73t71r","ono","ladybug","21","female","no","yes","2","2","null","stimuli/sounds/bleep.wav","null","","","","","","",""
"","","","","","html-keyboard-response","377","2.0.0","573956","p58tn73t71r","ono","ladybug","21","female","no","yes","2","2","1121","<div style=""font-size:30px;"">Press space to start the trial</div>"," ","","","","","","",""
"","","","","","html-keyboard-response","378","2.0.0","574210","p58tn73t71r","ono","ladybug","21","female","no","yes","2","2","null","<div style=""font-size:60px;"">+</div>","null","","","","","","",""
"","","","","","audio-keyboard-response","379","2.0.0","574816","p58tn73t71r","ono","ladybug","21","female","no","yes","2","2","null","stimuli/sounds/hiccup_label_B.wav","null","","","","","","",""
"","","","","","html-keyboard-response","380","2.0.0","575819","p58tn73t71r","ono","ladybug","21","female","no","yes","2","2","null","","null","","","","","","",""
"","","","","","image-keyboard-response","381","2.0.0","576919","p58tn73t71r","ono","ladybug","21","female","no","yes","2","2","1098","stimuli/pictures/dog_rott_1.jpg","0","0","","true","no","sound","stimuli/sounds/hiccup_label_B.wav",""
"","","","","","audio-keyboard-response","382","2.0.0","577922","p58tn73t71r","ono","ladybug","21","female","no","yes","2","2","null","stimuli/sounds/bleep.wav","null","","","","","","",""
"","","","","","html-keyboard-response","383","2.0.0","578980","p58tn73t71r","ono","ladybug","21","female","no","yes","2","2","955","<div style=""font-size:30px;"">Press space to start the trial</div>"," ","","","","","","",""
"","","","","","html-keyboard-response","384","2.0.0","579231","p58tn73t71r","ono","ladybug","21","female","no","yes","2","2","null","<div style=""font-size:60px;"">+</div>","null","","","","","","",""
"","","","","","audio-keyboard-response","385","2.0.0","579835","p58tn73t71r","ono","ladybug","21","female","no","yes","2","2","null","stimuli/sounds/dog_label_B.wav","null","","","","","","",""
"","","","","","html-keyboard-response","386","2.0.0","580837","p58tn73t71r","ono","ladybug","21","female","no","yes","2","2","null","","null","","","","","","",""
"","","","","","image-keyboard-response","387","2.0.0","581468","p58tn73t71r","ono","ladybug","21","female","no","yes","2","2","629","stimuli/pictures/cough_man_2.jpg","0","0","","true","no","sound","stimuli/sounds/dog_label_B.wav",""
"","","","","","audio-keyboard-response","388","2.0.0","582471","p58tn73t71r","ono","ladybug","21","female","no","yes","2","2","null","stimuli/sounds/bleep.wav","null","","","","","","",""
"","","","","","html-keyboard-response","389","2.0.0","589105","p58tn73t71r","ono","ladybug","21","female","no","yes","2","2","6533","<p>You have completed a block. Press R when you are ready to continue</p>","r","","","","","","",""
"","","","","","html-keyboard-response","390","2.0.0","591720","p58tn73t71r","ono","ladybug","21","female","no","yes","2","2","2613","<div style=""font-size:30px;"">Press space to start the trial</div>"," ","","","","","","",""
"","","","","","html-keyboard-response","391","2.0.0","591972","p58tn73t71r","ono","ladybug","21","female","no","yes","2","2","null","<div style=""font-size:60px;"">+</div>","null","","","","","","",""
"","","","","","audio-keyboard-response","392","2.0.0","592576","p58tn73t71r","ono","ladybug","21","female","no","yes","2","2","null","stimuli/sounds/dog_sound_B.wav","null","","","","","","",""
"","","","","","html-keyboard-response","393","2.0.0","593579","p58tn73t71r","ono","ladybug","21","female","no","yes","2","2","null","","null","","","","","","",""
"","","","","","image-keyboard-response","394","2.0.0","594349","p58tn73t71r","ono","ladybug","21","female","no","yes","2","2","769","stimuli/pictures/dog_rott_2.jpg","1","1","","true","no","sound","stimuli/sounds/dog_sound_B.wav",""
"","","","","","audio-keyboard-response","395","2.0.0","595352","p58tn73t71r","ono","ladybug","21","female","no","yes","2","2","null","stimuli/sounds/bleep.wav","null","","","","","","",""
"","","","","","html-keyboard-response","396","2.0.0","607641","p58tn73t71r","ono","ladybug","21","female","no","yes","2","2","12187","<div style=""font-size:30px;"">Press space to start the trial</div>"," ","","","","","","",""
"","","","","","html-keyboard-response","397","2.0.0","607894","p58tn73t71r","ono","ladybug","21","female","no","yes","2","2","null","<div style=""font-size:60px;"">+</div>","null","","","","","","",""
"","","","","","audio-keyboard-response","398","2.0.0","608496","p58tn73t71r","ono","ladybug","21","female","no","yes","2","2","null","stimuli/sounds/motor_label_A.wav","null","","","","","","",""
"","","","","","html-keyboard-response","399","2.0.0","609499","p58tn73t71r","ono","ladybug","21","female","no","yes","2","2","null","","null","","","","","","",""
"","","","","","image-keyboard-response","400","2.0.0","610191","p58tn73t71r","ono","ladybug","21","female","no","yes","2","2","689","stimuli/pictures/dog_rott_1.jpg","0","0","","true","no","sound","stimuli/sounds/motor_label_A.wav",""
"","","","","","audio-keyboard-response","401","2.0.0","611193","p58tn73t71r","ono","ladybug","21","female","no","yes","2","2","null","stimuli/sounds/bleep.wav","null","","","","","","",""
"","","","","","html-keyboard-response","402","2.0.0","611896","p58tn73t71r","ono","ladybug","21","female","no","yes","2","2","601","<div style=""font-size:30px;"">Press space to start the trial</div>"," ","","","","","","",""
"","","","","","html-keyboard-response","403","2.0.0","612149","p58tn73t71r","ono","ladybug","21","female","no","yes","2","2","null","<div style=""font-size:60px;"">+</div>","null","","","","","","",""
"","","","","","audio-keyboard-response","404","2.0.0","612752","p58tn73t71r","ono","ladybug","21","female","no","yes","2","2","null","stimuli/sounds/motor_label_A.wav","null","","","","","","",""
"","","","","","html-keyboard-response","405","2.0.0","613754","p58tn73t71r","ono","ladybug","21","female","no","yes","2","2","null","","null","","","","","","",""
"","","","","","image-keyboard-response","406","2.0.0","614535","p58tn73t71r","ono","ladybug","21","female","no","yes","2","2","779","stimuli/pictures/motor_dirt_1.jpg","1","1","","true","yes","sound","stimuli/sounds/motor_label_A.wav",""
"","","","","","audio-keyboard-response","407","2.0.0","615538","p58tn73t71r","ono","ladybug","21","female","no","yes","2","2","null","stimuli/sounds/bleep.wav","null","","","","","","",""
"","","","","","html-keyboard-response","408","2.0.0","617409","p58tn73t71r","ono","ladybug","21","female","no","yes","2","2","1768","<div style=""font-size:30px;"">Press space to start the trial</div>"," ","","","","","","",""
"","","","","","html-keyboard-response","409","2.0.0","617661","p58tn73t71r","ono","ladybug","21","female","no","yes","2","2","null","<div style=""font-size:60px;"">+</div>","null","","","","","","",""
"","","","","","audio-keyboard-response","410","2.0.0","618293","p58tn73t71r","ono","ladybug","21","female","no","yes","2","2","null","stimuli/sounds/cough_label_A.wav","null","","","","","","",""
"","","","","","html-keyboard-response","411","2.0.0","619296","p58tn73t71r","ono","ladybug","21","female","no","yes","2","2","null","","null","","","","","","",""
"","","","","","image-keyboard-response","412","2.0.0","620170","p58tn73t71r","ono","ladybug","21","female","no","yes","2","2","872","stimuli/pictures/motor_dirt_1.jpg","0","0","","true","no","sound","stimuli/sounds/cough_label_A.wav",""
"","","","","","audio-keyboard-response","413","2.0.0","621173","p58tn73t71r","ono","ladybug","21","female","no","yes","2","2","null","stimuli/sounds/bleep.wav","null","","","","","","",""
"","","","","","html-keyboard-response","414","2.0.0","622040","p58tn73t71r","ono","ladybug","21","female","no","yes","2","2","765","<div style=""font-size:30px;"">Press space to start the trial</div>"," ","","","","","","",""
"","","","","","html-keyboard-response","415","2.0.0","622293","p58tn73t71r","ono","ladybug","21","female","no","yes","2","2","null","<div style=""font-size:60px;"">+</div>","null","","","","","","",""
"","","","","","audio-keyboard-response","416","2.0.0","622880","p58tn73t71r","ono","ladybug","21","female","no","yes","2","2","null","stimuli/sounds/drop_sound_A.wav","null","","","","","","",""
"","","","","","html-keyboard-response","417","2.0.0","623882","p58tn73t71r","ono","ladybug","21","female","no","yes","2","2","null","","null","","","","","","",""
"","","","","","image-keyboard-response","418","2.0.0","626422","p58tn73t71r","ono","ladybug","21","female","no","yes","2","2","2537","stimuli/pictures/cough_man_1.jpg","1","0","","false","no","sound","stimuli/sounds/drop_sound_A.wav",""
"","","","","","audio-keyboard-response","419","2.0.0","627424","p58tn73t71r","ono","ladybug","21","female","no","yes","2","2","null","stimuli/sounds/buzz.wav","null","","","","","","",""
"","","","","","html-keyboard-response","420","2.0.0","628689","p58tn73t71r","ono","ladybug","21","female","no","yes","2","2","1161","<div style=""font-size:30px;"">Press space to start the trial</div>"," ","","","","","","",""
"","","","","","html-keyboard-response","421","2.0.0","628941","p58tn73t71r","ono","ladybug","21","female","no","yes","2","2","null","<div style=""font-size:60px;"">+</div>","null","","","","","","",""
"","","","","","audio-keyboard-response","422","2.0.0","629541","p58tn73t71r","ono","ladybug","21","female","no","yes","2","2","null","stimuli/sounds/motor_sound_A.wav","null","","","","","","",""
"","","","","","html-keyboard-response","423","2.0.0","630544","p58tn73t71r","ono","ladybug","21","female","no","yes","2","2","null","","null","","","","","","",""
"","","","","","image-keyboard-response","424","2.0.0","631600","p58tn73t71r","ono","ladybug","21","female","no","yes","2","2","1055","stimuli/pictures/motor_harley_2.jpg","1","1","","true","no","sound","stimuli/sounds/motor_sound_A.wav",""
"","","","","","audio-keyboard-response","425","2.0.0","632603","p58tn73t71r","ono","ladybug","21","female","no","yes","2","2","null","stimuli/sounds/bleep.wav","null","","","","","","",""
"","","","","","html-keyboard-response","426","2.0.0","633394","p58tn73t71r","ono","ladybug","21","female","no","yes","2","2","688","<div style=""font-size:30px;"">Press space to start the trial</div>"," ","","","","","","",""
"","","","","","html-keyboard-response","427","2.0.0","633647","p58tn73t71r","ono","ladybug","21","female","no","yes","2","2","null","<div style=""font-size:60px;"">+</div>","null","","","","","","",""
"","","","","","audio-keyboard-response","428","2.0.0","634250","p58tn73t71r","ono","ladybug","21","female","no","yes","2","2","null","stimuli/sounds/dog_sound_B.wav","null","","","","","","",""
"","","","","","html-keyboard-response","429","2.0.0","635253","p58tn73t71r","ono","ladybug","21","female","no","yes","2","2","null","","null","","","","","","",""
"","","","","","image-keyboard-response","430","2.0.0","635838","p58tn73t71r","ono","ladybug","21","female","no","yes","2","2","583","stimuli/pictures/dog_rott_1.jpg","1","1","","true","no","sound","stimuli/sounds/dog_sound_B.wav",""
"","","","","","audio-keyboard-response","431","2.0.0","636841","p58tn73t71r","ono","ladybug","21","female","no","yes","2","2","null","stimuli/sounds/bleep.wav","null","","","","","","",""
"","","","","","html-keyboard-response","432","2.0.0","645774","p58tn73t71r","ono","ladybug","21","female","no","yes","2","2","8830","<div style=""font-size:30px;"">Press space to start the trial</div>"," ","","","","","","",""
"","","","","","html-keyboard-response","433","2.0.0","646027","p58tn73t71r","ono","ladybug","21","female","no","yes","2","2","null","<div style=""font-size:60px;"">+</div>","null","","","","","","",""
"","","","","","audio-keyboard-response","434","2.0.0","646640","p58tn73t71r","ono","ladybug","21","female","no","yes","2","2","null","stimuli/sounds/drop_label_B.wav","null","","","","","","",""
"","","","","","html-keyboard-response","435","2.0.0","647642","p58tn73t71r","ono","ladybug","21","female","no","yes","2","2","null","","null","","","","","","",""
"","","","","","image-keyboard-response","436","2.0.0","648085","p58tn73t71r","ono","ladybug","21","female","no","yes","2","2","442","stimuli/pictures/motor_harley_2.jpg","0","0","","true","no","sound","stimuli/sounds/drop_label_B.wav",""
"","","","","","audio-keyboard-response","437","2.0.0","649089","p58tn73t71r","ono","ladybug","21","female","no","yes","2","2","null","stimuli/sounds/bleep.wav","null","","","","","","",""
"","","","","","html-keyboard-response","438","2.0.0","649611","p58tn73t71r","ono","ladybug","21","female","no","yes","2","2","420","<div style=""font-size:30px;"">Press space to start the trial</div>"," ","","","","","","",""
"","","","","","html-keyboard-response","439","2.0.0","649864","p58tn73t71r","ono","ladybug","21","female","no","yes","2","2","null","<div style=""font-size:60px;"">+</div>","null","","","","","","",""
"","","","","","audio-keyboard-response","440","2.0.0","650463","p58tn73t71r","ono","ladybug","21","female","no","yes","2","2","null","stimuli/sounds/hiccup_sound_B.wav","null","","","","","","",""
"","","","","","html-keyboard-response","441","2.0.0","651465","p58tn73t71r","ono","ladybug","21","female","no","yes","2","2","null","","null","","","","","","",""
"","","","","","image-keyboard-response","442","2.0.0","652649","p58tn73t71r","ono","ladybug","21","female","no","yes","2","2","1182","stimuli/pictures/hiccup_wom_1.jpg","1","1","","true","no","sound","stimuli/sounds/hiccup_sound_B.wav",""
"","","","","","audio-keyboard-response","443","2.0.0","653651","p58tn73t71r","ono","ladybug","21","female","no","yes","2","2","null","stimuli/sounds/bleep.wav","null","","","","","","",""
"","","","","","html-keyboard-response","444","2.0.0","654285","p58tn73t71r","ono","ladybug","21","female","no","yes","2","2","532","<div style=""font-size:30px;"">Press space to start the trial</div>"," ","","","","","","",""
"","","","","","html-keyboard-response","445","2.0.0","654537","p58tn73t71r","ono","ladybug","21","female","no","yes","2","2","null","<div style=""font-size:60px;"">+</div>","null","","","","","","",""
"","","","","","audio-keyboard-response","446","2.0.0","655136","p58tn73t71r","ono","ladybug","21","female","no","yes","2","2","null","stimuli/sounds/motor_sound_A.wav","null","","","","","","",""
"","","","","","html-keyboard-response","447","2.0.0","656138","p58tn73t71r","ono","ladybug","21","female","no","yes","2","2","null","","null","","","","","","",""
"","","","","","image-keyboard-response","448","2.0.0","656604","p58tn73t71r","ono","ladybug","21","female","no","yes","2","2","464","stimuli/pictures/drop_single_1.jpg","1","0","","false","no","sound","stimuli/sounds/motor_sound_A.wav",""
"","","","","","audio-keyboard-response","449","2.0.0","657607","p58tn73t71r","ono","ladybug","21","female","no","yes","2","2","null","stimuli/sounds/buzz.wav","null","","","","","","",""
"","","","","","html-keyboard-response","450","2.0.0","658462","p58tn73t71r","ono","ladybug","21","female","no","yes","2","2","753","<div style=""font-size:30px;"">Press space to start the trial</div>"," ","","","","","","",""
"","","","","","html-keyboard-response","451","2.0.0","658714","p58tn73t71r","ono","ladybug","21","female","no","yes","2","2","null","<div style=""font-size:60px;"">+</div>","null","","","","","","",""
"","","","","","audio-keyboard-response","452","2.0.0","659301","p58tn73t71r","ono","ladybug","21","female","no","yes","2","2","null","stimuli/sounds/drop_sound_A.wav","null","","","","","","",""
"","","","","","html-keyboard-response","453","2.0.0","660303","p58tn73t71r","ono","ladybug","21","female","no","yes","2","2","null","","null","","","","","","",""
"","","","","","image-keyboard-response","454","2.0.0","661020","p58tn73t71r","ono","ladybug","21","female","no","yes","2","2","715","stimuli/pictures/cough_wom_2.jpg","0","0","","true","no","sound","stimuli/sounds/drop_sound_A.wav",""
"","","","","","audio-keyboard-response","455","2.0.0","662024","p58tn73t71r","ono","ladybug","21","female","no","yes","2","2","null","stimuli/sounds/bleep.wav","null","","","","","","",""
"","","","","","html-keyboard-response","456","2.0.0","662673","p58tn73t71r","ono","ladybug","21","female","no","yes","2","2","547","<div style=""font-size:30px;"">Press space to start the trial</div>"," ","","","","","","",""
"","","","","","html-keyboard-response","457","2.0.0","662925","p58tn73t71r","ono","ladybug","21","female","no","yes","2","2","null","<div style=""font-size:60px;"">+</div>","null","","","","","","",""
"","","","","","audio-keyboard-response","458","2.0.0","663525","p58tn73t71r","ono","ladybug","21","female","no","yes","2","2","null","stimuli/sounds/motor_label_A.wav","null","","","","","","",""
"","","","","","html-keyboard-response","459","2.0.0","664527","p58tn73t71r","ono","ladybug","21","female","no","yes","2","2","null","","null","","","","","","",""
"","","","","","image-keyboard-response","460","2.0.0","665419","p58tn73t71r","ono","ladybug","21","female","no","yes","2","2","890","stimuli/pictures/dog_york_2.jpg","0","0","","true","no","sound","stimuli/sounds/motor_label_A.wav",""
"","","","","","audio-keyboard-response","461","2.0.0","666423","p58tn73t71r","ono","ladybug","21","female","no","yes","2","2","null","stimuli/sounds/bleep.wav","null","","","","","","",""
"","","","","","html-keyboard-response","462","2.0.0","667405","p58tn73t71r","ono","ladybug","21","female","no","yes","2","2","880","<div style=""font-size:30px;"">Press space to start the trial</div>"," ","","","","","","",""
"","","","","","html-keyboard-response","463","2.0.0","667658","p58tn73t71r","ono","ladybug","21","female","no","yes","2","2","null","<div style=""font-size:60px;"">+</div>","null","","","","","","",""
"","","","","","audio-keyboard-response","464","2.0.0","668261","p58tn73t71r","ono","ladybug","21","female","no","yes","2","2","null","stimuli/sounds/motor_sound_B.wav","null","","","","","","",""
"","","","","","html-keyboard-response","465","2.0.0","669263","p58tn73t71r","ono","ladybug","21","female","no","yes","2","2","null","","null","","","","","","",""
"","","","","","image-keyboard-response","466","2.0.0","671642","p58tn73t71r","ono","ladybug","21","female","no","yes","2","2","2377","stimuli/pictures/cough_wom_1.jpg","0","0","","true","no","sound","stimuli/sounds/motor_sound_B.wav",""
"","","","","","audio-keyboard-response","467","2.0.0","672646","p58tn73t71r","ono","ladybug","21","female","no","yes","2","2","null","stimuli/sounds/bleep.wav","null","","","","","","",""
"","","","","","html-keyboard-response","468","2.0.0","675408","p58tn73t71r","ono","ladybug","21","female","no","yes","2","2","2660","<div style=""font-size:30px;"">Press space to start the trial</div>"," ","","","","","","",""
"","","","","","html-keyboard-response","469","2.0.0","675660","p58tn73t71r","ono","ladybug","21","female","no","yes","2","2","null","<div style=""font-size:60px;"">+</div>","null","","","","","","",""
"","","","","","audio-keyboard-response","470","2.0.0","676261","p58tn73t71r","ono","ladybug","21","female","no","yes","2","2","null","stimuli/sounds/hiccup_sound_B.wav","null","","","","","","",""
"","","","","","html-keyboard-response","471","2.0.0","677264","p58tn73t71r","ono","ladybug","21","female","no","yes","2","2","null","","null","","","","","","",""
"","","","","","image-keyboard-response","472","2.0.0","678017","p58tn73t71r","ono","ladybug","21","female","no","yes","2","2","751","stimuli/pictures/hiccup_man_1.jpg","1","1","","true","yes","sound","stimuli/sounds/hiccup_sound_B.wav",""
"","","","","","audio-keyboard-response","473","2.0.0","679020","p58tn73t71r","ono","ladybug","21","female","no","yes","2","2","null","stimuli/sounds/bleep.wav","null","","","","","","",""
"","","","","","html-keyboard-response","474","2.0.0","679789","p58tn73t71r","ono","ladybug","21","female","no","yes","2","2","667","<div style=""font-size:30px;"">Press space to start the trial</div>"," ","","","","","","",""
"","","","","","html-keyboard-response","475","2.0.0","680042","p58tn73t71r","ono","ladybug","21","female","no","yes","2","2","null","<div style=""font-size:60px;"">+</div>","null","","","","","","",""
"","","","","","audio-keyboard-response","476","2.0.0","680650","p58tn73t71r","ono","ladybug","21","female","no","yes","2","2","null","stimuli/sounds/drop_sound_B.wav","null","","","","","","",""
"","","","","","html-keyboard-response","477","2.0.0","681652","p58tn73t71r","ono","ladybug","21","female","no","yes","2","2","null","","null","","","","","","",""
"","","","","","image-keyboard-response","478","2.0.0","682234","p58tn73t71r","ono","ladybug","21","female","no","yes","2","2","580","stimuli/pictures/drop_multi_2.jpg","1","1","","true","yes","sound","stimuli/sounds/drop_sound_B.wav",""
"","","","","","audio-keyboard-response","479","2.0.0","683237","p58tn73t71r","ono","ladybug","21","female","no","yes","2","2","null","stimuli/sounds/bleep.wav","null","","","","","","",""
"","","","","","html-keyboard-response","480","2.0.0","686182","p58tn73t71r","ono","ladybug","21","female","no","yes","2","2","2842","<div style=""font-size:30px;"">Press space to start the trial</div>"," ","","","","","","",""
"","","","","","html-keyboard-response","481","2.0.0","686435","p58tn73t71r","ono","ladybug","21","female","no","yes","2","2","null","<div style=""font-size:60px;"">+</div>","null","","","","","","",""
"","","","","","audio-keyboard-response","482","2.0.0","686981","p58tn73t71r","ono","ladybug","21","female","no","yes","2","2","null","stimuli/sounds/drop_label_A.wav","null","","","","","","",""
"","","","","","html-keyboard-response","483","2.0.0","687983","p58tn73t71r","ono","ladybug","21","female","no","yes","2","2","null","","null","","","","","","",""
"","","","","","image-keyboard-response","484","2.0.0","688808","p58tn73t71r","ono","ladybug","21","female","no","yes","2","2","823","stimuli/pictures/hiccup_man_1.jpg","0","0","","true","no","sound","stimuli/sounds/drop_label_A.wav",""
"","","","","","audio-keyboard-response","485","2.0.0","689811","p58tn73t71r","ono","ladybug","21","female","no","yes","2","2","null","stimuli/sounds/bleep.wav","null","","","","","","",""
