"success","timeout","failed_images","failed_audio","failed_video","trial_type","trial_index","plugin_version","time_elapsed","random_id","condition","participant","age","gender_id","mus_exp","inst_exp","years_exp","mus_listening","rt","stimulus","response","correct_response","practice","correct","congruent","sound_type","audio","question_order"
"true","false","[]","[]","[]","preload","0","2.0.0","535","p5zqt6lrnns","ono","squirrel","21","female","yes","yes","6","1","","","","","","","","","",""
"","","","","","html-keyboard-response","1","2.0.0","82729","p5zqt6lrnns","ono","squirrel","21","female","yes","yes","6","1","82192","Welcome to the experiment! Press any key to begin."," ","","","","","","",""
"true","","","","","fullscreen","2","null","86057","p5zqt6lrnns","ono","squirrel","21","female","yes","yes","6","1","2313","","","","","","","","",""
"","","","","","survey-text","3","2.0.0","89516","p5zqt6lrnns","ono","squirrel","21","female","yes","yes","6","1","3448","","{""participant_id"":""squirrel""}","","","","","","",""
"","","","","","html-keyboard-response","4","2.0.0","95325","p5zqt6lrnns","ono","squirrel","21","female","yes","yes","6","1","5806","
    <p> Please use headphones for the duration of the study.</p>
    <p> Within each trial, you will hear a sound and then be presented with an image in the center of your screen.</p>
    <p>Press the <b>'1'</b> key if what you hear <u>matches</u> what you see.</p>
    <p>Press the <b>'0'</b> key if what you hear <u>does not match</u> what you see.</p>
    <p>Try to respond as quickly and accurately as you can.</p>
    <p> Press any key to begin.</p>
    "," ","","","","","","",""
"","","","","","html-keyboard-response","5","2.0.0","96602","p5zqt6lrnns","ono","squirrel","21","female","yes","yes","6","1","1275","
    <div style=""font-size:28px;"">
      <p>You will now complete 4 short practice trials.</p>
      <p>This is just to help you get familiar with the task.</p>
      <p>Press any key to begin.</p>
    </div>
  "," ","","","","","","",""
"","","","","","html-keyboard-response","6","2.0.0","97105","p5zqt6lrnns","ono","squirrel","21","female","yes","yes","6","1","null","<div style=""font-size:60px;"">+</div>","null","","","","","","",""
"","","","","","audio-keyboard-response","7","2.0.0","97813","p5zqt6lrnns","ono","squirrel","21","female","yes","yes","6","1","null","stimuli/sounds/guitar_label_A.wav","null","","","","","","",""
"","","","","","image-keyboard-response","8","2.0.0","98875","p5zqt6lrnns","ono","squirrel","21","female","yes","yes","6","1","1059","stimuli/pictures/guitar_acoustic_1.jpg","0","1","true","false","","","",""
"","","","","","audio-keyboard-response","9","2.0.0","99678","p5zqt6lrnns","ono","squirrel","21","female","yes","yes","6","1","null","stimuli/sounds/buzz.wav","null","","","","","","",""
"","","","","","html-keyboard-response","10","2.0.0","100387","p5zqt6lrnns","ono","squirrel","21","female","yes","yes","6","1","null","<p style='color:red; font-size:30px;'>Incorrect</p>","null","","","","","","",""
"","","","","","html-keyboard-response","11","2.0.0","100903","p5zqt6lrnns","ono","squirrel","21","female","yes","yes","6","1","null","<div style=""font-size:60px;"">+</div>","null","","","","","","",""
"","","","","","audio-keyboard-response","12","2.0.0","101495","p5zqt6lrnns","ono","squirrel","21","female","yes","yes","6","1","null","stimuli/sounds/guitar_sound_B.wav","null","","","","","","",""
"","","","","","image-keyboard-response","13","2.0.0","102025","p5zqt6lrnns","ono","squirrel","21","female","yes","yes","6","1","527","stimuli/pictures/guitar_acoustic_2.jpg","1","1","true","true","","","",""
"","","","","","audio-keyboard-response","14","2.0.0","102836","p5zqt6lrnns","ono","squirrel","21","female","yes","yes","6","1","null","stimuli/sounds/bleep.wav","null","","","","","","",""
"","","","","","html-keyboard-response","15","2.0.0","103545","p5zqt6lrnns","ono","squirrel","21","female","yes","yes","6","1","null","<p style='color:green; font-size:30px;'>Correct!</p>","null","","","","","","",""
"","","","","","html-keyboard-response","16","2.0.0","104063","p5zqt6lrnns","ono","squirrel","21","female","yes","yes","6","1","null","<div style=""font-size:60px;"">+</div>","null","","","","","","",""
"","","","","","audio-keyboard-response","17","2.0.0","104675","p5zqt6lrnns","ono","squirrel","21","female","yes","yes","6","1","null","stimuli/sounds/flute_sound_A.wav","null","","","","","","",""
"","","","","","image-keyboard-response","18","2.0.0","105340","p5zqt6lrnns","ono","squirrel","21","female","yes","yes","6","1","663","stimuli/pictures/guitar_electric_1.jpg","0","0","true","true","","","",""
"","","","","","audio-keyboard-response","19","2.0.0","106147","p5zqt6lrnns","ono","squirrel","21","female","yes","yes","6","1","null","stimuli/sounds/bleep.wav","null","","","","","","",""
"","","","","","html-keyboard-response","20","2.0.0","106851","p5zqt6lrnns","ono","squirrel","21","female","yes","yes","6","1","null","<p style='color:green; font-size:30px;'>Correct!</p>","null","","","","","","",""
"","","","","","html-keyboard-response","21","2.0.0","107356","p5zqt6lrnns","ono","squirrel","21","female","yes","yes","6","1","null","<div style=""font-size:60px;"">+</div>","null","","","","","","",""
"","","","","","audio-keyboard-response","22","2.0.0","107951","p5zqt6lrnns","ono","squirrel","21","female","yes","yes","6","1","null","stimuli/sounds/guitar_sound_A.wav","null","","","","","","",""
"","","","","","image-keyboard-response","23","2.0.0","108667","p5zqt6lrnns","ono","squirrel","21","female","yes","yes","6","1","715","stimuli/pictures/guitar_acoustic_1.jpg","0","1","true","false","","","",""
"","","","","","audio-keyboard-response","24","2.0.0","109480","p5zqt6lrnns","ono","squirrel","21","female","yes","yes","6","1","null","stimuli/sounds/buzz.wav","null","","","","","","",""
"","","","","","html-keyboard-response","25","2.0.0","110191","p5zqt6lrnns","ono","squirrel","21","female","yes","yes","6","1","null","<p style='color:red; font-size:30px;'>Incorrect</p>","null","","","","","","",""
"","","","","","html-keyboard-response","26","2.0.0","111613","p5zqt6lrnns","ono","squirrel","21","female","yes","yes","6","1","1421","<p>Practice complete. Press any key to begin the real experiment.</p>"," ","","","","","","",""
"","","","","","html-keyboard-response","27","2.0.0","123388","p5zqt6lrnns","ono","squirrel","21","female","yes","yes","6","1","11774","<div style=""font-size:30px;"">Press space to start the trial</div>"," ","","","","","","",""
"","","","","","html-keyboard-response","28","2.0.0","123644","p5zqt6lrnns","ono","squirrel","21","female","yes","yes","6","1","null","<div style=""font-size:60px;"">+</div>","null","","","","","","",""
"","","","","","audio-keyboard-response","29","2.0.0","124223","p5zqt6lrnns","ono","squirrel","21","female","yes","yes","6","1","null","stimuli/sounds/drop_sound_A.wav","null","","","","","","",""
"","","","","","html-keyboard-response","30","2.0.0","125238","p5zqt6lrnns","ono","squirrel","21","female","yes","yes","6","1","null","","null","","","","","","",""
"","","","","","image-keyboard-response","31","2.0.0","126046","p5zqt6lrnns","ono","squirrel","21","female","yes","yes","6","1","807","stimuli/pictures/cough_man_1.jpg","0","0","","true","no","sound","stimuli/sounds/drop_sound_A.wav",""
"","","","","","audio-keyboard-response","32","2.0.0","127053","p5zqt6lrnns","ono","squirrel","21","female","yes","yes","6","1","null","stimuli/sounds/bleep.wav","null","","","","","","",""
"","","","","","html-keyboard-response","33","2.0.0","129896","p5zqt6lrnns","ono","squirrel","21","female","yes","yes","6","1","2733","<div style=""font-size:30px;"">Press space to start the trial</div>"," ","","","","","","",""
"","","","","","html-keyboard-response","34","2.0.0","130163","p5zqt6lrnns","ono","squirrel","21","female","yes","yes","6","1","null","<div style=""font-size:60px;"">+</div>","null","","","","","","",""
"","","","","","audio-keyboard-response","35","2.0.0","130835","p5zqt6lrnns","ono","squirrel","21","female","yes","yes","6","1","null","stimuli/sounds/cough_sound_A.wav","null","","","","","","",""
"","","","","","html-keyboard-response","36","2.0.0","131855","p5zqt6lrnns","ono","squirrel","21","female","yes","yes","6","1","null","","null","","","","","","",""
"","","","","","image-keyboard-response","37","2.0.0","132435","p5zqt6lrnns","ono","squirrel","21","female","yes","yes","6","1","578","stimuli/pictures/cough_man_1.jpg","1","1","","true","no","sound","stimuli/sounds/cough_sound_A.wav",""
"","","","","","audio-keyboard-response","38","2.0.0","133451","p5zqt6lrnns","ono","squirrel","21","female","yes","yes","6","1","null","stimuli/sounds/bleep.wav","null","","","","","","",""
"","","","","","html-keyboard-response","39","2.0.0","134730","p5zqt6lrnns","ono","squirrel","21","female","yes","yes","6","1","1163","<div style=""font-size:30px;"">Press space to start the trial</div>"," ","","","","","","",""
"","","","","","html-keyboard-response","40","2.0.0","134988","p5zqt6lrnns","ono","squirrel","21","female","yes","yes","6","1","null","<div style=""font-size:60px;"">+</div>","null","","","","","","",""
"","","","","","audio-keyboard-response","41","2.0.0","135597","p5zqt6lrnns","ono","squirrel","21","female","yes","yes","6","1","null","stimuli/sounds/motor_label_A.wav","null","","","","","","",""
"","","","","","html-keyboard-response","42","2.0.0","136604","p5zqt6lrnns","ono","squirrel","21","female","yes","yes","6","1","null","","null","","","","","","",""
"","","","","","image-keyboard-response","43","2.0.0","137155","p5zqt6lrnns","ono","squirrel","21","female","yes","yes","6","1","548","stimuli/pictures/dog_rott_1.jpg","0","0","","true","no","sound","stimuli/sounds/motor_label_A.wav",""
"","","","","","audio-keyboard-response","44","2.0.0","138163","p5zqt6lrnns","ono","squirrel","21","female","yes","yes","6","1","null","stimuli/sounds/bleep.wav","null","","","","","","",""
"","","","","","html-keyboard-response","45","2.0.0","138668","p5zqt6lrnns","ono","squirrel","21","female","yes","yes","6","1","393","<div style=""font-size:30px;"">Press space to start the trial</div>"," ","","","","","","",""
"","","","","","html-keyboard-response","46","2.0.0","138929","p5zqt6lrnns","ono","squirrel","21","female","yes","yes","6","1","null","<div style=""font-size:60px;"">+</div>","null","","","","","","",""
"","","","","","audio-keyboard-response","47","2.0.0","139523","p5zqt6lrnns","ono","squirrel","21","female","yes","yes","6","1","null","stimuli/sounds/motor_sound_A.wav","null","","","","","","",""
"","","","","","html-keyboard-response","48","2.0.0","140539","p5zqt6lrnns","ono","squirrel","21","female","yes","yes","6","1","null","","null","","","","","","",""
"","","","","","image-keyboard-response","49","2.0.0","141223","p5zqt6lrnns","ono","squirrel","21","female","yes","yes","6","1","682","stimuli/pictures/drop_multi_2.jpg","0","0","","true","no","sound","stimuli/sounds/motor_sound_A.wav",""
"","","","","","audio-keyboard-response","50","2.0.0","142225","p5zqt6lrnns","ono","squirrel","21","female","yes","yes","6","1","null","stimuli/sounds/bleep.wav","null","","","","","","",""
"","","","","","html-keyboard-response","51","2.0.0","143562","p5zqt6lrnns","ono","squirrel","21","female","yes","yes","6","1","1224","<div style=""font-size:30px;"">Press space to start the trial</div>"," ","","","","","","",""
"","","","","","html-keyboard-response","52","2.0.0","143824","p5zqt6lrnns","ono","squirrel","21","female","yes","yes","6","1","null","<div style=""font-size:60px;"">+</div>","null","","","","","","",""
"","","","","","audio-keyboard-response","53","2.0.0","144431","p5zqt6lrnns","ono","squirrel","21","female","yes","yes","6","1","null","stimuli/sounds/dog_sound_B.wav","null","","","","","","",""
"","","","","","html-keyboard-response","54","2.0.0","145443","p5zqt6lrnns","ono","squirrel","21","female","yes","yes","6","1","null","","null","","","","","","",""
"","","","","","image-keyboard-response","55","2.0.0","145963","p5zqt6lrnns","ono","squirrel","21","female","yes","yes","6","1","517","stimuli/pictures/dog_rott_2.jpg","1","1","","true","no","sound","stimuli/sounds/dog_sound_B.wav",""
"","","","","","audio-keyboard-response","56","2.0.0","146971","p5zqt6lrnns","ono","squirrel","21","female","yes","yes","6","1","null","stimuli/sounds/bleep.wav","null","","","","","","",""
"","","","","","html-keyboard-response","57","2.0.0","147656","p5zqt6lrnns","ono","squirrel","21","female","yes","yes","6","1","573","<div style=""font-size:30px;"">Press space to start the trial</div>"," ","","","","","","",""
"","","","","","html-keyboard-response","58","2.0.0","147917","p5zqt6lrnns","ono","squirrel","21","female","yes","yes","6","1","null","<div style=""font-size:60px;"">+</div>","null","","","","","","",""
"","","","","","audio-keyboard-response","59","2.0.0","148523","p5zqt6lrnns","ono","squirrel","21","female","yes","yes","6","1","null","stimuli/sounds/drop_label_B.wav","null","","","","","","",""
"","","","","","html-keyboard-response","60","2.0.0","149531","p5zqt6lrnns","ono","squirrel","21","female","yes","yes","6","1","null","","null","","","","","","",""
"","","","","","image-keyboard-response","61","2.0.0","150012","p5zqt6lrnns","ono","squirrel","21","female","yes","yes","6","1","479","stimuli/pictures/drop_multi_2.jpg","1","1","","true","yes","sound","stimuli/sounds/drop_label_B.wav",""
"","","","","","audio-keyboard-response","62","2.0.0","151023","p5zqt6lrnns","ono","squirrel","21","female","yes","yes","6","1","null","stimuli/sounds/bleep.wav","null","","","","","","",""
"","","","","","html-keyboard-response","63","2.0.0","151544","p5zqt6lrnns","ono","squirrel","21","female","yes","yes","6","1","409","<div style=""font-size:30px;"">Press space to start the trial</div>"," ","","","","","","",""
"","","","","","html-keyboard-response","64","2.0.0","151799","p5zqt6lrnns","ono","squirrel","21","female","yes","yes","6","1","null","<div style=""font-size:60px;"">+</div>","null","","","","","","",""
"","","","","","audio-keyboard-response","65","2.0.0","152397","p5zqt6lrnns","ono","squirrel","21","female","yes","yes","6","1","null","stimuli/sounds/drop_sound_A.wav","null","","","","","","",""
"","","","","","html-keyboard-response","66","2.0.0","153403","p5zqt6lrnns","ono","squirrel","21","female","yes","yes","6","1","null","","null","","","","","","",""
"","","","","","image-keyboard-response","67","2.0.0","153830","p5zqt6lrnns","ono","squirrel","21","female","yes","yes","6","1","425","stimuli/pictures/drop_multi_1.jpg","1","1","","true","no","sound","stimuli/sounds/drop_sound_A.wav",""
"","","","","","audio-keyboard-response","68","2.0.0","154833","p5zqt6lrnns","ono","squirrel","21","female","yes","yes","6","1","null","stimuli/sounds/bleep.wav","null","","","","","","",""
"","","","","","html-keyboard-response","69","2.0.0","155271","p5zqt6lrnns","ono","squirrel","21","female","yes","yes","6","1","327","<div style=""font-size:30px;"">Press space to start the trial</div>"," ","","","","","","",""
"","","","","","html-keyboard-response","70","2.0.0","155531","p5zqt6lrnns","ono","squirrel","21","female","yes","yes","6","1","null","<div style=""font-size:60px;"">+</div>","null","","","","","","",""
"","","","","","audio-keyboard-response","71","2.0.0","156131","p5zqt6lrnns","ono","squirrel","21","female","yes","yes","6","1","null","stimuli/sounds/motor_label_A.wav","null","","","","","","",""
"","","","","","html-keyboard-response","72","2.0.0","157132","p5zqt6lrnns","ono","squirrel","21","female","yes","yes","6","1","null","","null","","","","","","",""
"","","","","","image-keyboard-response","73","2.0.0","157576","p5zqt6lrnns","ono","squirrel","21","female","yes","yes","6","1","442","stimuli/pictures/dog_york_1.jpg","0","0","","true","no","sound","stimuli/sounds/motor_label_A.wav",""
"","","","","","audio-keyboard-response","74","2.0.0","158582","p5zqt6lrnns","ono","squirrel","21","female","yes","yes","6","1","null","stimuli/sounds/bleep.wav","null","","","","","","",""
"","","","","","html-keyboard-response","75","2.0.0","159393","p5zqt6lrnns","ono","squirrel","21","female","yes","yes","6","1","700","<div style=""font-size:30px;"">Press space to start the trial</div>"," ","","","","","","",""
"","","","","","html-keyboard-response","76","2.0.0","159647","p5zqt6lrnns","ono","squirrel","21","female","yes","yes","6","1","null","<div style=""font-size:60px;"">+</div>","null","","","","","","",""
"","","","","","audio-keyboard-response","77","2.0.0","160247","p5zqt6lrnns","ono","squirrel","21","female","yes","yes","6","1","null","stimuli/sounds/motor_sound_A.wav","null","","","","","","",""
"","","","","","html-keyboard-response","78","2.0.0","161254","p5zqt6lrnns","ono","squirrel","21","female","yes","yes","6","1","null","","null","","","","","","",""
"","","","","","image-keyboard-response","79","2.0.0","161687","p5zqt6lrnns","ono","squirrel","21","female","yes","yes","6","1","432","stimuli/pictures/drop_multi_1.jpg","0","0","","true","no","sound","stimuli/sounds/motor_sound_A.wav",""
"","","","","","audio-keyboard-response","80","2.0.0","162698","p5zqt6lrnns","ono","squirrel","21","female","yes","yes","6","1","null","stimuli/sounds/bleep.wav","null","","","","","","",""
"","","","","","html-keyboard-response","81","2.0.0","163196","p5zqt6lrnns","ono","squirrel","21","female","yes","yes","6","1","387","<div style=""font-size:30px;"">Press space to start the trial</div>"," ","","","","","","",""
"","","","","","html-keyboard-response","82","2.0.0","163458","p5zqt6lrnns","ono","squirrel","21","female","yes","yes","6","1","null","<div style=""font-size:60px;"">+</div>","null","","","","","","",""
"","","","","","audio-keyboard-response","83","2.0.0","164063","p5zqt6lrnns","ono","squirrel","21","female","yes","yes","6","1","null","stimuli/sounds/hiccup_sound_A.wav","null","","","","","","",""
"","","","","","html-keyboard-response","84","2.0.0","165067","p5zqt6lrnns","ono","squirrel","21","female","yes","yes","6","1","null","","null","","","","","","",""
"","","","","","image-keyboard-response","85","2.0.0","165499","p5zqt6lrnns","ono","squirrel","21","female","yes","yes","6","1","430","stimuli/pictures/motor_dirt_2.jpg","0","0","","true","no","sound","stimuli/sounds/hiccup_sound_A.wav",""
"","","","","","audio-keyboard-response","86","2.0.0","166511","p5zqt6lrnns","ono","squirrel","21","female","yes","yes","6","1","null","stimuli/sounds/bleep.wav","null","","","","","","",""
"","","","","","html-keyboard-response","87","2.0.0","167196","p5zqt6lrnns","ono","squirrel","21","female","yes","yes","6","1","581","<div style=""font-size:30px;"">Press space to start the trial</div>"," ","","","","","","",""
"","","","","","html-keyboard-response","88","2.0.0","167459","p5zqt6lrnns","ono","squirrel","21","female","yes","yes","6","1","null","<div style=""font-size:60px;"">+</div>","null","","","","","","",""
"","","","","","audio-keyboard-response","89","2.0.0","168131","p5zqt6lrnns","ono","squirrel","21","female","yes","yes","6","1","null","stimuli/sounds/cough_sound_A.wav","null","","","","","","",""
"","","","","","html-keyboard-response","90","2.0.0","169135","p5zqt6lrnns","ono","squirrel","21","female","yes","yes","6","1","null","","null","","","","","","",""
"","","","","","image-keyboard-response","91","2.0.0","169641","p5zqt6lrnns","ono","squirrel","21","female","yes","yes","6","1","504","stimuli/pictures/dog_rott_1.jpg","0","0","","true","no","sound","stimuli/sounds/cough_sound_A.wav",""
"","","","","","audio-keyboard-response","92","2.0.0","170658","p5zqt6lrnns","ono","squirrel","21","female","yes","yes","6","1","null","stimuli/sounds/bleep.wav","null","","","","","","",""
"","","","","","html-keyboard-response","93","2.0.0","174326","p5zqt6lrnns","ono","squirrel","21","female","yes","yes","6","1","3563","<div style=""font-size:30px;"">Press space to start the trial</div>"," ","","","","","","",""
"","","","","","html-keyboard-response","94","2.0.0","174583","p5zqt6lrnns","ono","squirrel","21","female","yes","yes","6","1","null","<div style=""font-size:60px;"">+</div>","null","","","","","","",""
"","","","","","audio-keyboard-response","95","2.0.0","175187","p5zqt6lrnns","ono","squirrel","21","female","yes","yes","6","1","null","stimuli/sounds/drop_sound_B.wav","null","","","","","","",""
"","","","","","html-keyboard-response","96","2.0.0","176200","p5zqt6lrnns","ono","squirrel","21","female","yes","yes","6","1","null","","null","","","","","","",""
"","","","","","image-keyboard-response","97","2.0.0","176646","p5zqt6lrnns","ono","squirrel","21","female","yes","yes","6","1","445","stimuli/pictures/dog_rott_1.jpg","0","0","","true","no","sound","stimuli/sounds/drop_sound_B.wav",""
"","","","","","audio-keyboard-response","98","2.0.0","177661","p5zqt6lrnns","ono","squirrel","21","female","yes","yes","6","1","null","stimuli/sounds/bleep.wav","null","","","","","","",""
"","","","","","html-keyboard-response","99","2.0.0","178099","p5zqt6lrnns","ono","squirrel","21","female","yes","yes","6","1","327","<div style=""font-size:30px;"">Press space to start the trial</div>"," ","","","","","","",""
"","","","","","html-keyboard-response","100","2.0.0","178363","p5zqt6lrnns","ono","squirrel","21","female","yes","yes","6","1","null","<div style=""font-size:60px;"">+</div>","null","","","","","","",""
"","","","","","audio-keyboard-response","101","2.0.0","178967","p5zqt6lrnns","ono","squirrel","21","female","yes","yes","6","1","null","stimuli/sounds/hiccup_sound_A.wav","null","","","","","","",""
"","","","","","html-keyboard-response","102","2.0.0","179979","p5zqt6lrnns","ono","squirrel","21","female","yes","yes","6","1","null","","null","","","","","","",""
"","","","","","image-keyboard-response","103","2.0.0","181469","p5zqt6lrnns","ono","squirrel","21","female","yes","yes","6","1","1487","stimuli/pictures/hiccup_wom_1.jpg","1","1","","true","yes","sound","stimuli/sounds/hiccup_sound_A.wav",""
"","","","","","audio-keyboard-response","104","2.0.0","182483","p5zqt6lrnns","ono","squirrel","21","female","yes","yes","6","1","null","stimuli/sounds/bleep.wav","null","","","","","","",""
"","","","","","html-keyboard-response","105","2.0.0","183163","p5zqt6lrnns","ono","squirrel","21","female","yes","yes","6","1","576","<div style=""font-size:30px;"">Press space to start the trial</div>"," ","","","","","","",""
"","","","","","html-keyboard-response","106","2.0.0","183427","p5zqt6lrnns","ono","squirrel","21","female","yes","yes","6","1","null","<div style=""font-size:60px;"">+</div>","null","","","","","","",""
"","","","","","audio-keyboard-response","107","2.0.0","184031","p5zqt6lrnns","ono","squirrel","21","female","yes","yes","6","1","null","stimuli/sounds/cough_label_B.wav","null","","","","","","",""
"","","","","","html-keyboard-response","108","2.0.0","185039","p5zqt6lrnns","ono","squirrel","21","female","yes","yes","6","1","null","","null","","","","","","",""
"","","","","","image-keyboard-response","109","2.0.0","185476","p5zqt6lrnns","ono","squirrel","21","female","yes","yes","6","1","435","stimuli/pictures/cough_wom_1.jpg","1","1","","true","yes","sound","stimuli/sounds/cough_label_B.wav",""
"","","","","","audio-keyboard-response","110","2.0.0","186491","p5zqt6lrnns","ono","squirrel","21","female","yes","yes","6","1","null","stimuli/sounds/bleep.wav","null","","","","","","",""
"","","","","","html-keyboard-response","111","2.0.0","187068","p5zqt6lrnns","ono","squirrel","21","female","yes","yes","6","1","474","<div style=""font-size:30px;"">Press space to start the trial</div>"," ","","","","","","",""
"","","","","","html-keyboard-response","112","2.0.0","187322","p5zqt6lrnns","ono","squirrel","21","female","yes","yes","6","1","null","<div style=""font-size:60px;"">+</div>","null","","","","","","",""
"","","","","","audio-keyboard-response","113","2.0.0","187919","p5zqt6lrnns","ono","squirrel","21","female","yes","yes","6","1","null","stimuli/sounds/motor_sound_B.wav","null","","","","","","",""
"","","","","","html-keyboard-response","114","2.0.0","188931","p5zqt6lrnns","ono","squirrel","21","female","yes","yes","6","1","null","","null","","","","","","",""
"","","","","","image-keyboard-response","115","2.0.0","189476","p5zqt6lrnns","ono","squirrel","21","female","yes","yes","6","1","543","stimuli/pictures/motor_dirt_1.jpg","1","1","","true","no","sound","stimuli/sounds/motor_sound_B.wav",""
"","","","","","audio-keyboard-response","116","2.0.0","190481","p5zqt6lrnns","ono","squirrel","21","female","yes","yes","6","1","null","stimuli/sounds/bleep.wav","null","","","","","","",""
"","","","","","html-keyboard-response","117","2.0.0","190947","p5zqt6lrnns","ono","squirrel","21","female","yes","yes","6","1","364","<div style=""font-size:30px;"">Press space to start the trial</div>"," ","","","","","","",""
"","","","","","html-keyboard-response","118","2.0.0","191206","p5zqt6lrnns","ono","squirrel","21","female","yes","yes","6","1","null","<div style=""font-size:60px;"">+</div>","null","","","","","","",""
"","","","","","audio-keyboard-response","119","2.0.0","191819","p5zqt6lrnns","ono","squirrel","21","female","yes","yes","6","1","null","stimuli/sounds/hiccup_sound_B.wav","null","","","","","","",""
"","","","","","html-keyboard-response","120","2.0.0","192832","p5zqt6lrnns","ono","squirrel","21","female","yes","yes","6","1","null","","null","","","","","","",""
"","","","","","image-keyboard-response","121","2.0.0","193422","p5zqt6lrnns","ono","squirrel","21","female","yes","yes","6","1","588","stimuli/pictures/hiccup_man_1.jpg","1","1","","true","yes","sound","stimuli/sounds/hiccup_sound_B.wav",""
"","","","","","audio-keyboard-response","122","2.0.0","194435","p5zqt6lrnns","ono","squirrel","21","female","yes","yes","6","1","null","stimuli/sounds/bleep.wav","null","","","","","","",""
"","","","","","html-keyboard-response","123","2.0.0","194963","p5zqt6lrnns","ono","squirrel","21","female","yes","yes","6","1","424","<div style=""font-size:30px;"">Press space to start the trial</div>"," ","","","","","","",""
"","","","","","html-keyboard-response","124","2.0.0","195222","p5zqt6lrnns","ono","squirrel","21","female","yes","yes","6","1","null","<div style=""font-size:60px;"">+</div>","null","","","","","","",""
"","","","","","audio-keyboard-response","125","2.0.0","195815","p5zqt6lrnns","ono","squirrel","21","female","yes","yes","6","1","null","stimuli/sounds/dog_label_A.wav","null","","","","","","",""
"","","","","","html-keyboard-response","126","2.0.0","196823","p5zqt6lrnns","ono","squirrel","21","female","yes","yes","6","1","null","","null","","","","","","",""
"","","","","","image-keyboard-response","127","2.0.0","197217","p5zqt6lrnns","ono","squirrel","21","female","yes","yes","6","1","392","stimuli/pictures/dog_york_2.jpg","1","1","","true","yes","sound","stimuli/sounds/dog_label_A.wav",""
"","","","","","audio-keyboard-response","128","2.0.0","198225","p5zqt6lrnns","ono","squirrel","21","female","yes","yes","6","1","null","stimuli/sounds/bleep.wav","null","","","","","","",""
"","","","","","html-keyboard-response","129","2.0.0","198682","p5zqt6lrnns","ono","squirrel","21","female","yes","yes","6","1","346","<div style=""font-size:30px;"">Press space to start the trial</div>"," ","","","","","","",""
"","","","","","html-keyboard-response","130","2.0.0","198943","p5zqt6lrnns","ono","squirrel","21","female","yes","yes","6","1","null","<div style=""font-size:60px;"">+</div>","null","","","","","","",""
"","","","","","audio-keyboard-response","131","2.0.0","199547","p5zqt6lrnns","ono","squirrel","21","female","yes","yes","6","1","null","stimuli/sounds/dog_sound_A.wav","null","","","","","","",""
"","","","","","html-keyboard-response","132","2.0.0","200559","p5zqt6lrnns","ono","squirrel","21","female","yes","yes","6","1","null","","null","","","","","","",""
"","","","","","image-keyboard-response","133","2.0.0","200919","p5zqt6lrnns","ono","squirrel","21","female","yes","yes","6","1","358","stimuli/pictures/dog_york_2.jpg","1","1","","true","no","sound","stimuli/sounds/dog_sound_A.wav",""
"","","","","","audio-keyboard-response","134","2.0.0","201923","p5zqt6lrnns","ono","squirrel","21","female","yes","yes","6","1","null","stimuli/sounds/bleep.wav","null","","","","","","",""
"","","","","","html-keyboard-response","135","2.0.0","202293","p5zqt6lrnns","ono","squirrel","21","female","yes","yes","6","1","266","<div style=""font-size:30px;"">Press space to start the trial</div>"," ","","","","","","",""
"","","","","","html-keyboard-response","136","2.0.0","202555","p5zqt6lrnns","ono","squirrel","21","female","yes","yes","6","1","null","<div style=""font-size:60px;"">+</div>","null","","","","","","",""
"","","","","","audio-keyboard-response","137","2.0.0","203231","p5zqt6lrnns","ono","squirrel","21","female","yes","yes","6","1","null","stimuli/sounds/cough_sound_B.wav","null","","","","","","",""
"","","","","","html-keyboard-response","138","2.0.0","204235","p5zqt6lrnns","ono","squirrel","21","female","yes","yes","6","1","null","","null","","","","","","",""
"","","","","","image-keyboard-response","139","2.0.0","204682","p5zqt6lrnns","ono","squirrel","21","female","yes","yes","6","1","445","stimuli/pictures/cough_wom_1.jpg","1","1","","true","no","sound","stimuli/sounds/cough_sound_B.wav",""
"","","","","","audio-keyboard-response","140","2.0.0","205692","p5zqt6lrnns","ono","squirrel","21","female","yes","yes","6","1","null","stimuli/sounds/bleep.wav","null","","","","","","",""
"","","","","","html-keyboard-response","141","2.0.0","206167","p5zqt6lrnns","ono","squirrel","21","female","yes","yes","6","1","364","<div style=""font-size:30px;"">Press space to start the trial</div>"," ","","","","","","",""
"","","","","","html-keyboard-response","142","2.0.0","206418","p5zqt6lrnns","ono","squirrel","21","female","yes","yes","6","1","null","<div style=""font-size:60px;"">+</div>","null","","","","","","",""
"","","","","","audio-keyboard-response","143","2.0.0","206951","p5zqt6lrnns","ono","squirrel","21","female","yes","yes","6","1","null","stimuli/sounds/hiccup_label_A.wav","null","","","","","","",""
"","","","","","html-keyboard-response","144","2.0.0","207959","p5zqt6lrnns","ono","squirrel","21","female","yes","yes","6","1","null","","null","","","","","","",""
"","","","","","image-keyboard-response","145","2.0.0","208761","p5zqt6lrnns","ono","squirrel","21","female","yes","yes","6","1","800","stimuli/pictures/hiccup_wom_2.jpg","1","1","","true","yes","sound","stimuli/sounds/hiccup_label_A.wav",""
"","","","","","audio-keyboard-response","146","2.0.0","209771","p5zqt6lrnns","ono","squirrel","21","female","yes","yes","6","1","null","stimuli/sounds/bleep.wav","null","","","","","","",""
"","","","","","html-keyboard-response","147","2.0.0","211944","p5zqt6lrnns","ono","squirrel","21","female","yes","yes","6","1","2056","<p>You have completed a block. Press R when you are ready to continue</p>","r","","","","","","",""
"","","","","","html-keyboard-response","148","2.0.0","213265","p5zqt6lrnns","ono","squirrel","21","female","yes","yes","6","1","1320","<div style=""font-size:30px;"">Press space to start the trial</div>"," ","","","","","","",""
"","","","","","html-keyboard-response","149","2.0.0","213516","p5zqt6lrnns","ono","squirrel","21","female","yes","yes","6","1","null","<div style=""font-size:60px;"">+</div>","null","","","","","","",""
"","","","","","audio-keyboard-response","150","2.0.0","214199","p5zqt6lrnns","ono","squirrel","21","female","yes","yes","6","1","null","stimuli/sounds/cough_sound_B.wav","null","","","","","","",""
"","","","","","html-keyboard-response","151","2.0.0","215207","p5zqt6lrnns","ono","squirrel","21","female","yes","yes","6","1","null","","null","","","","","","",""
"","","","","","image-keyboard-response","152","2.0.0","216208","p5zqt6lrnns","ono","squirrel","21","female","yes","yes","6","1","1000","stimuli/pictures/hiccup_man_1.jpg","0","0","","true","no","sound","stimuli/sounds/cough_sound_B.wav",""
"","","","","","audio-keyboard-response","153","2.0.0","217214","p5zqt6lrnns","ono","squirrel","21","female","yes","yes","6","1","null","stimuli/sounds/bleep.wav","null","","","","","","",""
"","","","","","html-keyboard-response","154","2.0.0","217801","p5zqt6lrnns","ono","squirrel","21","female","yes","yes","6","1","480","<div style=""font-size:30px;"">Press space to start the trial</div>"," ","","","","","","",""
"","","","","","html-keyboard-response","155","2.0.0","218067","p5zqt6lrnns","ono","squirrel","21","female","yes","yes","6","1","null","<div style=""font-size:60px;"">+</div>","null","","","","","","",""
"","","","","","audio-keyboard-response","156","2.0.0","218735","p5zqt6lrnns","ono","squirrel","21","female","yes","yes","6","1","null","stimuli/sounds/cough_sound_A.wav","null","","","","","","",""
"","","","","","html-keyboard-response","157","2.0.0","219748","p5zqt6lrnns","ono","squirrel","21","female","yes","yes","6","1","null","","null","","","","","","",""
"","","","","","image-keyboard-response","158","2.0.0","220372","p5zqt6lrnns","ono","squirrel","21","female","yes","yes","6","1","623","stimuli/pictures/cough_wom_2.jpg","1","1","","true","yes","sound","stimuli/sounds/cough_sound_A.wav",""
"","","","","","audio-keyboard-response","159","2.0.0","221375","p5zqt6lrnns","ono","squirrel","21","female","yes","yes","6","1","null","stimuli/sounds/bleep.wav","null","","","","","","",""
"","","","","","html-keyboard-response","160","2.0.0","221829","p5zqt6lrnns","ono","squirrel","21","female","yes","yes","6","1","333","<div style=""font-size:30px;"">Press space to start the trial</div>"," ","","","","","","",""
"","","","","","html-keyboard-response","161","2.0.0","222084","p5zqt6lrnns","ono","squirrel","21","female","yes","yes","6","1","null","<div style=""font-size:60px;"">+</div>","null","","","","","","",""
"","","","","","audio-keyboard-response","162","2.0.0","222671","p5zqt6lrnns","ono","squirrel","21","female","yes","yes","6","1","null","stimuli/sounds/drop_sound_A.wav","null","","","","","","",""
"","","","","","html-keyboard-response","163","2.0.0","223674","p5zqt6lrnns","ono","squirrel","21","female","yes","yes","6","1","null","","null","","","","","","",""
"","","","","","image-keyboard-response","164","2.0.0","224177","p5zqt6lrnns","ono","squirrel","21","female","yes","yes","6","1","502","stimuli/pictures/drop_single_1.jpg","1","1","","true","yes","sound","stimuli/sounds/drop_sound_A.wav",""
"","","","","","audio-keyboard-response","165","2.0.0","225191","p5zqt6lrnns","ono","squirrel","21","female","yes","yes","6","1","null","stimuli/sounds/bleep.wav","null","","","","","","",""
"","","","","","html-keyboard-response","166","2.0.0","225689","p5zqt6lrnns","ono","squirrel","21","female","yes","yes","6","1","395","<div style=""font-size:30px;"">Press space to start the trial</div>"," ","","","","","","",""
"","","","","","html-keyboard-response","167","2.0.0","225947","p5zqt6lrnns","ono","squirrel","21","female","yes","yes","6","1","null","<div style=""font-size:60px;"">+</div>","null","","","","","","",""
"","","","","","audio-keyboard-response","168","2.0.0","226620","p5zqt6lrnns","ono","squirrel","21","female","yes","yes","6","1","null","stimuli/sounds/cough_sound_A.wav","null","","","","","","",""
"","","","","","html-keyboard-response","169","2.0.0","227634","p5zqt6lrnns","ono","squirrel","21","female","yes","yes","6","1","null","","null","","","","","","",""
"","","","","","image-keyboard-response","170","2.0.0","228093","p5zqt6lrnns","ono","squirrel","21","female","yes","yes","6","1","456","stimuli/pictures/cough_man_2.jpg","1","1","","true","no","sound","stimuli/sounds/cough_sound_A.wav",""
"","","","","","audio-keyboard-response","171","2.0.0","229099","p5zqt6lrnns","ono","squirrel","21","female","yes","yes","6","1","null","stimuli/sounds/bleep.wav","null","","","","","","",""
"","","","","","html-keyboard-response","172","2.0.0","229525","p5zqt6lrnns","ono","squirrel","21","female","yes","yes","6","1","319","<div style=""font-size:30px;"">Press space to start the trial</div>"," ","","","","","","",""
"","","","","","html-keyboard-response","173","2.0.0","229785","p5zqt6lrnns","ono","squirrel","21","female","yes","yes","6","1","null","<div style=""font-size:60px;"">+</div>","null","","","","","","",""
"","","","","","audio-keyboard-response","174","2.0.0","230327","p5zqt6lrnns","ono","squirrel","21","female","yes","yes","6","1","null","stimuli/sounds/drop_label_A.wav","null","","","","","","",""
"","","","","","html-keyboard-response","175","2.0.0","231335","p5zqt6lrnns","ono","squirrel","21","female","yes","yes","6","1","null","","null","","","","","","",""
"","","","","","image-keyboard-response","176","2.0.0","231724","p5zqt6lrnns","ono","squirrel","21","female","yes","yes","6","1","386","stimuli/pictures/drop_single_1.jpg","1","1","","true","yes","sound","stimuli/sounds/drop_label_A.wav",""
"","","","","","audio-keyboard-response","177","2.0.0","232731","p5zqt6lrnns","ono","squirrel","21","female","yes","yes","6","1","null","stimuli/sounds/bleep.wav","null","","","","","","",""
"","","","","","html-keyboard-response","178","2.0.0","233141","p5zqt6lrnns","ono","squirrel","21","female","yes","yes","6","1","293","<div style=""font-size:30px;"">Press space to start the trial</div>"," ","","","","","","",""
"","","","","","html-keyboard-response","179","2.0.0","233399","p5zqt6lrnns","ono","squirrel","21","female","yes","yes","6","1","null","<div style=""font-size:60px;"">+</div>","null","","","","","","",""
"","","","","","audio-keyboard-response","180","2.0.0","233939","p5zqt6lrnns","ono","squirrel","21","female","yes","yes","6","1","null","stimuli/sounds/hiccup_label_A.wav","null","","","","","","",""
"","","","","","html-keyboard-response","181","2.0.0","234947","p5zqt6lrnns","ono","squirrel","21","female","yes","yes","6","1","null","","null","","","","","","",""
"","","","","","image-keyboard-response","182","2.0.0","235655","p5zqt6lrnns","ono","squirrel","21","female","yes","yes","6","1","706","stimuli/pictures/cough_wom_1.jpg","0","0","","true","no","sound","stimuli/sounds/hiccup_label_A.wav",""
"","","","","","audio-keyboard-response","183","2.0.0","236662","p5zqt6lrnns","ono","squirrel","21","female","yes","yes","6","1","null","stimuli/sounds/bleep.wav","null","","","","","","",""
"","","","","","html-keyboard-response","184","2.0.0","237426","p5zqt6lrnns","ono","squirrel","21","female","yes","yes","6","1","650","<div style=""font-size:30px;"">Press space to start the trial</div>"," ","","","","","","",""
"","","","","","html-keyboard-response","185","2.0.0","237693","p5zqt6lrnns","ono","squirrel","21","female","yes","yes","6","1","null","<div style=""font-size:60px;"">+</div>","null","","","","","","",""
"","","","","","audio-keyboard-response","186","2.0.0","238295","p5zqt6lrnns","ono","squirrel","21","female","yes","yes","6","1","null","stimuli/sounds/cough_label_B.wav","null","","","","","","",""
"","","","","","html-keyboard-response","187","2.0.0","239303","p5zqt6lrnns","ono","squirrel","21","female","yes","yes","6","1","null","","null","","","","","","",""
"","","","","","image-keyboard-response","188","2.0.0","240009","p5zqt6lrnns","ono","squirrel","21","female","yes","yes","6","1","704","stimuli/pictures/drop_multi_1.jpg","0","0","","true","no","sound","stimuli/sounds/cough_label_B.wav",""
"","","","","","audio-keyboard-response","189","2.0.0","241013","p5zqt6lrnns","ono","squirrel","21","female","yes","yes","6","1","null","stimuli/sounds/bleep.wav","null","","","","","","",""
"","","","","","html-keyboard-response","190","2.0.0","241457","p5zqt6lrnns","ono","squirrel","21","female","yes","yes","6","1","330","<div style=""font-size:30px;"">Press space to start the trial</div>"," ","","","","","","",""
"","","","","","html-keyboard-response","191","2.0.0","241711","p5zqt6lrnns","ono","squirrel","21","female","yes","yes","6","1","null","<div style=""font-size:60px;"">+</div>","null","","","","","","",""
"","","","","","audio-keyboard-response","192","2.0.0","242315","p5zqt6lrnns","ono","squirrel","21","female","yes","yes","6","1","null","stimuli/sounds/hiccup_label_B.wav","null","","","","","","",""
"","","","","","html-keyboard-response","193","2.0.0","243320","p5zqt6lrnns","ono","squirrel","21","female","yes","yes","6","1","null","","null","","","","","","",""
"","","","","","image-keyboard-response","194","2.0.0","243888","p5zqt6lrnns","ono","squirrel","21","female","yes","yes","6","1","566","stimuli/pictures/hiccup_wom_2.jpg","1","1","","true","yes","sound","stimuli/sounds/hiccup_label_B.wav",""
"","","","","","audio-keyboard-response","195","2.0.0","244890","p5zqt6lrnns","ono","squirrel","21","female","yes","yes","6","1","null","stimuli/sounds/bleep.wav","null","","","","","","",""
"","","","","","html-keyboard-response","196","2.0.0","245457","p5zqt6lrnns","ono","squirrel","21","female","yes","yes","6","1","455","<div style=""font-size:30px;"">Press space to start the trial</div>"," ","","","","","","",""
"","","","","","html-keyboard-response","197","2.0.0","245712","p5zqt6lrnns","ono","squirrel","21","female","yes","yes","6","1","null","<div style=""font-size:60px;"">+</div>","null","","","","","","",""
"","","","","","audio-keyboard-response","198","2.0.0","246311","p5zqt6lrnns","ono","squirrel","21","female","yes","yes","6","1","null","stimuli/sounds/dog_label_A.wav","null","","","","","","",""
"","","","","","html-keyboard-response","199","2.0.0","247321","p5zqt6lrnns","ono","squirrel","21","female","yes","yes","6","1","null","","null","","","","","","",""
"","","","","","image-keyboard-response","200","2.0.0","247802","p5zqt6lrnns","ono","squirrel","21","female","yes","yes","6","1","479","stimuli/pictures/drop_single_1.jpg","0","0","","true","no","sound","stimuli/sounds/dog_label_A.wav",""
"","","","","","audio-keyboard-response","201","2.0.0","248815","p5zqt6lrnns","ono","squirrel","21","female","yes","yes","6","1","null","stimuli/sounds/bleep.wav","null","","","","","","",""
"","","","","","html-keyboard-response","202","2.0.0","249225","p5zqt6lrnns","ono","squirrel","21","female","yes","yes","6","1","306","<div style=""font-size:30px;"">Press space to start the trial</div>"," ","","","","","","",""
"","","","","","html-keyboard-response","203","2.0.0","249488","p5zqt6lrnns","ono","squirrel","21","female","yes","yes","6","1","null","<div style=""font-size:60px;"">+</div>","null","","","","","","",""
"","","","","","audio-keyboard-response","204","2.0.0","250091","p5zqt6lrnns","ono","squirrel","21","female","yes","yes","6","1","null","stimuli/sounds/dog_sound_A.wav","null","","","","","","",""
"","","","","","html-keyboard-response","205","2.0.0","251106","p5zqt6lrnns","ono","squirrel","21","female","yes","yes","6","1","null","","null","","","","","","",""
"","","","","","image-keyboard-response","206","2.0.0","251630","p5zqt6lrnns","ono","squirrel","21","female","yes","yes","6","1","522","stimuli/pictures/hiccup_man_2.jpg","0","0","","true","no","sound","stimuli/sounds/dog_sound_A.wav",""
"","","","","","audio-keyboard-response","207","2.0.0","252644","p5zqt6lrnns","ono","squirrel","21","female","yes","yes","6","1","null","stimuli/sounds/bleep.wav","null","","","","","","",""
"","","","","","html-keyboard-response","208","2.0.0","253581","p5zqt6lrnns","ono","squirrel","21","female","yes","yes","6","1","825","<div style=""font-size:30px;"">Press space to start the trial</div>"," ","","","","","","",""
"","","","","","html-keyboard-response","209","2.0.0","253845","p5zqt6lrnns","ono","squirrel","21","female","yes","yes","6","1","null","<div style=""font-size:60px;"">+</div>","null","","","","","","",""
"","","","","","audio-keyboard-response","210","2.0.0","254447","p5zqt6lrnns","ono","squirrel","21","female","yes","yes","6","1","null","stimuli/sounds/drop_label_B.wav","null","","","","","","",""
"","","","","","html-keyboard-response","211","2.0.0","255451","p5zqt6lrnns","ono","squirrel","21","female","yes","yes","6","1","null","","null","","","","","","",""
"","","","","","image-keyboard-response","212","2.0.0","255811","p5zqt6lrnns","ono","squirrel","21","female","yes","yes","6","1","358","stimuli/pictures/drop_multi_1.jpg","1","1","","true","yes","sound","stimuli/sounds/drop_label_B.wav",""
"","","","","","audio-keyboard-response","213","2.0.0","256819","p5zqt6lrnns","ono","squirrel","21","female","yes","yes","6","1","null","stimuli/sounds/bleep.wav","null","","","","","","",""
"","","","","","html-keyboard-response","214","2.0.0","257245","p5zqt6lrnns","ono","squirrel","21","female","yes","yes","6","1","313","<div style=""font-size:30px;"">Press space to start the trial</div>"," ","","","","","","",""
"","","","","","html-keyboard-response","215","2.0.0","257511","p5zqt6lrnns","ono","squirrel","21","female","yes","yes","6","1","null","<div style=""font-size:60px;"">+</div>","null","","","","","","",""
"","","","","","audio-keyboard-response","216","2.0.0","258119","p5zqt6lrnns","ono","squirrel","21","female","yes","yes","6","1","null","stimuli/sounds/hiccup_sound_B.wav","null","","","","","","",""
"","","","","","html-keyboard-response","217","2.0.0","259131","p5zqt6lrnns","ono","squirrel","21","female","yes","yes","6","1","null","","null","","","","","","",""
"","","","","","image-keyboard-response","218","2.0.0","259498","p5zqt6lrnns","ono","squirrel","21","female","yes","yes","6","1","365","stimuli/pictures/hiccup_wom_2.jpg","1","1","","true","no","sound","stimuli/sounds/hiccup_sound_B.wav",""
"","","","","","audio-keyboard-response","219","2.0.0","260507","p5zqt6lrnns","ono","squirrel","21","female","yes","yes","6","1","null","stimuli/sounds/bleep.wav","null","","","","","","",""
"","","","","","html-keyboard-response","220","2.0.0","260899","p5zqt6lrnns","ono","squirrel","21","female","yes","yes","6","1","282","<div style=""font-size:30px;"">Press space to start the trial</div>"," ","","","","","","",""
"","","","","","html-keyboard-response","221","2.0.0","261164","p5zqt6lrnns","ono","squirrel","21","female","yes","yes","6","1","null","<div style=""font-size:60px;"">+</div>","null","","","","","","",""
"","","","","","audio-keyboard-response","222","2.0.0","261755","p5zqt6lrnns","ono","squirrel","21","female","yes","yes","6","1","null","stimuli/sounds/motor_sound_B.wav","null","","","","","","",""
"","","","","","html-keyboard-response","223","2.0.0","262769","p5zqt6lrnns","ono","squirrel","21","female","yes","yes","6","1","null","","null","","","","","","",""
"","","","","","image-keyboard-response","224","2.0.0","263194","p5zqt6lrnns","ono","squirrel","21","female","yes","yes","6","1","423","stimuli/pictures/cough_man_2.jpg","0","0","","true","no","sound","stimuli/sounds/motor_sound_B.wav",""
"","","","","","audio-keyboard-response","225","2.0.0","264198","p5zqt6lrnns","ono","squirrel","21","female","yes","yes","6","1","null","stimuli/sounds/bleep.wav","null","","","","","","",""
"","","","","","html-keyboard-response","226","2.0.0","264551","p5zqt6lrnns","ono","squirrel","21","female","yes","yes","6","1","244","<div style=""font-size:30px;"">Press space to start the trial</div>"," ","","","","","","",""
"","","","","","html-keyboard-response","227","2.0.0","264803","p5zqt6lrnns","ono","squirrel","21","female","yes","yes","6","1","null","<div style=""font-size:60px;"">+</div>","null","","","","","","",""
"","","","","","audio-keyboard-response","228","2.0.0","265415","p5zqt6lrnns","ono","squirrel","21","female","yes","yes","6","1","null","stimuli/sounds/hiccup_label_B.wav","null","","","","","","",""
"","","","","","html-keyboard-response","229","2.0.0","266420","p5zqt6lrnns","ono","squirrel","21","female","yes","yes","6","1","null","","null","","","","","","",""
"","","","","","image-keyboard-response","230","2.0.0","267392","p5zqt6lrnns","ono","squirrel","21","female","yes","yes","6","1","970","stimuli/pictures/hiccup_wom_1.jpg","0","1","","false","yes","sound","stimuli/sounds/hiccup_label_B.wav",""
"","","","","","audio-keyboard-response","231","2.0.0","268395","p5zqt6lrnns","ono","squirrel","21","female","yes","yes","6","1","null","stimuli/sounds/buzz.wav","null","","","","","","",""
"","","","","","html-keyboard-response","232","2.0.0","269461","p5zqt6lrnns","ono","squirrel","21","female","yes","yes","6","1","957","<div style=""font-size:30px;"">Press space to start the trial</div>"," ","","","","","","",""
"","","","","","html-keyboard-response","233","2.0.0","269726","p5zqt6lrnns","ono","squirrel","21","female","yes","yes","6","1","null","<div style=""font-size:60px;"">+</div>","null","","","","","","",""
"","","","","","audio-keyboard-response","234","2.0.0","270407","p5zqt6lrnns","ono","squirrel","21","female","yes","yes","6","1","null","stimuli/sounds/cough_sound_B.wav","null","","","","","","",""
"","","","","","html-keyboard-response","235","2.0.0","271416","p5zqt6lrnns","ono","squirrel","21","female","yes","yes","6","1","null","","null","","","","","","",""
"","","","","","image-keyboard-response","236","2.0.0","271877","p5zqt6lrnns","ono","squirrel","21","female","yes","yes","6","1","459","stimuli/pictures/cough_wom_2.jpg","1","1","","true","no","sound","stimuli/sounds/cough_sound_B.wav",""
"","","","","","audio-keyboard-response","237","2.0.0","272879","p5zqt6lrnns","ono","squirrel","21","female","yes","yes","6","1","null","stimuli/sounds/bleep.wav","null","","","","","","",""
"","","","","","html-keyboard-response","238","2.0.0","273311","p5zqt6lrnns","ono","squirrel","21","female","yes","yes","6","1","316","<div style=""font-size:30px;"">Press space to start the trial</div>"," ","","","","","","",""
"","","","","","html-keyboard-response","239","2.0.0","273582","p5zqt6lrnns","ono","squirrel","21","female","yes","yes","6","1","null","<div style=""font-size:60px;"">+</div>","null","","","","","","",""
"","","","","","audio-keyboard-response","240","2.0.0","274211","p5zqt6lrnns","ono","squirrel","21","female","yes","yes","6","1","null","stimuli/sounds/cough_label_A.wav","null","","","","","","",""
"","","","","","html-keyboard-response","241","2.0.0","275219","p5zqt6lrnns","ono","squirrel","21","female","yes","yes","6","1","null","","null","","","","","","",""
"","","","","","image-keyboard-response","242","2.0.0","275888","p5zqt6lrnns","ono","squirrel","21","female","yes","yes","6","1","668","stimuli/pictures/cough_wom_1.jpg","1","1","","true","yes","sound","stimuli/sounds/cough_label_A.wav",""
"","","","","","audio-keyboard-response","243","2.0.0","276903","p5zqt6lrnns","ono","squirrel","21","female","yes","yes","6","1","null","stimuli/sounds/bleep.wav","null","","","","","","",""
"","","","","","html-keyboard-response","244","2.0.0","277441","p5zqt6lrnns","ono","squirrel","21","female","yes","yes","6","1","435","<div style=""font-size:30px;"">Press space to start the trial</div>"," ","","","","","","",""
"","","","","","html-keyboard-response","245","2.0.0","277696","p5zqt6lrnns","ono","squirrel","21","female","yes","yes","6","1","null","<div style=""font-size:60px;"">+</div>","null","","","","","","",""
"","","","","","audio-keyboard-response","246","2.0.0","278299","p5zqt6lrnns","ono","squirrel","21","female","yes","yes","6","1","null","stimuli/sounds/dog_label_A.wav","null","","","","","","",""
"","","","","","html-keyboard-response","247","2.0.0","279303","p5zqt6lrnns","ono","squirrel","21","female","yes","yes","6","1","null","","null","","","","","","",""
"","","","","","image-keyboard-response","248","2.0.0","279966","p5zqt6lrnns","ono","squirrel","21","female","yes","yes","6","1","661","stimuli/pictures/drop_single_2.jpg","0","0","","true","no","sound","stimuli/sounds/dog_label_A.wav",""
"","","","","","audio-keyboard-response","249","2.0.0","280975","p5zqt6lrnns","ono","squirrel","21","female","yes","yes","6","1","null","stimuli/sounds/bleep.wav","null","","","","","","",""
"","","","","","html-keyboard-response","250","2.0.0","281469","p5zqt6lrnns","ono","squirrel","21","female","yes","yes","6","1","373","<div style=""font-size:30px;"">Press space to start the trial</div>"," ","","","","","","",""
"","","","","","html-keyboard-response","251","2.0.0","281720","p5zqt6lrnns","ono","squirrel","21","female","yes","yes","6","1","null","<div style=""font-size:60px;"">+</div>","null","","","","","","",""
"","","","","","audio-keyboard-response","252","2.0.0","282323","p5zqt6lrnns","ono","squirrel","21","female","yes","yes","6","1","null","stimuli/sounds/dog_sound_A.wav","null","","","","","","",""
"","","","","","html-keyboard-response","253","2.0.0","283334","p5zqt6lrnns","ono","squirrel","21","female","yes","yes","6","1","null","","null","","","","","","",""
"","","","","","image-keyboard-response","254","2.0.0","283867","p5zqt6lrnns","ono","squirrel","21","female","yes","yes","6","1","531","stimuli/pictures/hiccup_wom_1.jpg","0","0","","true","no","sound","stimuli/sounds/dog_sound_A.wav",""
"","","","","","audio-keyboard-response","255","2.0.0","284876","p5zqt6lrnns","ono","squirrel","21","female","yes","yes","6","1","null","stimuli/sounds/bleep.wav","null","","","","","","",""
"","","","","","html-keyboard-response","256","2.0.0","285332","p5zqt6lrnns","ono","squirrel","21","female","yes","yes","6","1","352","<div style=""font-size:30px;"">Press space to start the trial</div>"," ","","","","","","",""
"","","","","","html-keyboard-response","257","2.0.0","285598","p5zqt6lrnns","ono","squirrel","21","female","yes","yes","6","1","null","<div style=""font-size:60px;"">+</div>","null","","","","","","",""
"","","","","","audio-keyboard-response","258","2.0.0","286199","p5zqt6lrnns","ono","squirrel","21","female","yes","yes","6","1","null","stimuli/sounds/hiccup_label_B.wav","null","","","","","","",""
"","","","","","html-keyboard-response","259","2.0.0","287203","p5zqt6lrnns","ono","squirrel","21","female","yes","yes","6","1","null","","null","","","","","","",""
"","","","","","image-keyboard-response","260","2.0.0","288072","p5zqt6lrnns","ono","squirrel","21","female","yes","yes","6","1","867","stimuli/pictures/dog_rott_1.jpg","0","0","","true","no","sound","stimuli/sounds/hiccup_label_B.wav",""
"","","","","","audio-keyboard-response","261","2.0.0","289084","p5zqt6lrnns","ono","squirrel","21","female","yes","yes","6","1","null","stimuli/sounds/bleep.wav","null","","","","","","",""
"","","","","","html-keyboard-response","262","2.0.0","289745","p5zqt6lrnns","ono","squirrel","21","female","yes","yes","6","1","544","<div style=""font-size:30px;"">Press space to start the trial</div>"," ","","","","","","",""
"","","","","","html-keyboard-response","263","2.0.0","290010","p5zqt6lrnns","ono","squirrel","21","female","yes","yes","6","1","null","<div style=""font-size:60px;"">+</div>","null","","","","","","",""
"","","","","","audio-keyboard-response","264","2.0.0","290603","p5zqt6lrnns","ono","squirrel","21","female","yes","yes","6","1","null","stimuli/sounds/dog_label_B.wav","null","","","","","","",""
"","","","","","html-keyboard-response","265","2.0.0","291612","p5zqt6lrnns","ono","squirrel","21","female","yes","yes","6","1","null","","null","","","","","","",""
"","","","","","image-keyboard-response","266","2.0.0","292146","p5zqt6lrnns","ono","squirrel","21","female","yes","yes","6","1","533","stimuli/pictures/cough_man_1.jpg","0","0","","true","no","sound","stimuli/sounds/dog_label_B.wav",""
"","","","","","audio-keyboard-response","267","2.0.0","293159","p5zqt6lrnns","ono","squirrel","21","female","yes","yes","6","1","null","stimuli/sounds/bleep.wav","null","","","","","","",""
"","","","","","html-keyboard-response","268","2.0.0","294659","p5zqt6lrnns","ono","squirrel","21","female","yes","yes","6","1","1392","<p>You have completed a block. Press R when you are ready to continue</p>","r","","","","","","",""
"","","","","","html-keyboard-response","269","2.0.0","295404","p5zqt6lrnns","ono","squirrel","21","female","yes","yes","6","1","743","<div style=""font-size:30px;"">Press space to start the trial</div>"," ","","","","","","",""
"","","","","","html-keyboard-response","270","2.0.0","295667","p5zqt6lrnns","ono","squirrel","21","female","yes","yes","6","1","null","<div style=""font-size:60px;"">+</div>","null","","","","","","",""
"","","","","","audio-keyboard-response","271","2.0.0","296351","p5zqt6lrnns","ono","squirrel","21","female","yes","yes","6","1","null","stimuli/sounds/cough_sound_B.wav","null","","","","","","",""
"","","","","","html-keyboard-response","272","2.0.0","297367","p5zqt6lrnns","ono","squirrel","21","female","yes","yes","6","1","null","","null","","","","","","",""
"","","","","","image-keyboard-response","273","2.0.0","297937","p5zqt6lrnns","ono","squirrel","21","female","yes","yes","6","1","568","stimuli/pictures/cough_man_1.jpg","1","1","","true","yes","sound","stimuli/sounds/cough_sound_B.wav",""
"","","","","","audio-keyboard-response","274","2.0.0","298943","p5zqt6lrnns","ono","squirrel","21","female","yes","yes","6","1","null","stimuli/sounds/bleep.wav","null","","","","","","",""
"","","","","","html-keyboard-response","275","2.0.0","299519","p5zqt6lrnns","ono","squirrel","21","female","yes","yes","6","1","468","<div style=""font-size:30px;"">Press space to start the trial</div>"," ","","","","","","",""
"","","","","","html-keyboard-response","276","2.0.0","299775","p5zqt6lrnns","ono","squirrel","21","female","yes","yes","6","1","null","<div style=""font-size:60px;"">+</div>","null","","","","","","",""
"","","","","","audio-keyboard-response","277","2.0.0","300383","p5zqt6lrnns","ono","squirrel","21","female","yes","yes","6","1","null","stimuli/sounds/drop_sound_B.wav","null","","","","","","",""
"","","","","","html-keyboard-response","278","2.0.0","301392","p5zqt6lrnns","ono","squirrel","21","female","yes","yes","6","1","null","","null","","","","","","",""
"","","","","","image-keyboard-response","279","2.0.0","301830","p5zqt6lrnns","ono","squirrel","21","female","yes","yes","6","1","436","stimuli/pictures/drop_single_2.jpg","1","1","","true","no","sound","stimuli/sounds/drop_sound_B.wav",""
"","","","","","audio-keyboard-response","280","2.0.0","302835","p5zqt6lrnns","ono","squirrel","21","female","yes","yes","6","1","null","stimuli/sounds/bleep.wav","null","","","","","","",""
"","","","","","html-keyboard-response","281","2.0.0","303252","p5zqt6lrnns","ono","squirrel","21","female","yes","yes","6","1","313","<div style=""font-size:30px;"">Press space to start the trial</div>"," ","","","","","","",""
"","","","","","html-keyboard-response","282","2.0.0","303527","p5zqt6lrnns","ono","squirrel","21","female","yes","yes","6","1","null","<div style=""font-size:60px;"">+</div>","null","","","","","","",""
"","","","","","audio-keyboard-response","283","2.0.0","304139","p5zqt6lrnns","ono","squirrel","21","female","yes","yes","6","1","null","stimuli/sounds/hiccup_sound_B.wav","null","","","","","","",""
"","","","","","html-keyboard-response","284","2.0.0","305159","p5zqt6lrnns","ono","squirrel","21","female","yes","yes","6","1","null","","null","","","","","","",""
"","","","","","image-keyboard-response","285","2.0.0","305642","p5zqt6lrnns","ono","squirrel","21","female","yes","yes","6","1","481","stimuli/pictures/drop_multi_2.jpg","0","0","","true","no","sound","stimuli/sounds/hiccup_sound_B.wav",""
"","","","","","audio-keyboard-response","286","2.0.0","306648","p5zqt6lrnns","ono","squirrel","21","female","yes","yes","6","1","null","stimuli/sounds/bleep.wav","null","","","","","","",""
"","","","","","html-keyboard-response","287","2.0.0","307134","p5zqt6lrnns","ono","squirrel","21","female","yes","yes","6","1","380","<div style=""font-size:30px;"">Press space to start the trial</div>"," ","","","","","","",""
"","","","","","html-keyboard-response","288","2.0.0","307391","p5zqt6lrnns","ono","squirrel","21","female","yes","yes","6","1","null","<div style=""font-size:60px;"">+</div>","null","","","","","","",""
"","","","","","audio-keyboard-response","289","2.0.0","307943","p5zqt6lrnns","ono","squirrel","21","female","yes","yes","6","1","null","stimuli/sounds/drop_label_A.wav","null","","","","","","",""
"","","","","","html-keyboard-response","290","2.0.0","308963","p5zqt6lrnns","ono","squirrel","21","female","yes","yes","6","1","null","","null","","","","","","",""
"","","","","","image-keyboard-response","291","2.0.0","309347","p5zqt6lrnns","ono","squirrel","21","female","yes","yes","6","1","382","stimuli/pictures/hiccup_wom_2.jpg","0","0","","true","no","sound","stimuli/sounds/drop_label_A.wav",""
"","","","","","audio-keyboard-response","292","2.0.0","310351","p5zqt6lrnns","ono","squirrel","21","female","yes","yes","6","1","null","stimuli/sounds/bleep.wav","null","","","","","","",""
"","","","","","html-keyboard-response","293","2.0.0","310791","p5zqt6lrnns","ono","squirrel","21","female","yes","yes","6","1","335","<div style=""font-size:30px;"">Press space to start the trial</div>"," ","","","","","","",""
"","","","","","html-keyboard-response","294","2.0.0","311055","p5zqt6lrnns","ono","squirrel","21","female","yes","yes","6","1","null","<div style=""font-size:60px;"">+</div>","null","","","","","","",""
"","","","","","audio-keyboard-response","295","2.0.0","311651","p5zqt6lrnns","ono","squirrel","21","female","yes","yes","6","1","null","stimuli/sounds/motor_label_B.wav","null","","","","","","",""
"","","","","","html-keyboard-response","296","2.0.0","312668","p5zqt6lrnns","ono","squirrel","21","female","yes","yes","6","1","null","","null","","","","","","",""
"","","","","","image-keyboard-response","297","2.0.0","313151","p5zqt6lrnns","ono","squirrel","21","female","yes","yes","6","1","482","stimuli/pictures/hiccup_wom_1.jpg","0","0","","true","no","sound","stimuli/sounds/motor_label_B.wav",""
"","","","","","audio-keyboard-response","298","2.0.0","314159","p5zqt6lrnns","ono","squirrel","21","female","yes","yes","6","1","null","stimuli/sounds/bleep.wav","null","","","","","","",""
"","","","","","html-keyboard-response","299","2.0.0","314664","p5zqt6lrnns","ono","squirrel","21","female","yes","yes","6","1","392","<div style=""font-size:30px;"">Press space to start the trial</div>"," ","","","","","","",""
"","","","","","html-keyboard-response","300","2.0.0","314927","p5zqt6lrnns","ono","squirrel","21","female","yes","yes","6","1","null","<div style=""font-size:60px;"">+</div>","null","","","","","","",""
"","","","","","audio-keyboard-response","301","2.0.0","315539","p5zqt6lrnns","ono","squirrel","21","female","yes","yes","6","1","null","stimuli/sounds/dog_sound_B.wav","null","","","","","","",""
"","","","","","html-keyboard-response","302","2.0.0","316548","p5zqt6lrnns","ono","squirrel","21","female","yes","yes","6","1","null","","null","","","","","","",""
"","","","","","image-keyboard-response","303","2.0.0","317009","p5zqt6lrnns","ono","squirrel","21","female","yes","yes","6","1","459","stimuli/pictures/dog_york_2.jpg","1","1","","true","yes","sound","stimuli/sounds/dog_sound_B.wav",""
"","","","","","audio-keyboard-response","304","2.0.0","318011","p5zqt6lrnns","ono","squirrel","21","female","yes","yes","6","1","null","stimuli/sounds/bleep.wav","null","","","","","","",""
"","","","","","html-keyboard-response","305","2.0.0","318880","p5zqt6lrnns","ono","squirrel","21","female","yes","yes","6","1","749","<div style=""font-size:30px;"">Press space to start the trial</div>"," ","","","","","","",""
"","","","","","html-keyboard-response","306","2.0.0","319147","p5zqt6lrnns","ono","squirrel","21","female","yes","yes","6","1","null","<div style=""font-size:60px;"">+</div>","null","","","","","","",""
"","","","","","audio-keyboard-response","307","2.0.0","319739","p5zqt6lrnns","ono","squirrel","21","female","yes","yes","6","1","null","stimuli/sounds/motor_sound_A.wav","null","","","","","","",""
"","","","","","html-keyboard-response","308","2.0.0","320753","p5zqt6lrnns","ono","squirrel","21","female","yes","yes","6","1","null","","null","","","","","","",""
"","","","","","image-keyboard-response","309","2.0.0","321226","p5zqt6lrnns","ono","squirrel","21","female","yes","yes","6","1","471","stimuli/pictures/motor_dirt_2.jpg","1","1","","true","yes","sound","stimuli/sounds/motor_sound_A.wav",""
"","","","","","audio-keyboard-response","310","2.0.0","322238","p5zqt6lrnns","ono","squirrel","21","female","yes","yes","6","1","null","stimuli/sounds/bleep.wav","null","","","","","","",""
"","","","","","html-keyboard-response","311","2.0.0","322673","p5zqt6lrnns","ono","squirrel","21","female","yes","yes","6","1","319","<div style=""font-size:30px;"">Press space to start the trial</div>"," ","","","","","","",""
"","","","","","html-keyboard-response","312","2.0.0","322935","p5zqt6lrnns","ono","squirrel","21","female","yes","yes","6","1","null","<div style=""font-size:60px;"">+</div>","null","","","","","","",""
"","","","","","audio-keyboard-response","313","2.0.0","323543","p5zqt6lrnns","ono","squirrel","21","female","yes","yes","6","1","null","stimuli/sounds/dog_sound_B.wav","null","","","","","","",""
"","","","","","html-keyboard-response","314","2.0.0","324548","p5zqt6lrnns","ono","squirrel","21","female","yes","yes","6","1","null","","null","","","","","","",""
"","","","","","image-keyboard-response","315","2.0.0","325253","p5zqt6lrnns","ono","squirrel","21","female","yes","yes","6","1","703","stimuli/pictures/motor_dirt_1.jpg","0","0","","true","no","sound","stimuli/sounds/dog_sound_B.wav",""
"","","","","","audio-keyboard-response","316","2.0.0","326262","p5zqt6lrnns","ono","squirrel","21","female","yes","yes","6","1","null","stimuli/sounds/bleep.wav","null","","","","","","",""
"","","","","","html-keyboard-response","317","2.0.0","326626","p5zqt6lrnns","ono","squirrel","21","female","yes","yes","6","1","249","<div style=""font-size:30px;"">Press space to start the trial</div>"," ","","","","","","",""
"","","","","","html-keyboard-response","318","2.0.0","326883","p5zqt6lrnns","ono","squirrel","21","female","yes","yes","6","1","null","<div style=""font-size:60px;"">+</div>","null","","","","","","",""
"","","","","","audio-keyboard-response","319","2.0.0","327491","p5zqt6lrnns","ono","squirrel","21","female","yes","yes","6","1","null","stimuli/sounds/dog_sound_B.wav","null","","","","","","",""
"","","","","","html-keyboard-response","320","2.0.0","328495","p5zqt6lrnns","ono","squirrel","21","female","yes","yes","6","1","null","","null","","","","","","",""
"","","","","","image-keyboard-response","321","2.0.0","328824","p5zqt6lrnns","ono","squirrel","21","female","yes","yes","6","1","328","stimuli/pictures/dog_york_1.jpg","1","1","","true","yes","sound","stimuli/sounds/dog_sound_B.wav",""
"","","","","","audio-keyboard-response","322","2.0.0","329838","p5zqt6lrnns","ono","squirrel","21","female","yes","yes","6","1","null","stimuli/sounds/bleep.wav","null","","","","","","",""
"","","","","","html-keyboard-response","323","2.0.0","330211","p5zqt6lrnns","ono","squirrel","21","female","yes","yes","6","1","268","<div style=""font-size:30px;"">Press space to start the trial</div>"," ","","","","","","",""
"","","","","","html-keyboard-response","324","2.0.0","330464","p5zqt6lrnns","ono","squirrel","21","female","yes","yes","6","1","null","<div style=""font-size:60px;"">+</div>","null","","","","","","",""
"","","","","","audio-keyboard-response","325","2.0.0","331043","p5zqt6lrnns","ono","squirrel","21","female","yes","yes","6","1","null","stimuli/sounds/drop_sound_A.wav","null","","","","","","",""
"","","","","","html-keyboard-response","326","2.0.0","332051","p5zqt6lrnns","ono","squirrel","21","female","yes","yes","6","1","null","","null","","","","","","",""
"","","","","","image-keyboard-response","327","2.0.0","332713","p5zqt6lrnns","ono","squirrel","21","female","yes","yes","6","1","661","stimuli/pictures/cough_wom_1.jpg","0","0","","true","no","sound","stimuli/sounds/drop_sound_A.wav",""
"","","","","","audio-keyboard-response","328","2.0.0","333723","p5zqt6lrnns","ono","squirrel","21","female","yes","yes","6","1","null","stimuli/sounds/bleep.wav","null","","","","","","",""
"","","","","","html-keyboard-response","329","2.0.0","334222","p5zqt6lrnns","ono","squirrel","21","female","yes","yes","6","1","392","<div style=""font-size:30px;"">Press space to start the trial</div>"," ","","","","","","",""
"","","","","","html-keyboard-response","330","2.0.0","334476","p5zqt6lrnns","ono","squirrel","21","female","yes","yes","6","1","null","<div style=""font-size:60px;"">+</div>","null","","","","","","",""
"","","","","","audio-keyboard-response","331","2.0.0","335111","p5zqt6lrnns","ono","squirrel","21","female","yes","yes","6","1","null","stimuli/sounds/cough_label_A.wav","null","","","","","","",""
"","","","","","html-keyboard-response","332","2.0.0","336113","p5zqt6lrnns","ono","squirrel","21","female","yes","yes","6","1","null","","null","","","","","","",""
"","","","","","image-keyboard-response","333","2.0.0","336581","p5zqt6lrnns","ono","squirrel","21","female","yes","yes","6","1","466","stimuli/pictures/motor_dirt_2.jpg","0","0","","true","no","sound","stimuli/sounds/cough_label_A.wav",""
"","","","","","audio-keyboard-response","334","2.0.0","337588","p5zqt6lrnns","ono","squirrel","21","female","yes","yes","6","1","null","stimuli/sounds/bleep.wav","null","","","","","","",""
"","","","","","html-keyboard-response","335","2.0.0","337946","p5zqt6lrnns","ono","squirrel","21","female","yes","yes","6","1","243","<div style=""font-size:30px;"">Press space to start the trial</div>"," ","","","","","","",""
"","","","","","html-keyboard-response","336","2.0.0","338199","p5zqt6lrnns","ono","squirrel","21","female","yes","yes","6","1","null","<div style=""font-size:60px;"">+</div>","null","","","","","","",""
"","","","","","audio-keyboard-response","337","2.0.0","338747","p5zqt6lrnns","ono","squirrel","21","female","yes","yes","6","1","null","stimuli/sounds/drop_label_A.wav","null","","","","","","",""
"","","","","","html-keyboard-response","338","2.0.0","339767","p5zqt6lrnns","ono","squirrel","21","female","yes","yes","6","1","null","","null","","","","","","",""
"","","","","","image-keyboard-response","339","2.0.0","340123","p5zqt6lrnns","ono","squirrel","21","female","yes","yes","6","1","354","stimuli/pictures/drop_multi_2.jpg","1","1","","true","yes","sound","stimuli/sounds/drop_label_A.wav",""
"","","","","","audio-keyboard-response","340","2.0.0","341127","p5zqt6lrnns","ono","squirrel","21","female","yes","yes","6","1","null","stimuli/sounds/bleep.wav","null","","","","","","",""
"","","","","","html-keyboard-response","341","2.0.0","341780","p5zqt6lrnns","ono","squirrel","21","female","yes","yes","6","1","540","<div style=""font-size:30px;"">Press space to start the trial</div>"," ","","","","","","",""
"","","","","","html-keyboard-response","342","2.0.0","342047","p5zqt6lrnns","ono","squirrel","21","female","yes","yes","6","1","null","<div style=""font-size:60px;"">+</div>","null","","","","","","",""
"","","","","","audio-keyboard-response","343","2.0.0","342647","p5zqt6lrnns","ono","squirrel","21","female","yes","yes","6","1","null","stimuli/sounds/motor_sound_B.wav","null","","","","","","",""
"","","","","","html-keyboard-response","344","2.0.0","343654","p5zqt6lrnns","ono","squirrel","21","female","yes","yes","6","1","null","","null","","","","","","",""
"","","","","","image-keyboard-response","345","2.0.0","344039","p5zqt6lrnns","ono","squirrel","21","female","yes","yes","6","1","383","stimuli/pictures/motor_harley_1.jpg","1","1","","true","yes","sound","stimuli/sounds/motor_sound_B.wav",""
"","","","","","audio-keyboard-response","346","2.0.0","345055","p5zqt6lrnns","ono","squirrel","21","female","yes","yes","6","1","null","stimuli/sounds/bleep.wav","null","","","","","","",""
"","","","","","html-keyboard-response","347","2.0.0","345425","p5zqt6lrnns","ono","squirrel","21","female","yes","yes","6","1","249","<div style=""font-size:30px;"">Press space to start the trial</div>"," ","","","","","","",""
"","","","","","html-keyboard-response","348","2.0.0","345681","p5zqt6lrnns","ono","squirrel","21","female","yes","yes","6","1","null","<div style=""font-size:60px;"">+</div>","null","","","","","","",""
"","","","","","audio-keyboard-response","349","2.0.0","346283","p5zqt6lrnns","ono","squirrel","21","female","yes","yes","6","1","null","stimuli/sounds/hiccup_sound_B.wav","null","","","","","","",""
"","","","","","html-keyboard-response","350","2.0.0","347286","p5zqt6lrnns","ono","squirrel","21","female","yes","yes","6","1","null","","null","","","","","","",""
"","","","","","image-keyboard-response","351","2.0.0","347744","p5zqt6lrnns","ono","squirrel","21","female","yes","yes","6","1","456","stimuli/pictures/hiccup_man_2.jpg","1","1","","true","yes","sound","stimuli/sounds/hiccup_sound_B.wav",""
"","","","","","audio-keyboard-response","352","2.0.0","348753","p5zqt6lrnns","ono","squirrel","21","female","yes","yes","6","1","null","stimuli/sounds/bleep.wav","null","","","","","","",""
"","","","","","html-keyboard-response","353","2.0.0","349163","p5zqt6lrnns","ono","squirrel","21","female","yes","yes","6","1","300","<div style=""font-size:30px;"">Press space to start the trial</div>"," ","","","","","","",""
"","","","","","html-keyboard-response","354","2.0.0","349425","p5zqt6lrnns","ono","squirrel","21","female","yes","yes","6","1","null","<div style=""font-size:60px;"">+</div>","null","","","","","","",""
"","","","","","audio-keyboard-response","355","2.0.0","350027","p5zqt6lrnns","ono","squirrel","21","female","yes","yes","6","1","null","stimuli/sounds/motor_sound_B.wav","null","","","","","","",""
"","","","","","html-keyboard-response","356","2.0.0","351036","p5zqt6lrnns","ono","squirrel","21","female","yes","yes","6","1","null","","null","","","","","","",""
"","","","","","image-keyboard-response","357","2.0.0","351543","p5zqt6lrnns","ono","squirrel","21","female","yes","yes","6","1","505","stimuli/pictures/cough_wom_2.jpg","0","0","","true","no","sound","stimuli/sounds/motor_sound_B.wav",""
"","","","","","audio-keyboard-response","358","2.0.0","352551","p5zqt6lrnns","ono","squirrel","21","female","yes","yes","6","1","null","stimuli/sounds/bleep.wav","null","","","","","","",""
"","","","","","html-keyboard-response","359","2.0.0","352948","p5zqt6lrnns","ono","squirrel","21","female","yes","yes","6","1","284","<div style=""font-size:30px;"">Press space to start the trial</div>"," ","","","","","","",""
"","","","","","html-keyboard-response","360","2.0.0","353202","p5zqt6lrnns","ono","squirrel","21","female","yes","yes","6","1","null","<div style=""font-size:60px;"">+</div>","null","","","","","","",""
"","","","","","audio-keyboard-response","361","2.0.0","353747","p5zqt6lrnns","ono","squirrel","21","female","yes","yes","6","1","null","stimuli/sounds/drop_label_A.wav","null","","","","","","",""
"","","","","","html-keyboard-response","362","2.0.0","354750","p5zqt6lrnns","ono","squirrel","21","female","yes","yes","6","1","null","","null","","","","","","",""
"","","","","","image-keyboard-response","363","2.0.0","355211","p5zqt6lrnns","ono","squirrel","21","female","yes","yes","6","1","458","stimuli/pictures/drop_single_2.jpg","1","1","","true","yes","sound","stimuli/sounds/drop_label_A.wav",""
"","","","","","audio-keyboard-response","364","2.0.0","356217","p5zqt6lrnns","ono","squirrel","21","female","yes","yes","6","1","null","stimuli/sounds/bleep.wav","null","","","","","","",""
"","","","","","html-keyboard-response","365","2.0.0","356649","p5zqt6lrnns","ono","squirrel","21","female","yes","yes","6","1","325","<div style=""font-size:30px;"">Press space to start the trial</div>"," ","","","","","","",""
"","","","","","html-keyboard-response","366","2.0.0","356915","p5zqt6lrnns","ono","squirrel","21","female","yes","yes","6","1","null","<div style=""font-size:60px;"">+</div>","null","","","","","","",""
"","","","","","audio-keyboard-response","367","2.0.0","357527","p5zqt6lrnns","ono","squirrel","21","female","yes","yes","6","1","null","stimuli/sounds/drop_label_B.wav","null","","","","","","",""
"","","","","","html-keyboard-response","368","2.0.0","358542","p5zqt6lrnns","ono","squirrel","21","female","yes","yes","6","1","null","","null","","","","","","",""
"","","","","","image-keyboard-response","369","2.0.0","358876","p5zqt6lrnns","ono","squirrel","21","female","yes","yes","6","1","332","stimuli/pictures/drop_single_2.jpg","1","1","","true","yes","sound","stimuli/sounds/drop_label_B.wav",""
"","","","","","audio-keyboard-response","370","2.0.0","359886","p5zqt6lrnns","ono","squirrel","21","female","yes","yes","6","1","null","stimuli/sounds/bleep.wav","null","","","","","","",""
"","","","","","html-keyboard-response","371","2.0.0","360277","p5zqt6lrnns","ono","squirrel","21","female","yes","yes","6","1","287","<div style=""font-size:30px;"">Press space to start the trial</div>"," ","","","","","","",""
"","","","","","html-keyboard-response","372","2.0.0","360531","p5zqt6lrnns","ono","squirrel","21","female","yes","yes","6","1","null","<div style=""font-size:60px;"">+</div>","null","","","","","","",""
"","","","","","audio-keyboard-response","373","2.0.0","361067","p5zqt6lrnns","ono","squirrel","21","female","yes","yes","6","1","null","stimuli/sounds/hiccup_label_A.wav","null","","","","","","",""
"","","","","","html-keyboard-response","374","2.0.0","362085","p5zqt6lrnns","ono","squirrel","21","female","yes","yes","6","1","null","","null","","","","","","",""
"","","","","","image-keyboard-response","375","2.0.0","362714","p5zqt6lrnns","ono","squirrel","21","female","yes","yes","6","1","626","stimuli/pictures/cough_wom_2.jpg","0","0","","true","no","sound","stimuli/sounds/hiccup_label_A.wav",""
"","","","","","audio-keyboard-response","376","2.0.0","363726","p5zqt6lrnns","ono","squirrel","21","female","yes","yes","6","1","null","stimuli/sounds/bleep.wav","null","","","","","","",""
"","","","","","html-keyboard-response","377","2.0.0","364095","p5zqt6lrnns","ono","squirrel","21","female","yes","yes","6","1","267","<div style=""font-size:30px;"">Press space to start the trial</div>"," ","","","","","","",""
"","","","","","html-keyboard-response","378","2.0.0","364347","p5zqt6lrnns","ono","squirrel","21","female","yes","yes","6","1","null","<div style=""font-size:60px;"">+</div>","null","","","","","","",""
"","","","","","audio-keyboard-response","379","2.0.0","364943","p5zqt6lrnns","ono","squirrel","21","female","yes","yes","6","1","null","stimuli/sounds/motor_sound_A.wav","null","","","","","","",""
"","","","","","html-keyboard-response","380","2.0.0","365957","p5zqt6lrnns","ono","squirrel","21","female","yes","yes","6","1","null","","null","","","","","","",""
"","","","","","image-keyboard-response","381","2.0.0","366273","p5zqt6lrnns","ono","squirrel","21","female","yes","yes","6","1","316","stimuli/pictures/motor_dirt_1.jpg","1","1","","true","yes","sound","stimuli/sounds/motor_sound_A.wav",""
"","","","","","audio-keyboard-response","382","2.0.0","367286","p5zqt6lrnns","ono","squirrel","21","female","yes","yes","6","1","null","stimuli/sounds/bleep.wav","null","","","","","","",""
"","","","","","html-keyboard-response","383","2.0.0","367692","p5zqt6lrnns","ono","squirrel","21","female","yes","yes","6","1","297","<div style=""font-size:30px;"">Press space to start the trial</div>"," ","","","","","","",""
"","","","","","html-keyboard-response","384","2.0.0","367950","p5zqt6lrnns","ono","squirrel","21","female","yes","yes","6","1","null","<div style=""font-size:60px;"">+</div>","null","","","","","","",""
"","","","","","audio-keyboard-response","385","2.0.0","368543","p5zqt6lrnns","ono","squirrel","21","female","yes","yes","6","1","null","stimuli/sounds/motor_sound_B.wav","null","","","","","","",""
"","","","","","html-keyboard-response","386","2.0.0","369553","p5zqt6lrnns","ono","squirrel","21","female","yes","yes","6","1","null","","null","","","","","","",""
"","","","","","image-keyboard-response","387","2.0.0","370082","p5zqt6lrnns","ono","squirrel","21","female","yes","yes","6","1","528","stimuli/pictures/motor_harley_2.jpg","1","1","","true","yes","sound","stimuli/sounds/motor_sound_B.wav",""
"","","","","","audio-keyboard-response","388","2.0.0","371092","p5zqt6lrnns","ono","squirrel","21","female","yes","yes","6","1","null","stimuli/sounds/bleep.wav","null","","","","","","",""
"","","","","","html-keyboard-response","389","2.0.0","372212","p5zqt6lrnns","ono","squirrel","21","female","yes","yes","6","1","1015","<p>You have completed a block. Press R when you are ready to continue</p>","r","","","","","","",""
"","","","","","html-keyboard-response","390","2.0.0","372745","p5zqt6lrnns","ono","squirrel","21","female","yes","yes","6","1","531","<div style=""font-size:30px;"">Press space to start the trial</div>"," ","","","","","","",""
"","","","","","html-keyboard-response","391","2.0.0","373010","p5zqt6lrnns","ono","squirrel","21","female","yes","yes","6","1","null","<div style=""font-size:60px;"">+</div>","null","","","","","","",""
"","","","","","audio-keyboard-response","392","2.0.0","373607","p5zqt6lrnns","ono","squirrel","21","female","yes","yes","6","1","null","stimuli/sounds/dog_label_B.wav","null","","","","","","",""
"","","","","","html-keyboard-response","393","2.0.0","374622","p5zqt6lrnns","ono","squirrel","21","female","yes","yes","6","1","null","","null","","","","","","",""
"","","","","","image-keyboard-response","394","2.0.0","375036","p5zqt6lrnns","ono","squirrel","21","female","yes","yes","6","1","412","stimuli/pictures/cough_man_2.jpg","0","0","","true","no","sound","stimuli/sounds/dog_label_B.wav",""
"","","","","","audio-keyboard-response","395","2.0.0","376055","p5zqt6lrnns","ono","squirrel","21","female","yes","yes","6","1","null","stimuli/sounds/bleep.wav","null","","","","","","",""
"","","","","","html-keyboard-response","396","2.0.0","376584","p5zqt6lrnns","ono","squirrel","21","female","yes","yes","6","1","415","<div style=""font-size:30px;"">Press space to start the trial</div>"," ","","","","","","",""
"","","","","","html-keyboard-response","397","2.0.0","376839","p5zqt6lrnns","ono","squirrel","21","female","yes","yes","6","1","null","<div style=""font-size:60px;"">+</div>","null","","","","","","",""
"","","","","","audio-keyboard-response","398","2.0.0","377447","p5zqt6lrnns","ono","squirrel","21","female","yes","yes","6","1","null","stimuli/sounds/cough_label_B.wav","null","","","","","","",""
"","","","","","html-keyboard-response","399","2.0.0","378450","p5zqt6lrnns","ono","squirrel","21","female","yes","yes","6","1","null","","null","","","","","","",""
"","","","","","image-keyboard-response","400","2.0.0","378883","p5zqt6lrnns","ono","squirrel","21","female","yes","yes","6","1","431","stimuli/pictures/drop_single_1.jpg","0","0","","true","no","sound","stimuli/sounds/cough_label_B.wav",""
"","","","","","audio-keyboard-response","401","2.0.0","379899","p5zqt6lrnns","ono","squirrel","21","female","yes","yes","6","1","null","stimuli/sounds/bleep.wav","null","","","","","","",""
"","","","","","html-keyboard-response","402","2.0.0","380318","p5zqt6lrnns","ono","squirrel","21","female","yes","yes","6","1","305","<div style=""font-size:30px;"">Press space to start the trial</div>"," ","","","","","","",""
"","","","","","html-keyboard-response","403","2.0.0","380578","p5zqt6lrnns","ono","squirrel","21","female","yes","yes","6","1","null","<div style=""font-size:60px;"">+</div>","null","","","","","","",""
"","","","","","audio-keyboard-response","404","2.0.0","381179","p5zqt6lrnns","ono","squirrel","21","female","yes","yes","6","1","null","stimuli/sounds/dog_label_A.wav","null","","","","","","",""
"","","","","","html-keyboard-response","405","2.0.0","382187","p5zqt6lrnns","ono","squirrel","21","female","yes","yes","6","1","null","","null","","","","","","",""
"","","","","","image-keyboard-response","406","2.0.0","382626","p5zqt6lrnns","ono","squirrel","21","female","yes","yes","6","1","436","stimuli/pictures/dog_york_1.jpg","1","1","","true","yes","sound","stimuli/sounds/dog_label_A.wav",""
"","","","","","audio-keyboard-response","407","2.0.0","383629","p5zqt6lrnns","ono","squirrel","21","female","yes","yes","6","1","null","stimuli/sounds/bleep.wav","null","","","","","","",""
"","","","","","html-keyboard-response","408","2.0.0","384209","p5zqt6lrnns","ono","squirrel","21","female","yes","yes","6","1","466","<div style=""font-size:30px;"">Press space to start the trial</div>"," ","","","","","","",""
"","","","","","html-keyboard-response","409","2.0.0","384463","p5zqt6lrnns","ono","squirrel","21","female","yes","yes","6","1","null","<div style=""font-size:60px;"">+</div>","null","","","","","","",""
"","","","","","audio-keyboard-response","410","2.0.0","385055","p5zqt6lrnns","ono","squirrel","21","female","yes","yes","6","1","null","stimuli/sounds/motor_label_B.wav","null","","","","","","",""
"","","","","","html-keyboard-response","411","2.0.0","386074","p5zqt6lrnns","ono","squirrel","21","female","yes","yes","6","1","null","","null","","","","","","",""
"","","","","","image-keyboard-response","412","2.0.0","386535","p5zqt6lrnns","ono","squirrel","21","female","yes","yes","6","1","460","stimuli/pictures/hiccup_man_2.jpg","0","0","","true","no","sound","stimuli/sounds/motor_label_B.wav",""
"","","","","","audio-keyboard-response","413","2.0.0","387539","p5zqt6lrnns","ono","squirrel","21","female","yes","yes","6","1","null","stimuli/sounds/bleep.wav","null","","","","","","",""
"","","","","","html-keyboard-response","414","2.0.0","388001","p5zqt6lrnns","ono","squirrel","21","female","yes","yes","6","1","357","<div style=""font-size:30px;"">Press space to start the trial</div>"," ","","","","","","",""
"","","","","","html-keyboard-response","415","2.0.0","388256","p5zqt6lrnns","ono","squirrel","21","female","yes","yes","6","1","null","<div style=""font-size:60px;"">+</div>","null","","","","","","",""
"","","","","","audio-keyboard-response","416","2.0.0","388859","p5zqt6lrnns","ono","squirrel","21","female","yes","yes","6","1","null","stimuli/sounds/drop_sound_B.wav","null","","","","","","",""
"","","","","","html-keyboard-response","417","2.0.0","389861","p5zqt6lrnns","ono","squirrel","21","female","yes","yes","6","1","null","","null","","","","","","",""
"","","","","","image-keyboard-response","418","2.0.0","390262","p5zqt6lrnns","ono","squirrel","21","female","yes","yes","6","1","399","stimuli/pictures/dog_york_1.jpg","0","0","","true","no","sound","stimuli/sounds/drop_sound_B.wav",""
"","","","","","audio-keyboard-response","419","2.0.0","391266","p5zqt6lrnns","ono","squirrel","21","female","yes","yes","6","1","null","stimuli/sounds/bleep.wav","null","","","","","","",""
"","","","","","html-keyboard-response","420","2.0.0","391800","p5zqt6lrnns","ono","squirrel","21","female","yes","yes","6","1","420","<div style=""font-size:30px;"">Press space to start the trial</div>"," ","","","","","","",""
"","","","","","html-keyboard-response","421","2.0.0","392061","p5zqt6lrnns","ono","squirrel","21","female","yes","yes","6","1","null","<div style=""font-size:60px;"">+</div>","null","","","","","","",""
"","","","","","audio-keyboard-response","422","2.0.0","392639","p5zqt6lrnns","ono","squirrel","21","female","yes","yes","6","1","null","stimuli/sounds/drop_sound_A.wav","null","","","","","","",""
"","","","","","html-keyboard-response","423","2.0.0","393647","p5zqt6lrnns","ono","squirrel","21","female","yes","yes","6","1","null","","null","","","","","","",""
"","","","","","image-keyboard-response","424","2.0.0","394047","p5zqt6lrnns","ono","squirrel","21","female","yes","yes","6","1","399","stimuli/pictures/cough_wom_2.jpg","0","0","","true","no","sound","stimuli/sounds/drop_sound_A.wav",""
"","","","","","audio-keyboard-response","425","2.0.0","395066","p5zqt6lrnns","ono","squirrel","21","female","yes","yes","6","1","null","stimuli/sounds/bleep.wav","null","","","","","","",""
"","","","","","html-keyboard-response","426","2.0.0","395726","p5zqt6lrnns","ono","squirrel","21","female","yes","yes","6","1","554","<div style=""font-size:30px;"">Press space to start the trial</div>"," ","","","","","","",""
"","","","","","html-keyboard-response","427","2.0.0","395991","p5zqt6lrnns","ono","squirrel","21","female","yes","yes","6","1","null","<div style=""font-size:60px;"">+</div>","null","","","","","","",""
"","","","","","audio-keyboard-response","428","2.0.0","396587","p5zqt6lrnns","ono","squirrel","21","female","yes","yes","6","1","null","stimuli/sounds/motor_label_A.wav","null","","","","","","",""
"","","","","","html-keyboard-response","429","2.0.0","397599","p5zqt6lrnns","ono","squirrel","21","female","yes","yes","6","1","null","","null","","","","","","",""
"","","","","","image-keyboard-response","430","2.0.0","397941","p5zqt6lrnns","ono","squirrel","21","female","yes","yes","6","1","340","stimuli/pictures/motor_dirt_1.jpg","1","1","","true","yes","sound","stimuli/sounds/motor_label_A.wav",""
"","","","","","audio-keyboard-response","431","2.0.0","398946","p5zqt6lrnns","ono","squirrel","21","female","yes","yes","6","1","null","stimuli/sounds/bleep.wav","null","","","","","","",""
"","","","","","html-keyboard-response","432","2.0.0","399403","p5zqt6lrnns","ono","squirrel","21","female","yes","yes","6","1","344","<div style=""font-size:30px;"">Press space to start the trial</div>"," ","","","","","","",""
"","","","","","html-keyboard-response","433","2.0.0","399659","p5zqt6lrnns","ono","squirrel","21","female","yes","yes","6","1","null","<div style=""font-size:60px;"">+</div>","null","","","","","","",""
"","","","","","audio-keyboard-response","434","2.0.0","400271","p5zqt6lrnns","ono","squirrel","21","female","yes","yes","6","1","null","stimuli/sounds/hiccup_label_B.wav","null","","","","","","",""
"","","","","","html-keyboard-response","435","2.0.0","401288","p5zqt6lrnns","ono","squirrel","21","female","yes","yes","6","1","null","","null","","","","","","",""
"","","","","","image-keyboard-response","436","2.0.0","401830","p5zqt6lrnns","ono","squirrel","21","female","yes","yes","6","1","541","stimuli/pictures/dog_york_2.jpg","0","0","","true","no","sound","stimuli/sounds/hiccup_label_B.wav",""
"","","","","","audio-keyboard-response","437","2.0.0","402839","p5zqt6lrnns","ono","squirrel","21","female","yes","yes","6","1","null","stimuli/sounds/bleep.wav","null","","","","","","",""
"","","","","","html-keyboard-response","438","2.0.0","403350","p5zqt6lrnns","ono","squirrel","21","female","yes","yes","6","1","408","<div style=""font-size:30px;"">Press space to start the trial</div>"," ","","","","","","",""
"","","","","","html-keyboard-response","439","2.0.0","403614","p5zqt6lrnns","ono","squirrel","21","female","yes","yes","6","1","null","<div style=""font-size:60px;"">+</div>","null","","","","","","",""
"","","","","","audio-keyboard-response","440","2.0.0","404219","p5zqt6lrnns","ono","squirrel","21","female","yes","yes","6","1","null","stimuli/sounds/dog_sound_B.wav","null","","","","","","",""
"","","","","","html-keyboard-response","441","2.0.0","405224","p5zqt6lrnns","ono","squirrel","21","female","yes","yes","6","1","null","","null","","","","","","",""
"","","","","","image-keyboard-response","442","2.0.0","405710","p5zqt6lrnns","ono","squirrel","21","female","yes","yes","6","1","483","stimuli/pictures/motor_harley_2.jpg","0","0","","true","no","sound","stimuli/sounds/dog_sound_B.wav",""
"","","","","","audio-keyboard-response","443","2.0.0","406719","p5zqt6lrnns","ono","squirrel","21","female","yes","yes","6","1","null","stimuli/sounds/bleep.wav","null","","","","","","",""
"","","","","","html-keyboard-response","444","2.0.0","407164","p5zqt6lrnns","ono","squirrel","21","female","yes","yes","6","1","333","<div style=""font-size:30px;"">Press space to start the trial</div>"," ","","","","","","",""
"","","","","","html-keyboard-response","445","2.0.0","407425","p5zqt6lrnns","ono","squirrel","21","female","yes","yes","6","1","null","<div style=""font-size:60px;"">+</div>","null","","","","","","",""
"","","","","","audio-keyboard-response","446","2.0.0","408035","p5zqt6lrnns","ono","squirrel","21","female","yes","yes","6","1","null","stimuli/sounds/hiccup_sound_A.wav","null","","","","","","",""
"","","","","","html-keyboard-response","447","2.0.0","409043","p5zqt6lrnns","ono","squirrel","21","female","yes","yes","6","1","null","","null","","","","","","",""
"","","","","","image-keyboard-response","448","2.0.0","409439","p5zqt6lrnns","ono","squirrel","21","female","yes","yes","6","1","395","stimuli/pictures/motor_harley_1.jpg","0","0","","true","no","sound","stimuli/sounds/hiccup_sound_A.wav",""
"","","","","","audio-keyboard-response","449","2.0.0","410443","p5zqt6lrnns","ono","squirrel","21","female","yes","yes","6","1","null","stimuli/sounds/bleep.wav","null","","","","","","",""
"","","","","","html-keyboard-response","450","2.0.0","411069","p5zqt6lrnns","ono","squirrel","21","female","yes","yes","6","1","513","<div style=""font-size:30px;"">Press space to start the trial</div>"," ","","","","","","",""
"","","","","","html-keyboard-response","451","2.0.0","411324","p5zqt6lrnns","ono","squirrel","21","female","yes","yes","6","1","null","<div style=""font-size:60px;"">+</div>","null","","","","","","",""
"","","","","","audio-keyboard-response","452","2.0.0","411923","p5zqt6lrnns","ono","squirrel","21","female","yes","yes","6","1","null","stimuli/sounds/dog_label_B.wav","null","","","","","","",""
"","","","","","html-keyboard-response","453","2.0.0","412931","p5zqt6lrnns","ono","squirrel","21","female","yes","yes","6","1","null","","null","","","","","","",""
"","","","","","image-keyboard-response","454","2.0.0","413186","p5zqt6lrnns","ono","squirrel","21","female","yes","yes","6","1","253","stimuli/pictures/cough_wom_2.jpg","0","0","","true","no","sound","stimuli/sounds/dog_label_B.wav",""
"","","","","","audio-keyboard-response","455","2.0.0","414203","p5zqt6lrnns","ono","squirrel","21","female","yes","yes","6","1","null","stimuli/sounds/bleep.wav","null","","","","","","",""
"","","","","","html-keyboard-response","456","2.0.0","414553","p5zqt6lrnns","ono","squirrel","21","female","yes","yes","6","1","246","<div style=""font-size:30px;"">Press space to start the trial</div>"," ","","","","","","",""
"","","","","","html-keyboard-response","457","2.0.0","414819","p5zqt6lrnns","ono","squirrel","21","female","yes","yes","6","1","null","<div style=""font-size:60px;"">+</div>","null","","","","","","",""
"","","","","","audio-keyboard-response","458","2.0.0","415367","p5zqt6lrnns","ono","squirrel","21","female","yes","yes","6","1","null","stimuli/sounds/drop_label_A.wav","null","","","","","","",""
"","","","","","html-keyboard-response","459","2.0.0","416383","p5zqt6lrnns","ono","squirrel","21","female","yes","yes","6","1","null","","null","","","","","","",""
"","","","","","image-keyboard-response","460","2.0.0","416739","p5zqt6lrnns","ono","squirrel","21","female","yes","yes","6","1","354","stimuli/pictures/hiccup_man_1.jpg","0","0","","true","no","sound","stimuli/sounds/drop_label_A.wav",""
"","","","","","audio-keyboard-response","461","2.0.0","417755","p5zqt6lrnns","ono","squirrel","21","female","yes","yes","6","1","null","stimuli/sounds/bleep.wav","null","","","","","","",""
"","","","","","html-keyboard-response","462","2.0.0","418124","p5zqt6lrnns","ono","squirrel","21","female","yes","yes","6","1","256","<div style=""font-size:30px;"">Press space to start the trial</div>"," ","","","","","","",""
"","","","","","html-keyboard-response","463","2.0.0","418385","p5zqt6lrnns","ono","squirrel","21","female","yes","yes","6","1","null","<div style=""font-size:60px;"">+</div>","null","","","","","","",""
"","","","","","audio-keyboard-response","464","2.0.0","419015","p5zqt6lrnns","ono","squirrel","21","female","yes","yes","6","1","null","stimuli/sounds/cough_label_A.wav","null","","","","","","",""
"","","","","","html-keyboard-response","465","2.0.0","420018","p5zqt6lrnns","ono","squirrel","21","female","yes","yes","6","1","null","","null","","","","","","",""
"","","","","","image-keyboard-response","466","2.0.0","420556","p5zqt6lrnns","ono","squirrel","21","female","yes","yes","6","1","535","stimuli/pictures/motor_harley_1.jpg","0","0","","true","no","sound","stimuli/sounds/cough_label_A.wav",""
"","","","","","audio-keyboard-response","467","2.0.0","421559","p5zqt6lrnns","ono","squirrel","21","female","yes","yes","6","1","null","stimuli/sounds/bleep.wav","null","","","","","","",""
"","","","","","html-keyboard-response","468","2.0.0","421898","p5zqt6lrnns","ono","squirrel","21","female","yes","yes","6","1","234","<div style=""font-size:30px;"">Press space to start the trial</div>"," ","","","","","","",""
"","","","","","html-keyboard-response","469","2.0.0","422151","p5zqt6lrnns","ono","squirrel","21","female","yes","yes","6","1","null","<div style=""font-size:60px;"">+</div>","null","","","","","","",""
"","","","","","audio-keyboard-response","470","2.0.0","422819","p5zqt6lrnns","ono","squirrel","21","female","yes","yes","6","1","null","stimuli/sounds/cough_sound_A.wav","null","","","","","","",""
"","","","","","html-keyboard-response","471","2.0.0","423822","p5zqt6lrnns","ono","squirrel","21","female","yes","yes","6","1","null","","null","","","","","","",""
"","","","","","image-keyboard-response","472","2.0.0","424457","p5zqt6lrnns","ono","squirrel","21","female","yes","yes","6","1","634","stimuli/pictures/dog_york_1.jpg","0","0","","true","no","sound","stimuli/sounds/cough_sound_A.wav",""
"","","","","","audio-keyboard-response","473","2.0.0","425461","p5zqt6lrnns","ono","squirrel","21","female","yes","yes","6","1","null","stimuli/sounds/bleep.wav","null","","","","","","",""
"","","","","","html-keyboard-response","474","2.0.0","426072","p5zqt6lrnns","ono","squirrel","21","female","yes","yes","6","1","498","<div style=""font-size:30px;"">Press space to start the trial</div>"," ","","","","","","",""
"","","","","","html-keyboard-response","475","2.0.0","426331","p5zqt6lrnns","ono","squirrel","21","female","yes","yes","6","1","null","<div style=""font-size:60px;"">+</div>","null","","","","","","",""
"","","","","","audio-keyboard-response","476","2.0.0","426923","p5zqt6lrnns","ono","squirrel","21","female","yes","yes","6","1","null","stimuli/sounds/dog_label_B.wav","null","","","","","","",""
"","","","","","html-keyboard-response","477","2.0.0","427932","p5zqt6lrnns","ono","squirrel","21","female","yes","yes","6","1","null","","null","","","","","","",""
"","","","","","image-keyboard-response","478","2.0.0","428444","p5zqt6lrnns","ono","squirrel","21","female","yes","yes","6","1","510","stimuli/pictures/dog_rott_2.jpg","1","1","","true","yes","sound","stimuli/sounds/dog_label_B.wav",""
"","","","","","audio-keyboard-response","479","2.0.0","429455","p5zqt6lrnns","ono","squirrel","21","female","yes","yes","6","1","null","stimuli/sounds/bleep.wav","null","","","","","","",""
"","","","","","html-keyboard-response","480","2.0.0","429895","p5zqt6lrnns","ono","squirrel","21","female","yes","yes","6","1","336","<div style=""font-size:30px;"">Press space to start the trial</div>"," ","","","","","","",""
"","","","","","html-keyboard-response","481","2.0.0","430155","p5zqt6lrnns","ono","squirrel","21","female","yes","yes","6","1","null","<div style=""font-size:60px;"">+</div>","null","","","","","","",""
