"success","timeout","failed_images","failed_audio","failed_video","trial_type","trial_index","plugin_version","time_elapsed","random_id","condition","participant","age","gender_id","mus_exp","inst_exp","years_exp","mus_listening","rt","stimulus","response","correct_response","practice","correct","congruent","sound_type","audio","question_order"
"true","false","[]","[]","[]","preload","0","2.0.0","942","p6ouux4lny9","ono","tiger","22","female ","no","no","0","4 hours per day","","","","","","","","","",""
"","","","","","html-keyboard-response","1","2.0.0","2205","p6ouux4lny9","ono","tiger","22","female ","no","no","0","4 hours per day","1261","Welcome to the experiment! Press any key to begin."," ","","","","","","",""
"true","","","","","fullscreen","2","null","5443","p6ouux4lny9","ono","tiger","22","female ","no","no","0","4 hours per day","2231","","","","","","","","",""
"","","","","","survey-text","3","2.0.0","8708","p6ouux4lny9","ono","tiger","22","female ","no","no","0","4 hours per day","3252","","{""participant_id"":""tiger""}","","","","","","",""
"","","","","","html-keyboard-response","4","2.0.0","146803","p6ouux4lny9","ono","tiger","22","female ","no","no","0","4 hours per day","138088","
    <p> Please use headphones for the duration of the study.</p>
    <p> Within each trial, you will hear a sound and then be presented with an image in the center of your screen.</p>
    <p>Press the <b>'1'</b> key if what you hear <u>matches</u> what you see.</p>
    <p>Press the <b>'0'</b> key if what you hear <u>does not match</u> what you see.</p>
    <p>Try to respond as quickly and accurately as you can.</p>
    <p> Press any key to begin.</p>
    "," ","","","","","","",""
"","","","","","html-keyboard-response","5","2.0.0","149719","p6ouux4lny9","ono","tiger","22","female ","no","no","0","4 hours per day","2915","
    <div style=""font-size:28px;"">
      <p>You will now complete 4 short practice trials.</p>
      <p>This is just to help you get familiar with the task.</p>
      <p>Press any key to begin.</p>
    </div>
  "," ","","","","","","",""
"","","","","","html-keyboard-response","6","2.0.0","150220","p6ouux4lny9","ono","tiger","22","female ","no","no","0","4 hours per day","null","<div style=""font-size:60px;"">+</div>","null","","","","","","",""
"","","","","","audio-keyboard-response","7","2.0.0","150911","p6ouux4lny9","ono","tiger","22","female ","no","no","0","4 hours per day","null","stimuli/sounds/guitar_label_A.wav","null","","","","","","",""
"","","","","","image-keyboard-response","8","2.0.0","152490","p6ouux4lny9","ono","tiger","22","female ","no","no","0","4 hours per day","1565","stimuli/pictures/guitar_acoustic_1.jpg","1","1","true","true","","","",""
"","","","","","audio-keyboard-response","9","2.0.0","153298","p6ouux4lny9","ono","tiger","22","female ","no","no","0","4 hours per day","null","stimuli/sounds/bleep.wav","null","","","","","","",""
"","","","","","html-keyboard-response","10","2.0.0","154000","p6ouux4lny9","ono","tiger","22","female ","no","no","0","4 hours per day","null","<p style='color:green; font-size:30px;'>Correct!</p>","null","","","","","","",""
"","","","","","html-keyboard-response","11","2.0.0","154504","p6ouux4lny9","ono","tiger","22","female ","no","no","0","4 hours per day","null","<div style=""font-size:60px;"">+</div>","null","","","","","","",""
"","","","","","audio-keyboard-response","12","2.0.0","155109","p6ouux4lny9","ono","tiger","22","female ","no","no","0","4 hours per day","null","stimuli/sounds/guitar_sound_B.wav","null","","","","","","",""
"","","","","","image-keyboard-response","13","2.0.0","155690","p6ouux4lny9","ono","tiger","22","female ","no","no","0","4 hours per day","580","stimuli/pictures/guitar_acoustic_2.jpg","1","1","true","true","","","",""
"","","","","","audio-keyboard-response","14","2.0.0","156492","p6ouux4lny9","ono","tiger","22","female ","no","no","0","4 hours per day","null","stimuli/sounds/bleep.wav","null","","","","","","",""
"","","","","","html-keyboard-response","15","2.0.0","157194","p6ouux4lny9","ono","tiger","22","female ","no","no","0","4 hours per day","null","<p style='color:green; font-size:30px;'>Correct!</p>","null","","","","","","",""
"","","","","","html-keyboard-response","16","2.0.0","157697","p6ouux4lny9","ono","tiger","22","female ","no","no","0","4 hours per day","null","<div style=""font-size:60px;"">+</div>","null","","","","","","",""
"","","","","","audio-keyboard-response","17","2.0.0","158301","p6ouux4lny9","ono","tiger","22","female ","no","no","0","4 hours per day","null","stimuli/sounds/flute_sound_A.wav","null","","","","","","",""
"","","","","","image-keyboard-response","18","2.0.0","159649","p6ouux4lny9","ono","tiger","22","female ","no","no","0","4 hours per day","1346","stimuli/pictures/guitar_electric_1.jpg","0","0","true","true","","","",""
"","","","","","audio-keyboard-response","19","2.0.0","160451","p6ouux4lny9","ono","tiger","22","female ","no","no","0","4 hours per day","null","stimuli/sounds/bleep.wav","null","","","","","","",""
"","","","","","html-keyboard-response","20","2.0.0","161153","p6ouux4lny9","ono","tiger","22","female ","no","no","0","4 hours per day","null","<p style='color:green; font-size:30px;'>Correct!</p>","null","","","","","","",""
"","","","","","html-keyboard-response","21","2.0.0","161655","p6ouux4lny9","ono","tiger","22","female ","no","no","0","4 hours per day","null","<div style=""font-size:60px;"">+</div>","null","","","","","","",""
"","","","","","audio-keyboard-response","22","2.0.0","162259","p6ouux4lny9","ono","tiger","22","female ","no","no","0","4 hours per day","null","stimuli/sounds/guitar_sound_A.wav","null","","","","","","",""
"","","","","","image-keyboard-response","23","2.0.0","163081","p6ouux4lny9","ono","tiger","22","female ","no","no","0","4 hours per day","820","stimuli/pictures/guitar_acoustic_1.jpg","0","1","true","false","","","",""
"","","","","","audio-keyboard-response","24","2.0.0","163883","p6ouux4lny9","ono","tiger","22","female ","no","no","0","4 hours per day","null","stimuli/sounds/buzz.wav","null","","","","","","",""
"","","","","","html-keyboard-response","25","2.0.0","164585","p6ouux4lny9","ono","tiger","22","female ","no","no","0","4 hours per day","null","<p style='color:red; font-size:30px;'>Incorrect</p>","null","","","","","","",""
"","","","","","html-keyboard-response","26","2.0.0","171859","p6ouux4lny9","ono","tiger","22","female ","no","no","0","4 hours per day","7273","<p>Practice complete. Press any key to begin the real experiment.</p>"," ","","","","","","",""
"","","","","","html-keyboard-response","27","2.0.0","182364","p6ouux4lny9","ono","tiger","22","female ","no","no","0","4 hours per day","10504","<div style=""font-size:30px;"">Press space to start the trial</div>"," ","","","","","","",""
"","","","","","html-keyboard-response","28","2.0.0","182616","p6ouux4lny9","ono","tiger","22","female ","no","no","0","4 hours per day","null","<div style=""font-size:60px;"">+</div>","null","","","","","","",""
"","","","","","audio-keyboard-response","29","2.0.0","183215","p6ouux4lny9","ono","tiger","22","female ","no","no","0","4 hours per day","null","stimuli/sounds/dog_sound_A.wav","null","","","","","","",""
"","","","","","html-keyboard-response","30","2.0.0","184216","p6ouux4lny9","ono","tiger","22","female ","no","no","0","4 hours per day","null","","null","","","","","","",""
"","","","","","image-keyboard-response","31","2.0.0","185345","p6ouux4lny9","ono","tiger","22","female ","no","no","0","4 hours per day","1128","stimuli/pictures/dog_york_1.jpg","0","1","","false","no","sound","stimuli/sounds/dog_sound_A.wav",""
"","","","","","audio-keyboard-response","32","2.0.0","186347","p6ouux4lny9","ono","tiger","22","female ","no","no","0","4 hours per day","null","stimuli/sounds/buzz.wav","null","","","","","","",""
"","","","","","html-keyboard-response","33","2.0.0","190783","p6ouux4lny9","ono","tiger","22","female ","no","no","0","4 hours per day","4334","<div style=""font-size:30px;"">Press space to start the trial</div>"," ","","","","","","",""
"","","","","","html-keyboard-response","34","2.0.0","191035","p6ouux4lny9","ono","tiger","22","female ","no","no","0","4 hours per day","null","<div style=""font-size:60px;"">+</div>","null","","","","","","",""
"","","","","","audio-keyboard-response","35","2.0.0","191639","p6ouux4lny9","ono","tiger","22","female ","no","no","0","4 hours per day","null","stimuli/sounds/hiccup_sound_B.wav","null","","","","","","",""
"","","","","","html-keyboard-response","36","2.0.0","192641","p6ouux4lny9","ono","tiger","22","female ","no","no","0","4 hours per day","null","","null","","","","","","",""
"","","","","","image-keyboard-response","37","2.0.0","193608","p6ouux4lny9","ono","tiger","22","female ","no","no","0","4 hours per day","966","stimuli/pictures/hiccup_wom_2.jpg","1","1","","true","no","sound","stimuli/sounds/hiccup_sound_B.wav",""
"","","","","","audio-keyboard-response","38","2.0.0","194611","p6ouux4lny9","ono","tiger","22","female ","no","no","0","4 hours per day","null","stimuli/sounds/bleep.wav","null","","","","","","",""
"","","","","","html-keyboard-response","39","2.0.0","197814","p6ouux4lny9","ono","tiger","22","female ","no","no","0","4 hours per day","3101","<div style=""font-size:30px;"">Press space to start the trial</div>"," ","","","","","","",""
"","","","","","html-keyboard-response","40","2.0.0","198066","p6ouux4lny9","ono","tiger","22","female ","no","no","0","4 hours per day","null","<div style=""font-size:60px;"">+</div>","null","","","","","","",""
"","","","","","audio-keyboard-response","41","2.0.0","198674","p6ouux4lny9","ono","tiger","22","female ","no","no","0","4 hours per day","null","stimuli/sounds/hiccup_label_B.wav","null","","","","","","",""
"","","","","","html-keyboard-response","42","2.0.0","199676","p6ouux4lny9","ono","tiger","22","female ","no","no","0","4 hours per day","null","","null","","","","","","",""
"","","","","","image-keyboard-response","43","2.0.0","200314","p6ouux4lny9","ono","tiger","22","female ","no","no","0","4 hours per day","637","stimuli/pictures/hiccup_wom_2.jpg","1","1","","true","yes","sound","stimuli/sounds/hiccup_label_B.wav",""
"","","","","","audio-keyboard-response","44","2.0.0","201317","p6ouux4lny9","ono","tiger","22","female ","no","no","0","4 hours per day","null","stimuli/sounds/bleep.wav","null","","","","","","",""
"","","","","","html-keyboard-response","45","2.0.0","202883","p6ouux4lny9","ono","tiger","22","female ","no","no","0","4 hours per day","1464","<div style=""font-size:30px;"">Press space to start the trial</div>"," ","","","","","","",""
"","","","","","html-keyboard-response","46","2.0.0","203135","p6ouux4lny9","ono","tiger","22","female ","no","no","0","4 hours per day","null","<div style=""font-size:60px;"">+</div>","null","","","","","","",""
"","","","","","audio-keyboard-response","47","2.0.0","203736","p6ouux4lny9","ono","tiger","22","female ","no","no","0","4 hours per day","null","stimuli/sounds/dog_label_A.wav","null","","","","","","",""
"","","","","","html-keyboard-response","48","2.0.0","204738","p6ouux4lny9","ono","tiger","22","female ","no","no","0","4 hours per day","null","","null","","","","","","",""
"","","","","","image-keyboard-response","49","2.0.0","205253","p6ouux4lny9","ono","tiger","22","female ","no","no","0","4 hours per day","514","stimuli/pictures/dog_york_1.jpg","1","1","","true","yes","sound","stimuli/sounds/dog_label_A.wav",""
"","","","","","audio-keyboard-response","50","2.0.0","206255","p6ouux4lny9","ono","tiger","22","female ","no","no","0","4 hours per day","null","stimuli/sounds/bleep.wav","null","","","","","","",""
"","","","","","html-keyboard-response","51","2.0.0","207385","p6ouux4lny9","ono","tiger","22","female ","no","no","0","4 hours per day","1028","<div style=""font-size:30px;"">Press space to start the trial</div>"," ","","","","","","",""
"","","","","","html-keyboard-response","52","2.0.0","207636","p6ouux4lny9","ono","tiger","22","female ","no","no","0","4 hours per day","null","<div style=""font-size:60px;"">+</div>","null","","","","","","",""
"","","","","","audio-keyboard-response","53","2.0.0","208241","p6ouux4lny9","ono","tiger","22","female ","no","no","0","4 hours per day","null","stimuli/sounds/motor_label_B.wav","null","","","","","","",""
"","","","","","html-keyboard-response","54","2.0.0","209242","p6ouux4lny9","ono","tiger","22","female ","no","no","0","4 hours per day","null","","null","","","","","","",""
"","","","","","image-keyboard-response","55","2.0.0","209967","p6ouux4lny9","ono","tiger","22","female ","no","no","0","4 hours per day","723","stimuli/pictures/motor_dirt_2.jpg","1","1","","true","yes","sound","stimuli/sounds/motor_label_B.wav",""
"","","","","","audio-keyboard-response","56","2.0.0","210969","p6ouux4lny9","ono","tiger","22","female ","no","no","0","4 hours per day","null","stimuli/sounds/bleep.wav","null","","","","","","",""
"","","","","","html-keyboard-response","57","2.0.0","212285","p6ouux4lny9","ono","tiger","22","female ","no","no","0","4 hours per day","1213","<div style=""font-size:30px;"">Press space to start the trial</div>"," ","","","","","","",""
"","","","","","html-keyboard-response","58","2.0.0","212537","p6ouux4lny9","ono","tiger","22","female ","no","no","0","4 hours per day","null","<div style=""font-size:60px;"">+</div>","null","","","","","","",""
"","","","","","audio-keyboard-response","59","2.0.0","213204","p6ouux4lny9","ono","tiger","22","female ","no","no","0","4 hours per day","null","stimuli/sounds/cough_sound_A.wav","null","","","","","","",""
"","","","","","html-keyboard-response","60","2.0.0","214205","p6ouux4lny9","ono","tiger","22","female ","no","no","0","4 hours per day","null","","null","","","","","","",""
"","","","","","image-keyboard-response","61","2.0.0","214932","p6ouux4lny9","ono","tiger","22","female ","no","no","0","4 hours per day","725","stimuli/pictures/dog_rott_1.jpg","0","0","","true","no","sound","stimuli/sounds/cough_sound_A.wav",""
"","","","","","audio-keyboard-response","62","2.0.0","215935","p6ouux4lny9","ono","tiger","22","female ","no","no","0","4 hours per day","null","stimuli/sounds/bleep.wav","null","","","","","","",""
"","","","","","html-keyboard-response","63","2.0.0","218521","p6ouux4lny9","ono","tiger","22","female ","no","no","0","4 hours per day","2485","<div style=""font-size:30px;"">Press space to start the trial</div>"," ","","","","","","",""
"","","","","","html-keyboard-response","64","2.0.0","218773","p6ouux4lny9","ono","tiger","22","female ","no","no","0","4 hours per day","null","<div style=""font-size:60px;"">+</div>","null","","","","","","",""
"","","","","","audio-keyboard-response","65","2.0.0","219357","p6ouux4lny9","ono","tiger","22","female ","no","no","0","4 hours per day","null","stimuli/sounds/drop_sound_A.wav","null","","","","","","",""
"","","","","","html-keyboard-response","66","2.0.0","220359","p6ouux4lny9","ono","tiger","22","female ","no","no","0","4 hours per day","null","","null","","","","","","",""
"","","","","","image-keyboard-response","67","2.0.0","220854","p6ouux4lny9","ono","tiger","22","female ","no","no","0","4 hours per day","493","stimuli/pictures/drop_single_2.jpg","1","1","","true","yes","sound","stimuli/sounds/drop_sound_A.wav",""
"","","","","","audio-keyboard-response","68","2.0.0","221856","p6ouux4lny9","ono","tiger","22","female ","no","no","0","4 hours per day","null","stimuli/sounds/bleep.wav","null","","","","","","",""
"","","","","","html-keyboard-response","69","2.0.0","222711","p6ouux4lny9","ono","tiger","22","female ","no","no","0","4 hours per day","754","<div style=""font-size:30px;"">Press space to start the trial</div>"," ","","","","","","",""
"","","","","","html-keyboard-response","70","2.0.0","222962","p6ouux4lny9","ono","tiger","22","female ","no","no","0","4 hours per day","null","<div style=""font-size:60px;"">+</div>","null","","","","","","",""
"","","","","","audio-keyboard-response","71","2.0.0","223595","p6ouux4lny9","ono","tiger","22","female ","no","no","0","4 hours per day","null","stimuli/sounds/cough_label_A.wav","null","","","","","","",""
"","","","","","html-keyboard-response","72","2.0.0","224598","p6ouux4lny9","ono","tiger","22","female ","no","no","0","4 hours per day","null","","null","","","","","","",""
"","","","","","image-keyboard-response","73","2.0.0","225147","p6ouux4lny9","ono","tiger","22","female ","no","no","0","4 hours per day","548","stimuli/pictures/cough_wom_2.jpg","1","1","","true","yes","sound","stimuli/sounds/cough_label_A.wav",""
"","","","","","audio-keyboard-response","74","2.0.0","226149","p6ouux4lny9","ono","tiger","22","female ","no","no","0","4 hours per day","null","stimuli/sounds/bleep.wav","null","","","","","","",""
"","","","","","html-keyboard-response","75","2.0.0","226769","p6ouux4lny9","ono","tiger","22","female ","no","no","0","4 hours per day","517","<div style=""font-size:30px;"">Press space to start the trial</div>"," ","","","","","","",""
"","","","","","html-keyboard-response","76","2.0.0","227022","p6ouux4lny9","ono","tiger","22","female ","no","no","0","4 hours per day","null","<div style=""font-size:60px;"">+</div>","null","","","","","","",""
"","","","","","audio-keyboard-response","77","2.0.0","227630","p6ouux4lny9","ono","tiger","22","female ","no","no","0","4 hours per day","null","stimuli/sounds/cough_label_B.wav","null","","","","","","",""
"","","","","","html-keyboard-response","78","2.0.0","228632","p6ouux4lny9","ono","tiger","22","female ","no","no","0","4 hours per day","null","","null","","","","","","",""
"","","","","","image-keyboard-response","79","2.0.0","229249","p6ouux4lny9","ono","tiger","22","female ","no","no","0","4 hours per day","616","stimuli/pictures/cough_man_1.jpg","1","1","","true","yes","sound","stimuli/sounds/cough_label_B.wav",""
"","","","","","audio-keyboard-response","80","2.0.0","230252","p6ouux4lny9","ono","tiger","22","female ","no","no","0","4 hours per day","null","stimuli/sounds/bleep.wav","null","","","","","","",""
"","","","","","html-keyboard-response","81","2.0.0","231032","p6ouux4lny9","ono","tiger","22","female ","no","no","0","4 hours per day","677","<div style=""font-size:30px;"">Press space to start the trial</div>"," ","","","","","","",""
"","","","","","html-keyboard-response","82","2.0.0","231284","p6ouux4lny9","ono","tiger","22","female ","no","no","0","4 hours per day","null","<div style=""font-size:60px;"">+</div>","null","","","","","","",""
"","","","","","audio-keyboard-response","83","2.0.0","231891","p6ouux4lny9","ono","tiger","22","female ","no","no","0","4 hours per day","null","stimuli/sounds/hiccup_label_B.wav","null","","","","","","",""
"","","","","","html-keyboard-response","84","2.0.0","232892","p6ouux4lny9","ono","tiger","22","female ","no","no","0","4 hours per day","null","","null","","","","","","",""
"","","","","","image-keyboard-response","85","2.0.0","233371","p6ouux4lny9","ono","tiger","22","female ","no","no","0","4 hours per day","477","stimuli/pictures/dog_rott_1.jpg","0","0","","true","no","sound","stimuli/sounds/hiccup_label_B.wav",""
"","","","","","audio-keyboard-response","86","2.0.0","234372","p6ouux4lny9","ono","tiger","22","female ","no","no","0","4 hours per day","null","stimuli/sounds/bleep.wav","null","","","","","","",""
"","","","","","html-keyboard-response","87","2.0.0","235589","p6ouux4lny9","ono","tiger","22","female ","no","no","0","4 hours per day","1116","<div style=""font-size:30px;"">Press space to start the trial</div>"," ","","","","","","",""
"","","","","","html-keyboard-response","88","2.0.0","235841","p6ouux4lny9","ono","tiger","22","female ","no","no","0","4 hours per day","null","<div style=""font-size:60px;"">+</div>","null","","","","","","",""
"","","","","","audio-keyboard-response","89","2.0.0","236442","p6ouux4lny9","ono","tiger","22","female ","no","no","0","4 hours per day","null","stimuli/sounds/hiccup_sound_A.wav","null","","","","","","",""
"","","","","","html-keyboard-response","90","2.0.0","237443","p6ouux4lny9","ono","tiger","22","female ","no","no","0","4 hours per day","null","","null","","","","","","",""
"","","","","","image-keyboard-response","91","2.0.0","237961","p6ouux4lny9","ono","tiger","22","female ","no","no","0","4 hours per day","516","stimuli/pictures/motor_harley_1.jpg","0","0","","true","no","sound","stimuli/sounds/hiccup_sound_A.wav",""
"","","","","","audio-keyboard-response","92","2.0.0","238964","p6ouux4lny9","ono","tiger","22","female ","no","no","0","4 hours per day","null","stimuli/sounds/bleep.wav","null","","","","","","",""
"","","","","","html-keyboard-response","93","2.0.0","239710","p6ouux4lny9","ono","tiger","22","female ","no","no","0","4 hours per day","644","<div style=""font-size:30px;"">Press space to start the trial</div>"," ","","","","","","",""
"","","","","","html-keyboard-response","94","2.0.0","239962","p6ouux4lny9","ono","tiger","22","female ","no","no","0","4 hours per day","null","<div style=""font-size:60px;"">+</div>","null","","","","","","",""
"","","","","","audio-keyboard-response","95","2.0.0","240545","p6ouux4lny9","ono","tiger","22","female ","no","no","0","4 hours per day","null","stimuli/sounds/drop_sound_A.wav","null","","","","","","",""
"","","","","","html-keyboard-response","96","2.0.0","241547","p6ouux4lny9","ono","tiger","22","female ","no","no","0","4 hours per day","null","","null","","","","","","",""
"","","","","","image-keyboard-response","97","2.0.0","242208","p6ouux4lny9","ono","tiger","22","female ","no","no","0","4 hours per day","659","stimuli/pictures/cough_wom_1.jpg","0","0","","true","no","sound","stimuli/sounds/drop_sound_A.wav",""
"","","","","","audio-keyboard-response","98","2.0.0","243210","p6ouux4lny9","ono","tiger","22","female ","no","no","0","4 hours per day","null","stimuli/sounds/bleep.wav","null","","","","","","",""
"","","","","","html-keyboard-response","99","2.0.0","243850","p6ouux4lny9","ono","tiger","22","female ","no","no","0","4 hours per day","539","<div style=""font-size:30px;"">Press space to start the trial</div>"," ","","","","","","",""
"","","","","","html-keyboard-response","100","2.0.0","244101","p6ouux4lny9","ono","tiger","22","female ","no","no","0","4 hours per day","null","<div style=""font-size:60px;"">+</div>","null","","","","","","",""
"","","","","","audio-keyboard-response","101","2.0.0","244702","p6ouux4lny9","ono","tiger","22","female ","no","no","0","4 hours per day","null","stimuli/sounds/motor_label_B.wav","null","","","","","","",""
"","","","","","html-keyboard-response","102","2.0.0","245704","p6ouux4lny9","ono","tiger","22","female ","no","no","0","4 hours per day","null","","null","","","","","","",""
"","","","","","image-keyboard-response","103","2.0.0","246180","p6ouux4lny9","ono","tiger","22","female ","no","no","0","4 hours per day","475","stimuli/pictures/motor_dirt_1.jpg","1","1","","true","yes","sound","stimuli/sounds/motor_label_B.wav",""
"","","","","","audio-keyboard-response","104","2.0.0","247181","p6ouux4lny9","ono","tiger","22","female ","no","no","0","4 hours per day","null","stimuli/sounds/bleep.wav","null","","","","","","",""
"","","","","","html-keyboard-response","105","2.0.0","247897","p6ouux4lny9","ono","tiger","22","female ","no","no","0","4 hours per day","614","<div style=""font-size:30px;"">Press space to start the trial</div>"," ","","","","","","",""
"","","","","","html-keyboard-response","106","2.0.0","248150","p6ouux4lny9","ono","tiger","22","female ","no","no","0","4 hours per day","null","<div style=""font-size:60px;"">+</div>","null","","","","","","",""
"","","","","","audio-keyboard-response","107","2.0.0","248754","p6ouux4lny9","ono","tiger","22","female ","no","no","0","4 hours per day","null","stimuli/sounds/motor_label_A.wav","null","","","","","","",""
"","","","","","html-keyboard-response","108","2.0.0","249756","p6ouux4lny9","ono","tiger","22","female ","no","no","0","4 hours per day","null","","null","","","","","","",""
"","","","","","image-keyboard-response","109","2.0.0","250257","p6ouux4lny9","ono","tiger","22","female ","no","no","0","4 hours per day","500","stimuli/pictures/dog_rott_1.jpg","0","0","","true","no","sound","stimuli/sounds/motor_label_A.wav",""
"","","","","","audio-keyboard-response","110","2.0.0","251259","p6ouux4lny9","ono","tiger","22","female ","no","no","0","4 hours per day","null","stimuli/sounds/bleep.wav","null","","","","","","",""
"","","","","","html-keyboard-response","111","2.0.0","251893","p6ouux4lny9","ono","tiger","22","female ","no","no","0","4 hours per day","533","<div style=""font-size:30px;"">Press space to start the trial</div>"," ","","","","","","",""
"","","","","","html-keyboard-response","112","2.0.0","252144","p6ouux4lny9","ono","tiger","22","female ","no","no","0","4 hours per day","null","<div style=""font-size:60px;"">+</div>","null","","","","","","",""
"","","","","","audio-keyboard-response","113","2.0.0","252684","p6ouux4lny9","ono","tiger","22","female ","no","no","0","4 hours per day","null","stimuli/sounds/hiccup_label_A.wav","null","","","","","","",""
"","","","","","html-keyboard-response","114","2.0.0","253686","p6ouux4lny9","ono","tiger","22","female ","no","no","0","4 hours per day","null","","null","","","","","","",""
"","","","","","image-keyboard-response","115","2.0.0","254184","p6ouux4lny9","ono","tiger","22","female ","no","no","0","4 hours per day","498","stimuli/pictures/cough_wom_2.jpg","1","0","","false","no","sound","stimuli/sounds/hiccup_label_A.wav",""
"","","","","","audio-keyboard-response","116","2.0.0","255187","p6ouux4lny9","ono","tiger","22","female ","no","no","0","4 hours per day","null","stimuli/sounds/buzz.wav","null","","","","","","",""
"","","","","","html-keyboard-response","117","2.0.0","255664","p6ouux4lny9","ono","tiger","22","female ","no","no","0","4 hours per day","376","<div style=""font-size:30px;"">Press space to start the trial</div>"," ","","","","","","",""
"","","","","","html-keyboard-response","118","2.0.0","255916","p6ouux4lny9","ono","tiger","22","female ","no","no","0","4 hours per day","null","<div style=""font-size:60px;"">+</div>","null","","","","","","",""
"","","","","","audio-keyboard-response","119","2.0.0","256521","p6ouux4lny9","ono","tiger","22","female ","no","no","0","4 hours per day","null","stimuli/sounds/cough_label_B.wav","null","","","","","","",""
"","","","","","html-keyboard-response","120","2.0.0","257522","p6ouux4lny9","ono","tiger","22","female ","no","no","0","4 hours per day","null","","null","","","","","","",""
"","","","","","image-keyboard-response","121","2.0.0","257982","p6ouux4lny9","ono","tiger","22","female ","no","no","0","4 hours per day","460","stimuli/pictures/cough_wom_1.jpg","1","1","","true","yes","sound","stimuli/sounds/cough_label_B.wav",""
"","","","","","audio-keyboard-response","122","2.0.0","258984","p6ouux4lny9","ono","tiger","22","female ","no","no","0","4 hours per day","null","stimuli/sounds/bleep.wav","null","","","","","","",""
"","","","","","html-keyboard-response","123","2.0.0","260391","p6ouux4lny9","ono","tiger","22","female ","no","no","0","4 hours per day","1306","<div style=""font-size:30px;"">Press space to start the trial</div>"," ","","","","","","",""
"","","","","","html-keyboard-response","124","2.0.0","260643","p6ouux4lny9","ono","tiger","22","female ","no","no","0","4 hours per day","null","<div style=""font-size:60px;"">+</div>","null","","","","","","",""
"","","","","","audio-keyboard-response","125","2.0.0","261246","p6ouux4lny9","ono","tiger","22","female ","no","no","0","4 hours per day","null","stimuli/sounds/dog_label_B.wav","null","","","","","","",""
"","","","","","html-keyboard-response","126","2.0.0","262248","p6ouux4lny9","ono","tiger","22","female ","no","no","0","4 hours per day","null","","null","","","","","","",""
"","","","","","image-keyboard-response","127","2.0.0","262947","p6ouux4lny9","ono","tiger","22","female ","no","no","0","4 hours per day","699","stimuli/pictures/cough_wom_1.jpg","0","0","","true","no","sound","stimuli/sounds/dog_label_B.wav",""
"","","","","","audio-keyboard-response","128","2.0.0","263948","p6ouux4lny9","ono","tiger","22","female ","no","no","0","4 hours per day","null","stimuli/sounds/bleep.wav","null","","","","","","",""
"","","","","","html-keyboard-response","129","2.0.0","264760","p6ouux4lny9","ono","tiger","22","female ","no","no","0","4 hours per day","710","<div style=""font-size:30px;"">Press space to start the trial</div>"," ","","","","","","",""
"","","","","","html-keyboard-response","130","2.0.0","265011","p6ouux4lny9","ono","tiger","22","female ","no","no","0","4 hours per day","null","<div style=""font-size:60px;"">+</div>","null","","","","","","",""
"","","","","","audio-keyboard-response","131","2.0.0","265617","p6ouux4lny9","ono","tiger","22","female ","no","no","0","4 hours per day","null","stimuli/sounds/hiccup_label_B.wav","null","","","","","","",""
"","","","","","html-keyboard-response","132","2.0.0","266618","p6ouux4lny9","ono","tiger","22","female ","no","no","0","4 hours per day","null","","null","","","","","","",""
"","","","","","image-keyboard-response","133","2.0.0","267177","p6ouux4lny9","ono","tiger","22","female ","no","no","0","4 hours per day","558","stimuli/pictures/dog_rott_1.jpg","0","0","","true","no","sound","stimuli/sounds/hiccup_label_B.wav",""
"","","","","","audio-keyboard-response","134","2.0.0","268179","p6ouux4lny9","ono","tiger","22","female ","no","no","0","4 hours per day","null","stimuli/sounds/bleep.wav","null","","","","","","",""
"","","","","","html-keyboard-response","135","2.0.0","269020","p6ouux4lny9","ono","tiger","22","female ","no","no","0","4 hours per day","740","<div style=""font-size:30px;"">Press space to start the trial</div>"," ","","","","","","",""
"","","","","","html-keyboard-response","136","2.0.0","269272","p6ouux4lny9","ono","tiger","22","female ","no","no","0","4 hours per day","null","<div style=""font-size:60px;"">+</div>","null","","","","","","",""
"","","","","","audio-keyboard-response","137","2.0.0","269878","p6ouux4lny9","ono","tiger","22","female ","no","no","0","4 hours per day","null","stimuli/sounds/drop_label_B.wav","null","","","","","","",""
"","","","","","html-keyboard-response","138","2.0.0","270879","p6ouux4lny9","ono","tiger","22","female ","no","no","0","4 hours per day","null","","null","","","","","","",""
"","","","","","image-keyboard-response","139","2.0.0","271436","p6ouux4lny9","ono","tiger","22","female ","no","no","0","4 hours per day","556","stimuli/pictures/drop_single_2.jpg","1","1","","true","yes","sound","stimuli/sounds/drop_label_B.wav",""
"","","","","","audio-keyboard-response","140","2.0.0","272438","p6ouux4lny9","ono","tiger","22","female ","no","no","0","4 hours per day","null","stimuli/sounds/bleep.wav","null","","","","","","",""
"","","","","","html-keyboard-response","141","2.0.0","273085","p6ouux4lny9","ono","tiger","22","female ","no","no","0","4 hours per day","545","<div style=""font-size:30px;"">Press space to start the trial</div>"," ","","","","","","",""
"","","","","","html-keyboard-response","142","2.0.0","273336","p6ouux4lny9","ono","tiger","22","female ","no","no","0","4 hours per day","null","<div style=""font-size:60px;"">+</div>","null","","","","","","",""
"","","","","","audio-keyboard-response","143","2.0.0","274011","p6ouux4lny9","ono","tiger","22","female ","no","no","0","4 hours per day","null","stimuli/sounds/cough_sound_B.wav","null","","","","","","",""
"","","","","","html-keyboard-response","144","2.0.0","275012","p6ouux4lny9","ono","tiger","22","female ","no","no","0","4 hours per day","null","","null","","","","","","",""
"","","","","","image-keyboard-response","145","2.0.0","275510","p6ouux4lny9","ono","tiger","22","female ","no","no","0","4 hours per day","497","stimuli/pictures/cough_wom_1.jpg","1","1","","true","no","sound","stimuli/sounds/cough_sound_B.wav",""
"","","","","","audio-keyboard-response","146","2.0.0","276513","p6ouux4lny9","ono","tiger","22","female ","no","no","0","4 hours per day","null","stimuli/sounds/bleep.wav","null","","","","","","",""
"","","","","","html-keyboard-response","147","2.0.0","279677","p6ouux4lny9","ono","tiger","22","female ","no","no","0","4 hours per day","3062","<p>You have completed a block. Press R when you are ready to continue</p>","r","","","","","","",""
"","","","","","html-keyboard-response","148","2.0.0","280262","p6ouux4lny9","ono","tiger","22","female ","no","no","0","4 hours per day","584","<div style=""font-size:30px;"">Press space to start the trial</div>"," ","","","","","","",""
"","","","","","html-keyboard-response","149","2.0.0","280513","p6ouux4lny9","ono","tiger","22","female ","no","no","0","4 hours per day","null","<div style=""font-size:60px;"">+</div>","null","","","","","","",""
"","","","","","audio-keyboard-response","150","2.0.0","281065","p6ouux4lny9","ono","tiger","22","female ","no","no","0","4 hours per day","null","stimuli/sounds/drop_label_A.wav","null","","","","","","",""
"","","","","","html-keyboard-response","151","2.0.0","282066","p6ouux4lny9","ono","tiger","22","female ","no","no","0","4 hours per day","null","","null","","","","","","",""
"","","","","","image-keyboard-response","152","2.0.0","282727","p6ouux4lny9","ono","tiger","22","female ","no","no","0","4 hours per day","660","stimuli/pictures/hiccup_man_2.jpg","0","0","","true","no","sound","stimuli/sounds/drop_label_A.wav",""
"","","","","","audio-keyboard-response","153","2.0.0","283729","p6ouux4lny9","ono","tiger","22","female ","no","no","0","4 hours per day","null","stimuli/sounds/bleep.wav","null","","","","","","",""
"","","","","","html-keyboard-response","154","2.0.0","284577","p6ouux4lny9","ono","tiger","22","female ","no","no","0","4 hours per day","745","<div style=""font-size:30px;"">Press space to start the trial</div>"," ","","","","","","",""
"","","","","","html-keyboard-response","155","2.0.0","284829","p6ouux4lny9","ono","tiger","22","female ","no","no","0","4 hours per day","null","<div style=""font-size:60px;"">+</div>","null","","","","","","",""
"","","","","","audio-keyboard-response","156","2.0.0","285429","p6ouux4lny9","ono","tiger","22","female ","no","no","0","4 hours per day","null","stimuli/sounds/drop_sound_B.wav","null","","","","","","",""
"","","","","","html-keyboard-response","157","2.0.0","286431","p6ouux4lny9","ono","tiger","22","female ","no","no","0","4 hours per day","null","","null","","","","","","",""
"","","","","","image-keyboard-response","158","2.0.0","286938","p6ouux4lny9","ono","tiger","22","female ","no","no","0","4 hours per day","505","stimuli/pictures/dog_rott_1.jpg","0","0","","true","no","sound","stimuli/sounds/drop_sound_B.wav",""
"","","","","","audio-keyboard-response","159","2.0.0","287940","p6ouux4lny9","ono","tiger","22","female ","no","no","0","4 hours per day","null","stimuli/sounds/bleep.wav","null","","","","","","",""
"","","","","","html-keyboard-response","160","2.0.0","288976","p6ouux4lny9","ono","tiger","22","female ","no","no","0","4 hours per day","934","<div style=""font-size:30px;"">Press space to start the trial</div>"," ","","","","","","",""
"","","","","","html-keyboard-response","161","2.0.0","289227","p6ouux4lny9","ono","tiger","22","female ","no","no","0","4 hours per day","null","<div style=""font-size:60px;"">+</div>","null","","","","","","",""
"","","","","","audio-keyboard-response","162","2.0.0","289836","p6ouux4lny9","ono","tiger","22","female ","no","no","0","4 hours per day","null","stimuli/sounds/drop_label_B.wav","null","","","","","","",""
"","","","","","html-keyboard-response","163","2.0.0","290837","p6ouux4lny9","ono","tiger","22","female ","no","no","0","4 hours per day","null","","null","","","","","","",""
"","","","","","image-keyboard-response","164","2.0.0","291485","p6ouux4lny9","ono","tiger","22","female ","no","no","0","4 hours per day","647","stimuli/pictures/drop_multi_2.jpg","1","1","","true","yes","sound","stimuli/sounds/drop_label_B.wav",""
"","","","","","audio-keyboard-response","165","2.0.0","292487","p6ouux4lny9","ono","tiger","22","female ","no","no","0","4 hours per day","null","stimuli/sounds/bleep.wav","null","","","","","","",""
"","","","","","html-keyboard-response","166","2.0.0","293177","p6ouux4lny9","ono","tiger","22","female ","no","no","0","4 hours per day","587","<div style=""font-size:30px;"">Press space to start the trial</div>"," ","","","","","","",""
"","","","","","html-keyboard-response","167","2.0.0","293429","p6ouux4lny9","ono","tiger","22","female ","no","no","0","4 hours per day","null","<div style=""font-size:60px;"">+</div>","null","","","","","","",""
"","","","","","audio-keyboard-response","168","2.0.0","294033","p6ouux4lny9","ono","tiger","22","female ","no","no","0","4 hours per day","null","stimuli/sounds/dog_sound_B.wav","null","","","","","","",""
"","","","","","html-keyboard-response","169","2.0.0","295033","p6ouux4lny9","ono","tiger","22","female ","no","no","0","4 hours per day","null","","null","","","","","","",""
"","","","","","image-keyboard-response","170","2.0.0","295580","p6ouux4lny9","ono","tiger","22","female ","no","no","0","4 hours per day","545","stimuli/pictures/motor_dirt_2.jpg","0","0","","true","no","sound","stimuli/sounds/dog_sound_B.wav",""
"","","","","","audio-keyboard-response","171","2.0.0","296582","p6ouux4lny9","ono","tiger","22","female ","no","no","0","4 hours per day","null","stimuli/sounds/bleep.wav","null","","","","","","",""
"","","","","","html-keyboard-response","172","2.0.0","297298","p6ouux4lny9","ono","tiger","22","female ","no","no","0","4 hours per day","614","<div style=""font-size:30px;"">Press space to start the trial</div>"," ","","","","","","",""
"","","","","","html-keyboard-response","173","2.0.0","297549","p6ouux4lny9","ono","tiger","22","female ","no","no","0","4 hours per day","null","<div style=""font-size:60px;"">+</div>","null","","","","","","",""
"","","","","","audio-keyboard-response","174","2.0.0","298212","p6ouux4lny9","ono","tiger","22","female ","no","no","0","4 hours per day","null","stimuli/sounds/cough_sound_A.wav","null","","","","","","",""
"","","","","","html-keyboard-response","175","2.0.0","299213","p6ouux4lny9","ono","tiger","22","female ","no","no","0","4 hours per day","null","","null","","","","","","",""
"","","","","","image-keyboard-response","176","2.0.0","300115","p6ouux4lny9","ono","tiger","22","female ","no","no","0","4 hours per day","901","stimuli/pictures/cough_man_1.jpg","1","1","","true","no","sound","stimuli/sounds/cough_sound_A.wav",""
"","","","","","audio-keyboard-response","177","2.0.0","301117","p6ouux4lny9","ono","tiger","22","female ","no","no","0","4 hours per day","null","stimuli/sounds/bleep.wav","null","","","","","","",""
"","","","","","html-keyboard-response","178","2.0.0","301696","p6ouux4lny9","ono","tiger","22","female ","no","no","0","4 hours per day","476","<div style=""font-size:30px;"">Press space to start the trial</div>"," ","","","","","","",""
"","","","","","html-keyboard-response","179","2.0.0","301948","p6ouux4lny9","ono","tiger","22","female ","no","no","0","4 hours per day","null","<div style=""font-size:60px;"">+</div>","null","","","","","","",""
"","","","","","audio-keyboard-response","180","2.0.0","302531","p6ouux4lny9","ono","tiger","22","female ","no","no","0","4 hours per day","null","stimuli/sounds/drop_sound_A.wav","null","","","","","","",""
"","","","","","html-keyboard-response","181","2.0.0","303534","p6ouux4lny9","ono","tiger","22","female ","no","no","0","4 hours per day","null","","null","","","","","","",""
"","","","","","image-keyboard-response","182","2.0.0","304253","p6ouux4lny9","ono","tiger","22","female ","no","no","0","4 hours per day","719","stimuli/pictures/cough_man_1.jpg","0","0","","true","no","sound","stimuli/sounds/drop_sound_A.wav",""
"","","","","","audio-keyboard-response","183","2.0.0","305255","p6ouux4lny9","ono","tiger","22","female ","no","no","0","4 hours per day","null","stimuli/sounds/bleep.wav","null","","","","","","",""
"","","","","","html-keyboard-response","184","2.0.0","305984","p6ouux4lny9","ono","tiger","22","female ","no","no","0","4 hours per day","627","<div style=""font-size:30px;"">Press space to start the trial</div>"," ","","","","","","",""
"","","","","","html-keyboard-response","185","2.0.0","306236","p6ouux4lny9","ono","tiger","22","female ","no","no","0","4 hours per day","null","<div style=""font-size:60px;"">+</div>","null","","","","","","",""
"","","","","","audio-keyboard-response","186","2.0.0","306867","p6ouux4lny9","ono","tiger","22","female ","no","no","0","4 hours per day","null","stimuli/sounds/cough_label_A.wav","null","","","","","","",""
"","","","","","html-keyboard-response","187","2.0.0","307869","p6ouux4lny9","ono","tiger","22","female ","no","no","0","4 hours per day","null","","null","","","","","","",""
"","","","","","image-keyboard-response","188","2.0.0","308480","p6ouux4lny9","ono","tiger","22","female ","no","no","0","4 hours per day","610","stimuli/pictures/motor_harley_2.jpg","0","0","","true","no","sound","stimuli/sounds/cough_label_A.wav",""
"","","","","","audio-keyboard-response","189","2.0.0","309482","p6ouux4lny9","ono","tiger","22","female ","no","no","0","4 hours per day","null","stimuli/sounds/bleep.wav","null","","","","","","",""
"","","","","","html-keyboard-response","190","2.0.0","311450","p6ouux4lny9","ono","tiger","22","female ","no","no","0","4 hours per day","1866","<div style=""font-size:30px;"">Press space to start the trial</div>"," ","","","","","","",""
"","","","","","html-keyboard-response","191","2.0.0","311701","p6ouux4lny9","ono","tiger","22","female ","no","no","0","4 hours per day","null","<div style=""font-size:60px;"">+</div>","null","","","","","","",""
"","","","","","audio-keyboard-response","192","2.0.0","312301","p6ouux4lny9","ono","tiger","22","female ","no","no","0","4 hours per day","null","stimuli/sounds/motor_label_B.wav","null","","","","","","",""
"","","","","","html-keyboard-response","193","2.0.0","313303","p6ouux4lny9","ono","tiger","22","female ","no","no","0","4 hours per day","null","","null","","","","","","",""
"","","","","","image-keyboard-response","194","2.0.0","313937","p6ouux4lny9","ono","tiger","22","female ","no","no","0","4 hours per day","634","stimuli/pictures/hiccup_man_2.jpg","0","0","","true","no","sound","stimuli/sounds/motor_label_B.wav",""
"","","","","","audio-keyboard-response","195","2.0.0","314940","p6ouux4lny9","ono","tiger","22","female ","no","no","0","4 hours per day","null","stimuli/sounds/bleep.wav","null","","","","","","",""
"","","","","","html-keyboard-response","196","2.0.0","315938","p6ouux4lny9","ono","tiger","22","female ","no","no","0","4 hours per day","898","<div style=""font-size:30px;"">Press space to start the trial</div>"," ","","","","","","",""
"","","","","","html-keyboard-response","197","2.0.0","316190","p6ouux4lny9","ono","tiger","22","female ","no","no","0","4 hours per day","null","<div style=""font-size:60px;"">+</div>","null","","","","","","",""
"","","","","","audio-keyboard-response","198","2.0.0","316794","p6ouux4lny9","ono","tiger","22","female ","no","no","0","4 hours per day","null","stimuli/sounds/drop_sound_B.wav","null","","","","","","",""
"","","","","","html-keyboard-response","199","2.0.0","317796","p6ouux4lny9","ono","tiger","22","female ","no","no","0","4 hours per day","null","","null","","","","","","",""
"","","","","","image-keyboard-response","200","2.0.0","318269","p6ouux4lny9","ono","tiger","22","female ","no","no","0","4 hours per day","471","stimuli/pictures/drop_single_1.jpg","1","1","","true","no","sound","stimuli/sounds/drop_sound_B.wav",""
"","","","","","audio-keyboard-response","201","2.0.0","319270","p6ouux4lny9","ono","tiger","22","female ","no","no","0","4 hours per day","null","stimuli/sounds/bleep.wav","null","","","","","","",""
"","","","","","html-keyboard-response","202","2.0.0","320025","p6ouux4lny9","ono","tiger","22","female ","no","no","0","4 hours per day","653","<div style=""font-size:30px;"">Press space to start the trial</div>"," ","","","","","","",""
"","","","","","html-keyboard-response","203","2.0.0","320276","p6ouux4lny9","ono","tiger","22","female ","no","no","0","4 hours per day","null","<div style=""font-size:60px;"">+</div>","null","","","","","","",""
"","","","","","audio-keyboard-response","204","2.0.0","320875","p6ouux4lny9","ono","tiger","22","female ","no","no","0","4 hours per day","null","stimuli/sounds/drop_sound_B.wav","null","","","","","","",""
"","","","","","html-keyboard-response","205","2.0.0","321876","p6ouux4lny9","ono","tiger","22","female ","no","no","0","4 hours per day","null","","null","","","","","","",""
"","","","","","image-keyboard-response","206","2.0.0","322322","p6ouux4lny9","ono","tiger","22","female ","no","no","0","4 hours per day","444","stimuli/pictures/drop_multi_2.jpg","1","1","","true","yes","sound","stimuli/sounds/drop_sound_B.wav",""
"","","","","","audio-keyboard-response","207","2.0.0","323325","p6ouux4lny9","ono","tiger","22","female ","no","no","0","4 hours per day","null","stimuli/sounds/bleep.wav","null","","","","","","",""
"","","","","","html-keyboard-response","208","2.0.0","324068","p6ouux4lny9","ono","tiger","22","female ","no","no","0","4 hours per day","643","<div style=""font-size:30px;"">Press space to start the trial</div>"," ","","","","","","",""
"","","","","","html-keyboard-response","209","2.0.0","324320","p6ouux4lny9","ono","tiger","22","female ","no","no","0","4 hours per day","null","<div style=""font-size:60px;"">+</div>","null","","","","","","",""
"","","","","","audio-keyboard-response","210","2.0.0","324921","p6ouux4lny9","ono","tiger","22","female ","no","no","0","4 hours per day","null","stimuli/sounds/dog_sound_B.wav","null","","","","","","",""
"","","","","","html-keyboard-response","211","2.0.0","325923","p6ouux4lny9","ono","tiger","22","female ","no","no","0","4 hours per day","null","","null","","","","","","",""
"","","","","","image-keyboard-response","212","2.0.0","326433","p6ouux4lny9","ono","tiger","22","female ","no","no","0","4 hours per day","508","stimuli/pictures/motor_harley_2.jpg","0","0","","true","no","sound","stimuli/sounds/dog_sound_B.wav",""
"","","","","","audio-keyboard-response","213","2.0.0","327434","p6ouux4lny9","ono","tiger","22","female ","no","no","0","4 hours per day","null","stimuli/sounds/bleep.wav","null","","","","","","",""
"","","","","","html-keyboard-response","214","2.0.0","328177","p6ouux4lny9","ono","tiger","22","female ","no","no","0","4 hours per day","640","<div style=""font-size:30px;"">Press space to start the trial</div>"," ","","","","","","",""
"","","","","","html-keyboard-response","215","2.0.0","328429","p6ouux4lny9","ono","tiger","22","female ","no","no","0","4 hours per day","null","<div style=""font-size:60px;"">+</div>","null","","","","","","",""
"","","","","","audio-keyboard-response","216","2.0.0","329037","p6ouux4lny9","ono","tiger","22","female ","no","no","0","4 hours per day","null","stimuli/sounds/drop_label_B.wav","null","","","","","","",""
"","","","","","html-keyboard-response","217","2.0.0","330038","p6ouux4lny9","ono","tiger","22","female ","no","no","0","4 hours per day","null","","null","","","","","","",""
"","","","","","image-keyboard-response","218","2.0.0","330588","p6ouux4lny9","ono","tiger","22","female ","no","no","0","4 hours per day","549","stimuli/pictures/motor_harley_1.jpg","0","0","","true","no","sound","stimuli/sounds/drop_label_B.wav",""
"","","","","","audio-keyboard-response","219","2.0.0","331590","p6ouux4lny9","ono","tiger","22","female ","no","no","0","4 hours per day","null","stimuli/sounds/bleep.wav","null","","","","","","",""
"","","","","","html-keyboard-response","220","2.0.0","332348","p6ouux4lny9","ono","tiger","22","female ","no","no","0","4 hours per day","656","<div style=""font-size:30px;"">Press space to start the trial</div>"," ","","","","","","",""
"","","","","","html-keyboard-response","221","2.0.0","332601","p6ouux4lny9","ono","tiger","22","female ","no","no","0","4 hours per day","null","<div style=""font-size:60px;"">+</div>","null","","","","","","",""
"","","","","","audio-keyboard-response","222","2.0.0","333187","p6ouux4lny9","ono","tiger","22","female ","no","no","0","4 hours per day","null","stimuli/sounds/drop_sound_A.wav","null","","","","","","",""
"","","","","","html-keyboard-response","223","2.0.0","334190","p6ouux4lny9","ono","tiger","22","female ","no","no","0","4 hours per day","null","","null","","","","","","",""
"","","","","","image-keyboard-response","224","2.0.0","334586","p6ouux4lny9","ono","tiger","22","female ","no","no","0","4 hours per day","395","stimuli/pictures/drop_multi_2.jpg","1","1","","true","no","sound","stimuli/sounds/drop_sound_A.wav",""
"","","","","","audio-keyboard-response","225","2.0.0","335589","p6ouux4lny9","ono","tiger","22","female ","no","no","0","4 hours per day","null","stimuli/sounds/bleep.wav","null","","","","","","",""
"","","","","","html-keyboard-response","226","2.0.0","336221","p6ouux4lny9","ono","tiger","22","female ","no","no","0","4 hours per day","531","<div style=""font-size:30px;"">Press space to start the trial</div>"," ","","","","","","",""
"","","","","","html-keyboard-response","227","2.0.0","336473","p6ouux4lny9","ono","tiger","22","female ","no","no","0","4 hours per day","null","<div style=""font-size:60px;"">+</div>","null","","","","","","",""
"","","","","","audio-keyboard-response","228","2.0.0","337140","p6ouux4lny9","ono","tiger","22","female ","no","no","0","4 hours per day","null","stimuli/sounds/cough_sound_A.wav","null","","","","","","",""
"","","","","","html-keyboard-response","229","2.0.0","338142","p6ouux4lny9","ono","tiger","22","female ","no","no","0","4 hours per day","null","","null","","","","","","",""
"","","","","","image-keyboard-response","230","2.0.0","338859","p6ouux4lny9","ono","tiger","22","female ","no","no","0","4 hours per day","716","stimuli/pictures/cough_man_2.jpg","1","1","","true","no","sound","stimuli/sounds/cough_sound_A.wav",""
"","","","","","audio-keyboard-response","231","2.0.0","339862","p6ouux4lny9","ono","tiger","22","female ","no","no","0","4 hours per day","null","stimuli/sounds/bleep.wav","null","","","","","","",""
"","","","","","html-keyboard-response","232","2.0.0","340502","p6ouux4lny9","ono","tiger","22","female ","no","no","0","4 hours per day","539","<div style=""font-size:30px;"">Press space to start the trial</div>"," ","","","","","","",""
"","","","","","html-keyboard-response","233","2.0.0","340754","p6ouux4lny9","ono","tiger","22","female ","no","no","0","4 hours per day","null","<div style=""font-size:60px;"">+</div>","null","","","","","","",""
"","","","","","audio-keyboard-response","234","2.0.0","341355","p6ouux4lny9","ono","tiger","22","female ","no","no","0","4 hours per day","null","stimuli/sounds/dog_label_B.wav","null","","","","","","",""
"","","","","","html-keyboard-response","235","2.0.0","342357","p6ouux4lny9","ono","tiger","22","female ","no","no","0","4 hours per day","null","","null","","","","","","",""
"","","","","","image-keyboard-response","236","2.0.0","342931","p6ouux4lny9","ono","tiger","22","female ","no","no","0","4 hours per day","572","stimuli/pictures/dog_york_2.jpg","1","1","","true","yes","sound","stimuli/sounds/dog_label_B.wav",""
"","","","","","audio-keyboard-response","237","2.0.0","343932","p6ouux4lny9","ono","tiger","22","female ","no","no","0","4 hours per day","null","stimuli/sounds/bleep.wav","null","","","","","","",""
"","","","","","html-keyboard-response","238","2.0.0","344500","p6ouux4lny9","ono","tiger","22","female ","no","no","0","4 hours per day","465","<div style=""font-size:30px;"">Press space to start the trial</div>"," ","","","","","","",""
"","","","","","html-keyboard-response","239","2.0.0","344752","p6ouux4lny9","ono","tiger","22","female ","no","no","0","4 hours per day","null","<div style=""font-size:60px;"">+</div>","null","","","","","","",""
"","","","","","audio-keyboard-response","240","2.0.0","345354","p6ouux4lny9","ono","tiger","22","female ","no","no","0","4 hours per day","null","stimuli/sounds/motor_sound_A.wav","null","","","","","","",""
"","","","","","html-keyboard-response","241","2.0.0","346356","p6ouux4lny9","ono","tiger","22","female ","no","no","0","4 hours per day","null","","null","","","","","","",""
"","","","","","image-keyboard-response","242","2.0.0","347230","p6ouux4lny9","ono","tiger","22","female ","no","no","0","4 hours per day","872","stimuli/pictures/drop_multi_1.jpg","0","0","","true","no","sound","stimuli/sounds/motor_sound_A.wav",""
"","","","","","audio-keyboard-response","243","2.0.0","348232","p6ouux4lny9","ono","tiger","22","female ","no","no","0","4 hours per day","null","stimuli/sounds/bleep.wav","null","","","","","","",""
"","","","","","html-keyboard-response","244","2.0.0","348956","p6ouux4lny9","ono","tiger","22","female ","no","no","0","4 hours per day","622","<div style=""font-size:30px;"">Press space to start the trial</div>"," ","","","","","","",""
"","","","","","html-keyboard-response","245","2.0.0","349207","p6ouux4lny9","ono","tiger","22","female ","no","no","0","4 hours per day","null","<div style=""font-size:60px;"">+</div>","null","","","","","","",""
"","","","","","audio-keyboard-response","246","2.0.0","349836","p6ouux4lny9","ono","tiger","22","female ","no","no","0","4 hours per day","null","stimuli/sounds/cough_label_A.wav","null","","","","","","",""
"","","","","","html-keyboard-response","247","2.0.0","350838","p6ouux4lny9","ono","tiger","22","female ","no","no","0","4 hours per day","null","","null","","","","","","",""
"","","","","","image-keyboard-response","248","2.0.0","351295","p6ouux4lny9","ono","tiger","22","female ","no","no","0","4 hours per day","456","stimuli/pictures/cough_man_1.jpg","0","1","","false","yes","sound","stimuli/sounds/cough_label_A.wav",""
"","","","","","audio-keyboard-response","249","2.0.0","351436","p6ouux4lny9","ono","tiger","22","female ","no","no","0","4 hours per day","139","stimuli/sounds/buzz.wav","1","","","","","","",""
"","","","","","html-keyboard-response","250","2.0.0","352441","p6ouux4lny9","ono","tiger","22","female ","no","no","0","4 hours per day","904","<div style=""font-size:30px;"">Press space to start the trial</div>"," ","","","","","","",""
"","","","","","html-keyboard-response","251","2.0.0","352693","p6ouux4lny9","ono","tiger","22","female ","no","no","0","4 hours per day","null","<div style=""font-size:60px;"">+</div>","null","","","","","","",""
"","","","","","audio-keyboard-response","252","2.0.0","353371","p6ouux4lny9","ono","tiger","22","female ","no","no","0","4 hours per day","null","stimuli/sounds/cough_sound_B.wav","null","","","","","","",""
"","","","","","html-keyboard-response","253","2.0.0","354372","p6ouux4lny9","ono","tiger","22","female ","no","no","0","4 hours per day","null","","null","","","","","","",""
"","","","","","image-keyboard-response","254","2.0.0","355773","p6ouux4lny9","ono","tiger","22","female ","no","no","0","4 hours per day","1399","stimuli/pictures/hiccup_wom_1.jpg","0","0","","true","no","sound","stimuli/sounds/cough_sound_B.wav",""
"","","","","","audio-keyboard-response","255","2.0.0","356774","p6ouux4lny9","ono","tiger","22","female ","no","no","0","4 hours per day","null","stimuli/sounds/bleep.wav","null","","","","","","",""
"","","","","","html-keyboard-response","256","2.0.0","357480","p6ouux4lny9","ono","tiger","22","female ","no","no","0","4 hours per day","604","<div style=""font-size:30px;"">Press space to start the trial</div>"," ","","","","","","",""
"","","","","","html-keyboard-response","257","2.0.0","357732","p6ouux4lny9","ono","tiger","22","female ","no","no","0","4 hours per day","null","<div style=""font-size:60px;"">+</div>","null","","","","","","",""
"","","","","","audio-keyboard-response","258","2.0.0","358340","p6ouux4lny9","ono","tiger","22","female ","no","no","0","4 hours per day","null","stimuli/sounds/hiccup_label_B.wav","null","","","","","","",""
"","","","","","html-keyboard-response","259","2.0.0","359342","p6ouux4lny9","ono","tiger","22","female ","no","no","0","4 hours per day","null","","null","","","","","","",""
"","","","","","image-keyboard-response","260","2.0.0","360272","p6ouux4lny9","ono","tiger","22","female ","no","no","0","4 hours per day","928","stimuli/pictures/hiccup_man_2.jpg","0","1","","false","yes","sound","stimuli/sounds/hiccup_label_B.wav",""
"","","","","","audio-keyboard-response","261","2.0.0","361274","p6ouux4lny9","ono","tiger","22","female ","no","no","0","4 hours per day","null","stimuli/sounds/buzz.wav","null","","","","","","",""
"","","","","","html-keyboard-response","262","2.0.0","361862","p6ouux4lny9","ono","tiger","22","female ","no","no","0","4 hours per day","487","<div style=""font-size:30px;"">Press space to start the trial</div>"," ","","","","","","",""
"","","","","","html-keyboard-response","263","2.0.0","362114","p6ouux4lny9","ono","tiger","22","female ","no","no","0","4 hours per day","null","<div style=""font-size:60px;"">+</div>","null","","","","","","",""
"","","","","","audio-keyboard-response","264","2.0.0","362718","p6ouux4lny9","ono","tiger","22","female ","no","no","0","4 hours per day","null","stimuli/sounds/dog_sound_B.wav","null","","","","","","",""
"","","","","","html-keyboard-response","265","2.0.0","363718","p6ouux4lny9","ono","tiger","22","female ","no","no","0","4 hours per day","null","","null","","","","","","",""
"","","","","","image-keyboard-response","266","2.0.0","364434","p6ouux4lny9","ono","tiger","22","female ","no","no","0","4 hours per day","715","stimuli/pictures/dog_york_2.jpg","1","1","","true","yes","sound","stimuli/sounds/dog_sound_B.wav",""
"","","","","","audio-keyboard-response","267","2.0.0","365437","p6ouux4lny9","ono","tiger","22","female ","no","no","0","4 hours per day","null","stimuli/sounds/bleep.wav","null","","","","","","",""
"","","","","","html-keyboard-response","268","2.0.0","367622","p6ouux4lny9","ono","tiger","22","female ","no","no","0","4 hours per day","2083","<p>You have completed a block. Press R when you are ready to continue</p>","r","","","","","","",""
"","","","","","html-keyboard-response","269","2.0.0","371992","p6ouux4lny9","ono","tiger","22","female ","no","no","0","4 hours per day","4370","<div style=""font-size:30px;"">Press space to start the trial</div>"," ","","","","","","",""
"","","","","","html-keyboard-response","270","2.0.0","372244","p6ouux4lny9","ono","tiger","22","female ","no","no","0","4 hours per day","null","<div style=""font-size:60px;"">+</div>","null","","","","","","",""
"","","","","","audio-keyboard-response","271","2.0.0","372847","p6ouux4lny9","ono","tiger","22","female ","no","no","0","4 hours per day","null","stimuli/sounds/hiccup_sound_B.wav","null","","","","","","",""
"","","","","","html-keyboard-response","272","2.0.0","373848","p6ouux4lny9","ono","tiger","22","female ","no","no","0","4 hours per day","null","","null","","","","","","",""
"","","","","","image-keyboard-response","273","2.0.0","374679","p6ouux4lny9","ono","tiger","22","female ","no","no","0","4 hours per day","829","stimuli/pictures/drop_multi_1.jpg","0","0","","true","no","sound","stimuli/sounds/hiccup_sound_B.wav",""
"","","","","","audio-keyboard-response","274","2.0.0","375681","p6ouux4lny9","ono","tiger","22","female ","no","no","0","4 hours per day","null","stimuli/sounds/bleep.wav","null","","","","","","",""
"","","","","","html-keyboard-response","275","2.0.0","376781","p6ouux4lny9","ono","tiger","22","female ","no","no","0","4 hours per day","999","<div style=""font-size:30px;"">Press space to start the trial</div>"," ","","","","","","",""
"","","","","","html-keyboard-response","276","2.0.0","377032","p6ouux4lny9","ono","tiger","22","female ","no","no","0","4 hours per day","null","<div style=""font-size:60px;"">+</div>","null","","","","","","",""
"","","","","","audio-keyboard-response","277","2.0.0","377584","p6ouux4lny9","ono","tiger","22","female ","no","no","0","4 hours per day","null","stimuli/sounds/drop_label_A.wav","null","","","","","","",""
"","","","","","html-keyboard-response","278","2.0.0","378587","p6ouux4lny9","ono","tiger","22","female ","no","no","0","4 hours per day","null","","null","","","","","","",""
"","","","","","image-keyboard-response","279","2.0.0","379196","p6ouux4lny9","ono","tiger","22","female ","no","no","0","4 hours per day","609","stimuli/pictures/hiccup_wom_1.jpg","0","0","","true","no","sound","stimuli/sounds/drop_label_A.wav",""
"","","","","","audio-keyboard-response","280","2.0.0","380197","p6ouux4lny9","ono","tiger","22","female ","no","no","0","4 hours per day","null","stimuli/sounds/bleep.wav","null","","","","","","",""
"","","","","","html-keyboard-response","281","2.0.0","380893","p6ouux4lny9","ono","tiger","22","female ","no","no","0","4 hours per day","594","<div style=""font-size:30px;"">Press space to start the trial</div>"," ","","","","","","",""
"","","","","","html-keyboard-response","282","2.0.0","381144","p6ouux4lny9","ono","tiger","22","female ","no","no","0","4 hours per day","null","<div style=""font-size:60px;"">+</div>","null","","","","","","",""
"","","","","","audio-keyboard-response","283","2.0.0","381746","p6ouux4lny9","ono","tiger","22","female ","no","no","0","4 hours per day","null","stimuli/sounds/hiccup_sound_B.wav","null","","","","","","",""
"","","","","","html-keyboard-response","284","2.0.0","382747","p6ouux4lny9","ono","tiger","22","female ","no","no","0","4 hours per day","null","","null","","","","","","",""
"","","","","","image-keyboard-response","285","2.0.0","383455","p6ouux4lny9","ono","tiger","22","female ","no","no","0","4 hours per day","707","stimuli/pictures/drop_single_2.jpg","1","0","","false","no","sound","stimuli/sounds/hiccup_sound_B.wav",""
"","","","","","audio-keyboard-response","286","2.0.0","384458","p6ouux4lny9","ono","tiger","22","female ","no","no","0","4 hours per day","null","stimuli/sounds/buzz.wav","null","","","","","","",""
"","","","","","html-keyboard-response","287","2.0.0","385119","p6ouux4lny9","ono","tiger","22","female ","no","no","0","4 hours per day","560","<div style=""font-size:30px;"">Press space to start the trial</div>"," ","","","","","","",""
"","","","","","html-keyboard-response","288","2.0.0","385370","p6ouux4lny9","ono","tiger","22","female ","no","no","0","4 hours per day","null","<div style=""font-size:60px;"">+</div>","null","","","","","","",""
"","","","","","audio-keyboard-response","289","2.0.0","385978","p6ouux4lny9","ono","tiger","22","female ","no","no","0","4 hours per day","null","stimuli/sounds/cough_label_B.wav","null","","","","","","",""
"","","","","","html-keyboard-response","290","2.0.0","386980","p6ouux4lny9","ono","tiger","22","female ","no","no","0","4 hours per day","null","","null","","","","","","",""
"","","","","","image-keyboard-response","291","2.0.0","387693","p6ouux4lny9","ono","tiger","22","female ","no","no","0","4 hours per day","712","stimuli/pictures/cough_wom_2.jpg","1","1","","true","yes","sound","stimuli/sounds/cough_label_B.wav",""
"","","","","","audio-keyboard-response","292","2.0.0","388695","p6ouux4lny9","ono","tiger","22","female ","no","no","0","4 hours per day","null","stimuli/sounds/bleep.wav","null","","","","","","",""
"","","","","","html-keyboard-response","293","2.0.0","389333","p6ouux4lny9","ono","tiger","22","female ","no","no","0","4 hours per day","537","<div style=""font-size:30px;"">Press space to start the trial</div>"," ","","","","","","",""
"","","","","","html-keyboard-response","294","2.0.0","389585","p6ouux4lny9","ono","tiger","22","female ","no","no","0","4 hours per day","null","<div style=""font-size:60px;"">+</div>","null","","","","","","",""
"","","","","","audio-keyboard-response","295","2.0.0","390186","p6ouux4lny9","ono","tiger","22","female ","no","no","0","4 hours per day","null","stimuli/sounds/drop_sound_B.wav","null","","","","","","",""
"","","","","","html-keyboard-response","296","2.0.0","391188","p6ouux4lny9","ono","tiger","22","female ","no","no","0","4 hours per day","null","","null","","","","","","",""
"","","","","","image-keyboard-response","297","2.0.0","392385","p6ouux4lny9","ono","tiger","22","female ","no","no","0","4 hours per day","1196","stimuli/pictures/dog_rott_1.jpg","0","0","","true","no","sound","stimuli/sounds/drop_sound_B.wav",""
"","","","","","audio-keyboard-response","298","2.0.0","393388","p6ouux4lny9","ono","tiger","22","female ","no","no","0","4 hours per day","null","stimuli/sounds/bleep.wav","null","","","","","","",""
"","","","","","html-keyboard-response","299","2.0.0","394089","p6ouux4lny9","ono","tiger","22","female ","no","no","0","4 hours per day","599","<div style=""font-size:30px;"">Press space to start the trial</div>"," ","","","","","","",""
"","","","","","html-keyboard-response","300","2.0.0","394341","p6ouux4lny9","ono","tiger","22","female ","no","no","0","4 hours per day","null","<div style=""font-size:60px;"">+</div>","null","","","","","","",""
"","","","","","audio-keyboard-response","301","2.0.0","394941","p6ouux4lny9","ono","tiger","22","female ","no","no","0","4 hours per day","null","stimuli/sounds/motor_sound_A.wav","null","","","","","","",""
"","","","","","html-keyboard-response","302","2.0.0","395942","p6ouux4lny9","ono","tiger","22","female ","no","no","0","4 hours per day","null","","null","","","","","","",""
"","","","","","image-keyboard-response","303","2.0.0","396527","p6ouux4lny9","ono","tiger","22","female ","no","no","0","4 hours per day","584","stimuli/pictures/drop_single_1.jpg","0","0","","true","no","sound","stimuli/sounds/motor_sound_A.wav",""
"","","","","","audio-keyboard-response","304","2.0.0","397530","p6ouux4lny9","ono","tiger","22","female ","no","no","0","4 hours per day","null","stimuli/sounds/bleep.wav","null","","","","","","",""
"","","","","","html-keyboard-response","305","2.0.0","398528","p6ouux4lny9","ono","tiger","22","female ","no","no","0","4 hours per day","896","<div style=""font-size:30px;"">Press space to start the trial</div>"," ","","","","","","",""
"","","","","","html-keyboard-response","306","2.0.0","398780","p6ouux4lny9","ono","tiger","22","female ","no","no","0","4 hours per day","null","<div style=""font-size:60px;"">+</div>","null","","","","","","",""
"","","","","","audio-keyboard-response","307","2.0.0","399381","p6ouux4lny9","ono","tiger","22","female ","no","no","0","4 hours per day","null","stimuli/sounds/dog_label_A.wav","null","","","","","","",""
"","","","","","html-keyboard-response","308","2.0.0","400384","p6ouux4lny9","ono","tiger","22","female ","no","no","0","4 hours per day","null","","null","","","","","","",""
"","","","","","image-keyboard-response","309","2.0.0","400944","p6ouux4lny9","ono","tiger","22","female ","no","no","0","4 hours per day","559","stimuli/pictures/dog_rott_1.jpg","1","1","","true","yes","sound","stimuli/sounds/dog_label_A.wav",""
"","","","","","audio-keyboard-response","310","2.0.0","401946","p6ouux4lny9","ono","tiger","22","female ","no","no","0","4 hours per day","null","stimuli/sounds/bleep.wav","null","","","","","","",""
"","","","","","html-keyboard-response","311","2.0.0","402559","p6ouux4lny9","ono","tiger","22","female ","no","no","0","4 hours per day","510","<div style=""font-size:30px;"">Press space to start the trial</div>"," ","","","","","","",""
"","","","","","html-keyboard-response","312","2.0.0","402811","p6ouux4lny9","ono","tiger","22","female ","no","no","0","4 hours per day","null","<div style=""font-size:60px;"">+</div>","null","","","","","","",""
"","","","","","audio-keyboard-response","313","2.0.0","403410","p6ouux4lny9","ono","tiger","22","female ","no","no","0","4 hours per day","null","stimuli/sounds/dog_label_A.wav","null","","","","","","",""
"","","","","","html-keyboard-response","314","2.0.0","404412","p6ouux4lny9","ono","tiger","22","female ","no","no","0","4 hours per day","null","","null","","","","","","",""
"","","","","","image-keyboard-response","315","2.0.0","404974","p6ouux4lny9","ono","tiger","22","female ","no","no","0","4 hours per day","561","stimuli/pictures/dog_rott_2.jpg","1","1","","true","yes","sound","stimuli/sounds/dog_label_A.wav",""
"","","","","","audio-keyboard-response","316","2.0.0","405976","p6ouux4lny9","ono","tiger","22","female ","no","no","0","4 hours per day","null","stimuli/sounds/bleep.wav","null","","","","","","",""
"","","","","","html-keyboard-response","317","2.0.0","406575","p6ouux4lny9","ono","tiger","22","female ","no","no","0","4 hours per day","497","<div style=""font-size:30px;"">Press space to start the trial</div>"," ","","","","","","",""
"","","","","","html-keyboard-response","318","2.0.0","406827","p6ouux4lny9","ono","tiger","22","female ","no","no","0","4 hours per day","null","<div style=""font-size:60px;"">+</div>","null","","","","","","",""
"","","","","","audio-keyboard-response","319","2.0.0","407428","p6ouux4lny9","ono","tiger","22","female ","no","no","0","4 hours per day","null","stimuli/sounds/motor_sound_B.wav","null","","","","","","",""
"","","","","","html-keyboard-response","320","2.0.0","408429","p6ouux4lny9","ono","tiger","22","female ","no","no","0","4 hours per day","null","","null","","","","","","",""
"","","","","","image-keyboard-response","321","2.0.0","409188","p6ouux4lny9","ono","tiger","22","female ","no","no","0","4 hours per day","758","stimuli/pictures/cough_man_2.jpg","0","0","","true","no","sound","stimuli/sounds/motor_sound_B.wav",""
"","","","","","audio-keyboard-response","322","2.0.0","410191","p6ouux4lny9","ono","tiger","22","female ","no","no","0","4 hours per day","null","stimuli/sounds/bleep.wav","null","","","","","","",""
"","","","","","html-keyboard-response","323","2.0.0","410820","p6ouux4lny9","ono","tiger","22","female ","no","no","0","4 hours per day","528","<div style=""font-size:30px;"">Press space to start the trial</div>"," ","","","","","","",""
"","","","","","html-keyboard-response","324","2.0.0","411071","p6ouux4lny9","ono","tiger","22","female ","no","no","0","4 hours per day","null","<div style=""font-size:60px;"">+</div>","null","","","","","","",""
"","","","","","audio-keyboard-response","325","2.0.0","411671","p6ouux4lny9","ono","tiger","22","female ","no","no","0","4 hours per day","null","stimuli/sounds/motor_sound_B.wav","null","","","","","","",""
"","","","","","html-keyboard-response","326","2.0.0","412672","p6ouux4lny9","ono","tiger","22","female ","no","no","0","4 hours per day","null","","null","","","","","","",""
"","","","","","image-keyboard-response","327","2.0.0","413148","p6ouux4lny9","ono","tiger","22","female ","no","no","0","4 hours per day","475","stimuli/pictures/motor_dirt_1.jpg","1","1","","true","no","sound","stimuli/sounds/motor_sound_B.wav",""
"","","","","","audio-keyboard-response","328","2.0.0","414149","p6ouux4lny9","ono","tiger","22","female ","no","no","0","4 hours per day","null","stimuli/sounds/bleep.wav","null","","","","","","",""
"","","","","","html-keyboard-response","329","2.0.0","414932","p6ouux4lny9","ono","tiger","22","female ","no","no","0","4 hours per day","680","<div style=""font-size:30px;"">Press space to start the trial</div>"," ","","","","","","",""
"","","","","","html-keyboard-response","330","2.0.0","415183","p6ouux4lny9","ono","tiger","22","female ","no","no","0","4 hours per day","null","<div style=""font-size:60px;"">+</div>","null","","","","","","",""
"","","","","","audio-keyboard-response","331","2.0.0","415787","p6ouux4lny9","ono","tiger","22","female ","no","no","0","4 hours per day","null","stimuli/sounds/hiccup_sound_B.wav","null","","","","","","",""
"","","","","","html-keyboard-response","332","2.0.0","416789","p6ouux4lny9","ono","tiger","22","female ","no","no","0","4 hours per day","null","","null","","","","","","",""
"","","","","","image-keyboard-response","333","2.0.0","417628","p6ouux4lny9","ono","tiger","22","female ","no","no","0","4 hours per day","837","stimuli/pictures/drop_single_1.jpg","0","0","","true","no","sound","stimuli/sounds/hiccup_sound_B.wav",""
"","","","","","audio-keyboard-response","334","2.0.0","418629","p6ouux4lny9","ono","tiger","22","female ","no","no","0","4 hours per day","null","stimuli/sounds/bleep.wav","null","","","","","","",""
"","","","","","html-keyboard-response","335","2.0.0","419606","p6ouux4lny9","ono","tiger","22","female ","no","no","0","4 hours per day","876","<div style=""font-size:30px;"">Press space to start the trial</div>"," ","","","","","","",""
"","","","","","html-keyboard-response","336","2.0.0","419857","p6ouux4lny9","ono","tiger","22","female ","no","no","0","4 hours per day","null","<div style=""font-size:60px;"">+</div>","null","","","","","","",""
"","","","","","audio-keyboard-response","337","2.0.0","420459","p6ouux4lny9","ono","tiger","22","female ","no","no","0","4 hours per day","null","stimuli/sounds/drop_sound_B.wav","null","","","","","","",""
"","","","","","html-keyboard-response","338","2.0.0","421461","p6ouux4lny9","ono","tiger","22","female ","no","no","0","4 hours per day","null","","null","","","","","","",""
"","","","","","image-keyboard-response","339","2.0.0","422576","p6ouux4lny9","ono","tiger","22","female ","no","no","0","4 hours per day","1114","stimuli/pictures/drop_multi_1.jpg","1","1","","true","yes","sound","stimuli/sounds/drop_sound_B.wav",""
"","","","","","audio-keyboard-response","340","2.0.0","423579","p6ouux4lny9","ono","tiger","22","female ","no","no","0","4 hours per day","null","stimuli/sounds/bleep.wav","null","","","","","","",""
"","","","","","html-keyboard-response","341","2.0.0","424454","p6ouux4lny9","ono","tiger","22","female ","no","no","0","4 hours per day","774","<div style=""font-size:30px;"">Press space to start the trial</div>"," ","","","","","","",""
"","","","","","html-keyboard-response","342","2.0.0","424707","p6ouux4lny9","ono","tiger","22","female ","no","no","0","4 hours per day","null","<div style=""font-size:60px;"">+</div>","null","","","","","","",""
"","","","","","audio-keyboard-response","343","2.0.0","425307","p6ouux4lny9","ono","tiger","22","female ","no","no","0","4 hours per day","null","stimuli/sounds/motor_sound_A.wav","null","","","","","","",""
"","","","","","html-keyboard-response","344","2.0.0","426309","p6ouux4lny9","ono","tiger","22","female ","no","no","0","4 hours per day","null","","null","","","","","","",""
"","","","","","image-keyboard-response","345","2.0.0","427566","p6ouux4lny9","ono","tiger","22","female ","no","no","0","4 hours per day","1256","stimuli/pictures/drop_multi_2.jpg","0","0","","true","no","sound","stimuli/sounds/motor_sound_A.wav",""
"","","","","","audio-keyboard-response","346","2.0.0","428569","p6ouux4lny9","ono","tiger","22","female ","no","no","0","4 hours per day","null","stimuli/sounds/bleep.wav","null","","","","","","",""
"","","","","","html-keyboard-response","347","2.0.0","429324","p6ouux4lny9","ono","tiger","22","female ","no","no","0","4 hours per day","653","<div style=""font-size:30px;"">Press space to start the trial</div>"," ","","","","","","",""
"","","","","","html-keyboard-response","348","2.0.0","429575","p6ouux4lny9","ono","tiger","22","female ","no","no","0","4 hours per day","null","<div style=""font-size:60px;"">+</div>","null","","","","","","",""
"","","","","","audio-keyboard-response","349","2.0.0","430177","p6ouux4lny9","ono","tiger","22","female ","no","no","0","4 hours per day","null","stimuli/sounds/dog_sound_A.wav","null","","","","","","",""
"","","","","","html-keyboard-response","350","2.0.0","431178","p6ouux4lny9","ono","tiger","22","female ","no","no","0","4 hours per day","null","","null","","","","","","",""
"","","","","","image-keyboard-response","351","2.0.0","431940","p6ouux4lny9","ono","tiger","22","female ","no","no","0","4 hours per day","761","stimuli/pictures/hiccup_man_1.jpg","0","0","","true","no","sound","stimuli/sounds/dog_sound_A.wav",""
"","","","","","audio-keyboard-response","352","2.0.0","432942","p6ouux4lny9","ono","tiger","22","female ","no","no","0","4 hours per day","null","stimuli/sounds/bleep.wav","null","","","","","","",""
"","","","","","html-keyboard-response","353","2.0.0","434333","p6ouux4lny9","ono","tiger","22","female ","no","no","0","4 hours per day","1289","<div style=""font-size:30px;"">Press space to start the trial</div>"," ","","","","","","",""
"","","","","","html-keyboard-response","354","2.0.0","434585","p6ouux4lny9","ono","tiger","22","female ","no","no","0","4 hours per day","null","<div style=""font-size:60px;"">+</div>","null","","","","","","",""
"","","","","","audio-keyboard-response","355","2.0.0","435262","p6ouux4lny9","ono","tiger","22","female ","no","no","0","4 hours per day","null","stimuli/sounds/cough_sound_B.wav","null","","","","","","",""
"","","","","","html-keyboard-response","356","2.0.0","436263","p6ouux4lny9","ono","tiger","22","female ","no","no","0","4 hours per day","null","","null","","","","","","",""
"","","","","","image-keyboard-response","357","2.0.0","436715","p6ouux4lny9","ono","tiger","22","female ","no","no","0","4 hours per day","450","stimuli/pictures/cough_man_2.jpg","1","1","","true","yes","sound","stimuli/sounds/cough_sound_B.wav",""
"","","","","","audio-keyboard-response","358","2.0.0","437717","p6ouux4lny9","ono","tiger","22","female ","no","no","0","4 hours per day","null","stimuli/sounds/bleep.wav","null","","","","","","",""
"","","","","","html-keyboard-response","359","2.0.0","438404","p6ouux4lny9","ono","tiger","22","female ","no","no","0","4 hours per day","586","<div style=""font-size:30px;"">Press space to start the trial</div>"," ","","","","","","",""
"","","","","","html-keyboard-response","360","2.0.0","438655","p6ouux4lny9","ono","tiger","22","female ","no","no","0","4 hours per day","null","<div style=""font-size:60px;"">+</div>","null","","","","","","",""
"","","","","","audio-keyboard-response","361","2.0.0","439192","p6ouux4lny9","ono","tiger","22","female ","no","no","0","4 hours per day","null","stimuli/sounds/hiccup_label_A.wav","null","","","","","","",""
"","","","","","html-keyboard-response","362","2.0.0","440194","p6ouux4lny9","ono","tiger","22","female ","no","no","0","4 hours per day","null","","null","","","","","","",""
"","","","","","image-keyboard-response","363","2.0.0","440877","p6ouux4lny9","ono","tiger","22","female ","no","no","0","4 hours per day","681","stimuli/pictures/cough_man_2.jpg","0","0","","true","no","sound","stimuli/sounds/hiccup_label_A.wav",""
"","","","","","audio-keyboard-response","364","2.0.0","441878","p6ouux4lny9","ono","tiger","22","female ","no","no","0","4 hours per day","null","stimuli/sounds/bleep.wav","null","","","","","","",""
"","","","","","html-keyboard-response","365","2.0.0","442655","p6ouux4lny9","ono","tiger","22","female ","no","no","0","4 hours per day","675","<div style=""font-size:30px;"">Press space to start the trial</div>"," ","","","","","","",""
"","","","","","html-keyboard-response","366","2.0.0","442907","p6ouux4lny9","ono","tiger","22","female ","no","no","0","4 hours per day","null","<div style=""font-size:60px;"">+</div>","null","","","","","","",""
"","","","","","audio-keyboard-response","367","2.0.0","443511","p6ouux4lny9","ono","tiger","22","female ","no","no","0","4 hours per day","null","stimuli/sounds/dog_label_A.wav","null","","","","","","",""
"","","","","","html-keyboard-response","368","2.0.0","444513","p6ouux4lny9","ono","tiger","22","female ","no","no","0","4 hours per day","null","","null","","","","","","",""
"","","","","","image-keyboard-response","369","2.0.0","445179","p6ouux4lny9","ono","tiger","22","female ","no","no","0","4 hours per day","664","stimuli/pictures/drop_multi_2.jpg","0","0","","true","no","sound","stimuli/sounds/dog_label_A.wav",""
"","","","","","audio-keyboard-response","370","2.0.0","446180","p6ouux4lny9","ono","tiger","22","female ","no","no","0","4 hours per day","null","stimuli/sounds/bleep.wav","null","","","","","","",""
"","","","","","html-keyboard-response","371","2.0.0","446875","p6ouux4lny9","ono","tiger","22","female ","no","no","0","4 hours per day","592","<div style=""font-size:30px;"">Press space to start the trial</div>"," ","","","","","","",""
"","","","","","html-keyboard-response","372","2.0.0","447127","p6ouux4lny9","ono","tiger","22","female ","no","no","0","4 hours per day","null","<div style=""font-size:60px;"">+</div>","null","","","","","","",""
"","","","","","audio-keyboard-response","373","2.0.0","447731","p6ouux4lny9","ono","tiger","22","female ","no","no","0","4 hours per day","null","stimuli/sounds/dog_label_A.wav","null","","","","","","",""
"","","","","","html-keyboard-response","374","2.0.0","448732","p6ouux4lny9","ono","tiger","22","female ","no","no","0","4 hours per day","null","","null","","","","","","",""
"","","","","","image-keyboard-response","375","2.0.0","449217","p6ouux4lny9","ono","tiger","22","female ","no","no","0","4 hours per day","483","stimuli/pictures/drop_single_1.jpg","0","0","","true","no","sound","stimuli/sounds/dog_label_A.wav",""
"","","","","","audio-keyboard-response","376","2.0.0","450219","p6ouux4lny9","ono","tiger","22","female ","no","no","0","4 hours per day","null","stimuli/sounds/bleep.wav","null","","","","","","",""
"","","","","","html-keyboard-response","377","2.0.0","451290","p6ouux4lny9","ono","tiger","22","female ","no","no","0","4 hours per day","971","<div style=""font-size:30px;"">Press space to start the trial</div>"," ","","","","","","",""
"","","","","","html-keyboard-response","378","2.0.0","451541","p6ouux4lny9","ono","tiger","22","female ","no","no","0","4 hours per day","null","<div style=""font-size:60px;"">+</div>","null","","","","","","",""
"","","","","","audio-keyboard-response","379","2.0.0","452143","p6ouux4lny9","ono","tiger","22","female ","no","no","0","4 hours per day","null","stimuli/sounds/dog_label_B.wav","null","","","","","","",""
"","","","","","html-keyboard-response","380","2.0.0","453145","p6ouux4lny9","ono","tiger","22","female ","no","no","0","4 hours per day","null","","null","","","","","","",""
"","","","","","image-keyboard-response","381","2.0.0","453629","p6ouux4lny9","ono","tiger","22","female ","no","no","0","4 hours per day","483","stimuli/pictures/dog_rott_2.jpg","1","1","","true","yes","sound","stimuli/sounds/dog_label_B.wav",""
"","","","","","audio-keyboard-response","382","2.0.0","454631","p6ouux4lny9","ono","tiger","22","female ","no","no","0","4 hours per day","null","stimuli/sounds/bleep.wav","null","","","","","","",""
"","","","","","html-keyboard-response","383","2.0.0","455391","p6ouux4lny9","ono","tiger","22","female ","no","no","0","4 hours per day","658","<div style=""font-size:30px;"">Press space to start the trial</div>"," ","","","","","","",""
"","","","","","html-keyboard-response","384","2.0.0","455643","p6ouux4lny9","ono","tiger","22","female ","no","no","0","4 hours per day","null","<div style=""font-size:60px;"">+</div>","null","","","","","","",""
"","","","","","audio-keyboard-response","385","2.0.0","456247","p6ouux4lny9","ono","tiger","22","female ","no","no","0","4 hours per day","null","stimuli/sounds/dog_sound_A.wav","null","","","","","","",""
"","","","","","html-keyboard-response","386","2.0.0","457248","p6ouux4lny9","ono","tiger","22","female ","no","no","0","4 hours per day","null","","null","","","","","","",""
"","","","","","image-keyboard-response","387","2.0.0","457916","p6ouux4lny9","ono","tiger","22","female ","no","no","0","4 hours per day","666","stimuli/pictures/dog_york_2.jpg","1","1","","true","no","sound","stimuli/sounds/dog_sound_A.wav",""
"","","","","","audio-keyboard-response","388","2.0.0","458918","p6ouux4lny9","ono","tiger","22","female ","no","no","0","4 hours per day","null","stimuli/sounds/bleep.wav","null","","","","","","",""
"","","","","","html-keyboard-response","389","2.0.0","461084","p6ouux4lny9","ono","tiger","22","female ","no","no","0","4 hours per day","2064","<p>You have completed a block. Press R when you are ready to continue</p>","r","","","","","","",""
"","","","","","html-keyboard-response","390","2.0.0","463384","p6ouux4lny9","ono","tiger","22","female ","no","no","0","4 hours per day","2300","<div style=""font-size:30px;"">Press space to start the trial</div>"," ","","","","","","",""
"","","","","","html-keyboard-response","391","2.0.0","463636","p6ouux4lny9","ono","tiger","22","female ","no","no","0","4 hours per day","null","<div style=""font-size:60px;"">+</div>","null","","","","","","",""
"","","","","","audio-keyboard-response","392","2.0.0","464235","p6ouux4lny9","ono","tiger","22","female ","no","no","0","4 hours per day","null","stimuli/sounds/dog_label_A.wav","null","","","","","","",""
"","","","","","html-keyboard-response","393","2.0.0","465237","p6ouux4lny9","ono","tiger","22","female ","no","no","0","4 hours per day","null","","null","","","","","","",""
"","","","","","image-keyboard-response","394","2.0.0","465789","p6ouux4lny9","ono","tiger","22","female ","no","no","0","4 hours per day","552","stimuli/pictures/dog_york_2.jpg","1","1","","true","yes","sound","stimuli/sounds/dog_label_A.wav",""
"","","","","","audio-keyboard-response","395","2.0.0","466792","p6ouux4lny9","ono","tiger","22","female ","no","no","0","4 hours per day","null","stimuli/sounds/bleep.wav","null","","","","","","",""
"","","","","","html-keyboard-response","396","2.0.0","467428","p6ouux4lny9","ono","tiger","22","female ","no","no","0","4 hours per day","533","<div style=""font-size:30px;"">Press space to start the trial</div>"," ","","","","","","",""
"","","","","","html-keyboard-response","397","2.0.0","467680","p6ouux4lny9","ono","tiger","22","female ","no","no","0","4 hours per day","null","<div style=""font-size:60px;"">+</div>","null","","","","","","",""
"","","","","","audio-keyboard-response","398","2.0.0","468345","p6ouux4lny9","ono","tiger","22","female ","no","no","0","4 hours per day","null","stimuli/sounds/cough_sound_A.wav","null","","","","","","",""
"","","","","","html-keyboard-response","399","2.0.0","469346","p6ouux4lny9","ono","tiger","22","female ","no","no","0","4 hours per day","null","","null","","","","","","",""
"","","","","","image-keyboard-response","400","2.0.0","469834","p6ouux4lny9","ono","tiger","22","female ","no","no","0","4 hours per day","487","stimuli/pictures/cough_wom_2.jpg","1","1","","true","yes","sound","stimuli/sounds/cough_sound_A.wav",""
"","","","","","audio-keyboard-response","401","2.0.0","470836","p6ouux4lny9","ono","tiger","22","female ","no","no","0","4 hours per day","null","stimuli/sounds/bleep.wav","null","","","","","","",""
"","","","","","html-keyboard-response","402","2.0.0","471676","p6ouux4lny9","ono","tiger","22","female ","no","no","0","4 hours per day","739","<div style=""font-size:30px;"">Press space to start the trial</div>"," ","","","","","","",""
"","","","","","html-keyboard-response","403","2.0.0","471928","p6ouux4lny9","ono","tiger","22","female ","no","no","0","4 hours per day","null","<div style=""font-size:60px;"">+</div>","null","","","","","","",""
"","","","","","audio-keyboard-response","404","2.0.0","472478","p6ouux4lny9","ono","tiger","22","female ","no","no","0","4 hours per day","null","stimuli/sounds/drop_label_A.wav","null","","","","","","",""
"","","","","","html-keyboard-response","405","2.0.0","473480","p6ouux4lny9","ono","tiger","22","female ","no","no","0","4 hours per day","null","","null","","","","","","",""
"","","","","","image-keyboard-response","406","2.0.0","473940","p6ouux4lny9","ono","tiger","22","female ","no","no","0","4 hours per day","459","stimuli/pictures/drop_multi_1.jpg","1","1","","true","yes","sound","stimuli/sounds/drop_label_A.wav",""
"","","","","","audio-keyboard-response","407","2.0.0","474942","p6ouux4lny9","ono","tiger","22","female ","no","no","0","4 hours per day","null","stimuli/sounds/bleep.wav","null","","","","","","",""
"","","","","","html-keyboard-response","408","2.0.0","475574","p6ouux4lny9","ono","tiger","22","female ","no","no","0","4 hours per day","530","<div style=""font-size:30px;"">Press space to start the trial</div>"," ","","","","","","",""
"","","","","","html-keyboard-response","409","2.0.0","475825","p6ouux4lny9","ono","tiger","22","female ","no","no","0","4 hours per day","null","<div style=""font-size:60px;"">+</div>","null","","","","","","",""
"","","","","","audio-keyboard-response","410","2.0.0","476432","p6ouux4lny9","ono","tiger","22","female ","no","no","0","4 hours per day","null","stimuli/sounds/hiccup_label_B.wav","null","","","","","","",""
"","","","","","html-keyboard-response","411","2.0.0","477434","p6ouux4lny9","ono","tiger","22","female ","no","no","0","4 hours per day","null","","null","","","","","","",""
"","","","","","image-keyboard-response","412","2.0.0","478107","p6ouux4lny9","ono","tiger","22","female ","no","no","0","4 hours per day","668","stimuli/pictures/dog_york_2.jpg","0","0","","true","no","sound","stimuli/sounds/hiccup_label_B.wav",""
"","","","","","audio-keyboard-response","413","2.0.0","479109","p6ouux4lny9","ono","tiger","22","female ","no","no","0","4 hours per day","null","stimuli/sounds/bleep.wav","null","","","","","","",""
"","","","","","html-keyboard-response","414","2.0.0","480519","p6ouux4lny9","ono","tiger","22","female ","no","no","0","4 hours per day","1310","<div style=""font-size:30px;"">Press space to start the trial</div>"," ","","","","","","",""
"","","","","","html-keyboard-response","415","2.0.0","480770","p6ouux4lny9","ono","tiger","22","female ","no","no","0","4 hours per day","null","<div style=""font-size:60px;"">+</div>","null","","","","","","",""
"","","","","","audio-keyboard-response","416","2.0.0","481401","p6ouux4lny9","ono","tiger","22","female ","no","no","0","4 hours per day","null","stimuli/sounds/cough_label_A.wav","null","","","","","","",""
"","","","","","html-keyboard-response","417","2.0.0","482403","p6ouux4lny9","ono","tiger","22","female ","no","no","0","4 hours per day","null","","null","","","","","","",""
"","","","","","image-keyboard-response","418","2.0.0","483135","p6ouux4lny9","ono","tiger","22","female ","no","no","0","4 hours per day","731","stimuli/pictures/motor_dirt_1.jpg","0","0","","true","no","sound","stimuli/sounds/cough_label_A.wav",""
"","","","","","audio-keyboard-response","419","2.0.0","484137","p6ouux4lny9","ono","tiger","22","female ","no","no","0","4 hours per day","null","stimuli/sounds/bleep.wav","null","","","","","","",""
"","","","","","html-keyboard-response","420","2.0.0","485705","p6ouux4lny9","ono","tiger","22","female ","no","no","0","4 hours per day","1467","<div style=""font-size:30px;"">Press space to start the trial</div>"," ","","","","","","",""
"","","","","","html-keyboard-response","421","2.0.0","485956","p6ouux4lny9","ono","tiger","22","female ","no","no","0","4 hours per day","null","<div style=""font-size:60px;"">+</div>","null","","","","","","",""
"","","","","","audio-keyboard-response","422","2.0.0","486491","p6ouux4lny9","ono","tiger","22","female ","no","no","0","4 hours per day","null","stimuli/sounds/hiccup_label_A.wav","null","","","","","","",""
"","","","","","html-keyboard-response","423","2.0.0","487493","p6ouux4lny9","ono","tiger","22","female ","no","no","0","4 hours per day","null","","null","","","","","","",""
"","","","","","image-keyboard-response","424","2.0.0","488039","p6ouux4lny9","ono","tiger","22","female ","no","no","0","4 hours per day","545","stimuli/pictures/cough_man_1.jpg","1","0","","false","no","sound","stimuli/sounds/hiccup_label_A.wav",""
"","","","","","audio-keyboard-response","425","2.0.0","489041","p6ouux4lny9","ono","tiger","22","female ","no","no","0","4 hours per day","null","stimuli/sounds/buzz.wav","null","","","","","","",""
"","","","","","html-keyboard-response","426","2.0.0","490145","p6ouux4lny9","ono","tiger","22","female ","no","no","0","4 hours per day","1002","<div style=""font-size:30px;"">Press space to start the trial</div>"," ","","","","","","",""
"","","","","","html-keyboard-response","427","2.0.0","490397","p6ouux4lny9","ono","tiger","22","female ","no","no","0","4 hours per day","null","<div style=""font-size:60px;"">+</div>","null","","","","","","",""
"","","","","","audio-keyboard-response","428","2.0.0","490950","p6ouux4lny9","ono","tiger","22","female ","no","no","0","4 hours per day","null","stimuli/sounds/hiccup_label_A.wav","null","","","","","","",""
"","","","","","html-keyboard-response","429","2.0.0","491951","p6ouux4lny9","ono","tiger","22","female ","no","no","0","4 hours per day","null","","null","","","","","","",""
"","","","","","image-keyboard-response","430","2.0.0","492914","p6ouux4lny9","ono","tiger","22","female ","no","no","0","4 hours per day","962","stimuli/pictures/cough_wom_1.jpg","0","0","","true","no","sound","stimuli/sounds/hiccup_label_A.wav",""
"","","","","","audio-keyboard-response","431","2.0.0","493916","p6ouux4lny9","ono","tiger","22","female ","no","no","0","4 hours per day","null","stimuli/sounds/bleep.wav","null","","","","","","",""
"","","","","","html-keyboard-response","432","2.0.0","494853","p6ouux4lny9","ono","tiger","22","female ","no","no","0","4 hours per day","835","<div style=""font-size:30px;"">Press space to start the trial</div>"," ","","","","","","",""
"","","","","","html-keyboard-response","433","2.0.0","495103","p6ouux4lny9","ono","tiger","22","female ","no","no","0","4 hours per day","null","<div style=""font-size:60px;"">+</div>","null","","","","","","",""
"","","","","","audio-keyboard-response","434","2.0.0","495704","p6ouux4lny9","ono","tiger","22","female ","no","no","0","4 hours per day","null","stimuli/sounds/motor_sound_B.wav","null","","","","","","",""
"","","","","","html-keyboard-response","435","2.0.0","496706","p6ouux4lny9","ono","tiger","22","female ","no","no","0","4 hours per day","null","","null","","","","","","",""
"","","","","","image-keyboard-response","436","2.0.0","497237","p6ouux4lny9","ono","tiger","22","female ","no","no","0","4 hours per day","530","stimuli/pictures/cough_wom_1.jpg","0","0","","true","no","sound","stimuli/sounds/motor_sound_B.wav",""
"","","","","","audio-keyboard-response","437","2.0.0","498239","p6ouux4lny9","ono","tiger","22","female ","no","no","0","4 hours per day","null","stimuli/sounds/bleep.wav","null","","","","","","",""
"","","","","","html-keyboard-response","438","2.0.0","498967","p6ouux4lny9","ono","tiger","22","female ","no","no","0","4 hours per day","627","<div style=""font-size:30px;"">Press space to start the trial</div>"," ","","","","","","",""
"","","","","","html-keyboard-response","439","2.0.0","499219","p6ouux4lny9","ono","tiger","22","female ","no","no","0","4 hours per day","null","<div style=""font-size:60px;"">+</div>","null","","","","","","",""
"","","","","","audio-keyboard-response","440","2.0.0","499820","p6ouux4lny9","ono","tiger","22","female ","no","no","0","4 hours per day","null","stimuli/sounds/dog_sound_B.wav","null","","","","","","",""
"","","","","","html-keyboard-response","441","2.0.0","500821","p6ouux4lny9","ono","tiger","22","female ","no","no","0","4 hours per day","null","","null","","","","","","",""
"","","","","","image-keyboard-response","442","2.0.0","501685","p6ouux4lny9","ono","tiger","22","female ","no","no","0","4 hours per day","863","stimuli/pictures/dog_york_1.jpg","1","1","","true","yes","sound","stimuli/sounds/dog_sound_B.wav",""
"","","","","","audio-keyboard-response","443","2.0.0","502687","p6ouux4lny9","ono","tiger","22","female ","no","no","0","4 hours per day","null","stimuli/sounds/bleep.wav","null","","","","","","",""
"","","","","","html-keyboard-response","444","2.0.0","503306","p6ouux4lny9","ono","tiger","22","female ","no","no","0","4 hours per day","517","<div style=""font-size:30px;"">Press space to start the trial</div>"," ","","","","","","",""
"","","","","","html-keyboard-response","445","2.0.0","503558","p6ouux4lny9","ono","tiger","22","female ","no","no","0","4 hours per day","null","<div style=""font-size:60px;"">+</div>","null","","","","","","",""
"","","","","","audio-keyboard-response","446","2.0.0","504161","p6ouux4lny9","ono","tiger","22","female ","no","no","0","4 hours per day","null","stimuli/sounds/drop_sound_B.wav","null","","","","","","",""
"","","","","","html-keyboard-response","447","2.0.0","505163","p6ouux4lny9","ono","tiger","22","female ","no","no","0","4 hours per day","null","","null","","","","","","",""
"","","","","","image-keyboard-response","448","2.0.0","505762","p6ouux4lny9","ono","tiger","22","female ","no","no","0","4 hours per day","599","stimuli/pictures/dog_york_1.jpg","0","0","","true","no","sound","stimuli/sounds/drop_sound_B.wav",""
"","","","","","audio-keyboard-response","449","2.0.0","506765","p6ouux4lny9","ono","tiger","22","female ","no","no","0","4 hours per day","null","stimuli/sounds/bleep.wav","null","","","","","","",""
"","","","","","html-keyboard-response","450","2.0.0","507512","p6ouux4lny9","ono","tiger","22","female ","no","no","0","4 hours per day","646","<div style=""font-size:30px;"">Press space to start the trial</div>"," ","","","","","","",""
"","","","","","html-keyboard-response","451","2.0.0","507765","p6ouux4lny9","ono","tiger","22","female ","no","no","0","4 hours per day","null","<div style=""font-size:60px;"">+</div>","null","","","","","","",""
"","","","","","audio-keyboard-response","452","2.0.0","508370","p6ouux4lny9","ono","tiger","22","female ","no","no","0","4 hours per day","null","stimuli/sounds/cough_label_B.wav","null","","","","","","",""
"","","","","","html-keyboard-response","453","2.0.0","509372","p6ouux4lny9","ono","tiger","22","female ","no","no","0","4 hours per day","null","","null","","","","","","",""
"","","","","","image-keyboard-response","454","2.0.0","510228","p6ouux4lny9","ono","tiger","22","female ","no","no","0","4 hours per day","855","stimuli/pictures/drop_single_2.jpg","0","0","","true","no","sound","stimuli/sounds/cough_label_B.wav",""
"","","","","","audio-keyboard-response","455","2.0.0","511229","p6ouux4lny9","ono","tiger","22","female ","no","no","0","4 hours per day","null","stimuli/sounds/bleep.wav","null","","","","","","",""
"","","","","","html-keyboard-response","456","2.0.0","512031","p6ouux4lny9","ono","tiger","22","female ","no","no","0","4 hours per day","700","<div style=""font-size:30px;"">Press space to start the trial</div>"," ","","","","","","",""
"","","","","","html-keyboard-response","457","2.0.0","512283","p6ouux4lny9","ono","tiger","22","female ","no","no","0","4 hours per day","null","<div style=""font-size:60px;"">+</div>","null","","","","","","",""
"","","","","","audio-keyboard-response","458","2.0.0","512892","p6ouux4lny9","ono","tiger","22","female ","no","no","0","4 hours per day","null","stimuli/sounds/drop_label_B.wav","null","","","","","","",""
