"success","timeout","failed_images","failed_audio","failed_video","trial_type","trial_index","plugin_version","time_elapsed","random_id","condition","participant","age","gender_id","mus_exp","inst_exp","years_exp","mus_listening","rt","stimulus","response","correct_response","practice","correct","congruent","sound_type","audio","question_order"
"true","false","[]","[]","[]","preload","0","2.0.0","2827","p6qe0b2olsa","mus","wolf","20","female","yes","yes","5","4","","","","","","","","","",""
"","","","","","html-keyboard-response","1","2.0.0","8084","p6qe0b2olsa","mus","wolf","20","female","yes","yes","5","4","5255","Welcome to the experiment! Press any key to begin."," ","","","","","","",""
"true","","","","","fullscreen","2","null","10835","p6qe0b2olsa","mus","wolf","20","female","yes","yes","5","4","1746","","","","","","","","",""
"","","","","","survey-text","3","2.0.0","14587","p6qe0b2olsa","mus","wolf","20","female","yes","yes","5","4","3746","","{""participant_id"":""wolf""}","","","","","","",""
"","","","","","html-keyboard-response","4","2.0.0","26626","p6qe0b2olsa","mus","wolf","20","female","yes","yes","5","4","12038","
    <p> Please use headphones for the duration of the study.</p>
    <p> Within each trial, you will hear a sound and then be presented with an image in the center of your screen.</p>
    <p>Press the <b>'1'</b> key if what you hear <u>matches</u> what you see.</p>
    <p>Press the <b>'0'</b> key if what you hear <u>does not match</u> what you see.</p>
    <p>Try to respond as quickly and accurately as you can.</p>
    <p> Press any key to begin.</p>
    "," ","","","","","","",""
"","","","","","html-keyboard-response","5","2.0.0","29543","p6qe0b2olsa","mus","wolf","20","female","yes","yes","5","4","2913","
    <div style=""font-size:28px;"">
      <p>You will now complete 4 short practice trials.</p>
      <p>This is just to help you get familiar with the task.</p>
      <p>Press any key to begin.</p>
    </div>
  "," ","","","","","","",""
"","","","","","html-keyboard-response","6","2.0.0","30046","p6qe0b2olsa","mus","wolf","20","female","yes","yes","5","4","null","<div style=""font-size:60px;"">+</div>","null","","","","","","",""
"","","","","","audio-keyboard-response","7","2.0.0","30990","p6qe0b2olsa","mus","wolf","20","female","yes","yes","5","4","null","stimuli/sounds/guitar_label_A.wav","null","","","","","","",""
"","","","","","image-keyboard-response","8","2.0.0","31980","p6qe0b2olsa","mus","wolf","20","female","yes","yes","5","4","984","stimuli/pictures/guitar_acoustic_1.jpg","1","1","true","true","","","",""
"","","","","","audio-keyboard-response","9","2.0.0","32783","p6qe0b2olsa","mus","wolf","20","female","yes","yes","5","4","null","stimuli/sounds/bleep.wav","null","","","","","","",""
"","","","","","html-keyboard-response","10","2.0.0","33486","p6qe0b2olsa","mus","wolf","20","female","yes","yes","5","4","null","<p style='color:green; font-size:30px;'>Correct!</p>","null","","","","","","",""
"","","","","","html-keyboard-response","11","2.0.0","33989","p6qe0b2olsa","mus","wolf","20","female","yes","yes","5","4","null","<div style=""font-size:60px;"">+</div>","null","","","","","","",""
"","","","","","audio-keyboard-response","12","2.0.0","34590","p6qe0b2olsa","mus","wolf","20","female","yes","yes","5","4","null","stimuli/sounds/guitar_sound_B.wav","null","","","","","","",""
"","","","","","image-keyboard-response","13","2.0.0","36456","p6qe0b2olsa","mus","wolf","20","female","yes","yes","5","4","1864","stimuli/pictures/guitar_acoustic_2.jpg","1","1","true","true","","","",""
"","","","","","audio-keyboard-response","14","2.0.0","37258","p6qe0b2olsa","mus","wolf","20","female","yes","yes","5","4","null","stimuli/sounds/bleep.wav","null","","","","","","",""
"","","","","","html-keyboard-response","15","2.0.0","37961","p6qe0b2olsa","mus","wolf","20","female","yes","yes","5","4","null","<p style='color:green; font-size:30px;'>Correct!</p>","null","","","","","","",""
"","","","","","html-keyboard-response","16","2.0.0","38464","p6qe0b2olsa","mus","wolf","20","female","yes","yes","5","4","null","<div style=""font-size:60px;"">+</div>","null","","","","","","",""
"","","","","","audio-keyboard-response","17","2.0.0","39067","p6qe0b2olsa","mus","wolf","20","female","yes","yes","5","4","null","stimuli/sounds/flute_sound_A.wav","null","","","","","","",""
"","","","","","image-keyboard-response","18","2.0.0","41021","p6qe0b2olsa","mus","wolf","20","female","yes","yes","5","4","1952","stimuli/pictures/guitar_electric_1.jpg","0","0","true","true","","","",""
"","","","","","audio-keyboard-response","19","2.0.0","41824","p6qe0b2olsa","mus","wolf","20","female","yes","yes","5","4","null","stimuli/sounds/bleep.wav","null","","","","","","",""
"","","","","","html-keyboard-response","20","2.0.0","42527","p6qe0b2olsa","mus","wolf","20","female","yes","yes","5","4","null","<p style='color:green; font-size:30px;'>Correct!</p>","null","","","","","","",""
"","","","","","html-keyboard-response","21","2.0.0","43029","p6qe0b2olsa","mus","wolf","20","female","yes","yes","5","4","null","<div style=""font-size:60px;"">+</div>","null","","","","","","",""
"","","","","","audio-keyboard-response","22","2.0.0","43630","p6qe0b2olsa","mus","wolf","20","female","yes","yes","5","4","null","stimuli/sounds/guitar_sound_A.wav","null","","","","","","",""
"","","","","","image-keyboard-response","23","2.0.0","45620","p6qe0b2olsa","mus","wolf","20","female","yes","yes","5","4","1988","stimuli/pictures/guitar_acoustic_1.jpg","0","1","true","false","","","",""
"","","","","","audio-keyboard-response","24","2.0.0","46423","p6qe0b2olsa","mus","wolf","20","female","yes","yes","5","4","null","stimuli/sounds/buzz.wav","null","","","","","","",""
"","","","","","html-keyboard-response","25","2.0.0","47125","p6qe0b2olsa","mus","wolf","20","female","yes","yes","5","4","null","<p style='color:red; font-size:30px;'>Incorrect</p>","null","","","","","","",""
"","","","","","html-keyboard-response","26","2.0.0","52031","p6qe0b2olsa","mus","wolf","20","female","yes","yes","5","4","4905","<p>Practice complete. Press any key to begin the real experiment.</p>"," ","","","","","","",""
"","","","","","html-keyboard-response","27","2.0.0","54968","p6qe0b2olsa","mus","wolf","20","female","yes","yes","5","4","2935","<div style=""font-size:30px;"">Press space to start the trial</div>"," ","","","","","","",""
"","","","","","html-keyboard-response","28","2.0.0","55220","p6qe0b2olsa","mus","wolf","20","female","yes","yes","5","4","null","<div style=""font-size:60px;"">+</div>","null","","","","","","",""
"","","","","","audio-keyboard-response","29","2.0.0","55824","p6qe0b2olsa","mus","wolf","20","female","yes","yes","5","4","null","stimuli/sounds/flute_sound_A.wav","null","","","","","","",""
"","","","","","html-keyboard-response","30","2.0.0","56827","p6qe0b2olsa","mus","wolf","20","female","yes","yes","5","4","null","","null","","","","","","",""
"","","","","","image-keyboard-response","31","2.0.0","58067","p6qe0b2olsa","mus","wolf","20","female","yes","yes","5","4","1238","stimuli/pictures/flute_metal_2.jpg","1","1","","true","yes","sound","stimuli/sounds/flute_sound_A.wav",""
"","","","","","audio-keyboard-response","32","2.0.0","59070","p6qe0b2olsa","mus","wolf","20","female","yes","yes","5","4","null","stimuli/sounds/bleep.wav","null","","","","","","",""
"","","","","","html-keyboard-response","33","2.0.0","64929","p6qe0b2olsa","mus","wolf","20","female","yes","yes","5","4","5757","<div style=""font-size:30px;"">Press space to start the trial</div>"," ","","","","","","",""
"","","","","","html-keyboard-response","34","2.0.0","65182","p6qe0b2olsa","mus","wolf","20","female","yes","yes","5","4","null","<div style=""font-size:60px;"">+</div>","null","","","","","","",""
"","","","","","audio-keyboard-response","35","2.0.0","65790","p6qe0b2olsa","mus","wolf","20","female","yes","yes","5","4","null","stimuli/sounds/piano_sound_A.wav","null","","","","","","",""
"","","","","","html-keyboard-response","36","2.0.0","66792","p6qe0b2olsa","mus","wolf","20","female","yes","yes","5","4","null","","null","","","","","","",""
"","","","","","image-keyboard-response","37","2.0.0","68027","p6qe0b2olsa","mus","wolf","20","female","yes","yes","5","4","1232","stimuli/pictures/drum_kit_2.jpg","0","0","","true","no","sound","stimuli/sounds/piano_sound_A.wav",""
"","","","","","audio-keyboard-response","38","2.0.0","69030","p6qe0b2olsa","mus","wolf","20","female","yes","yes","5","4","null","stimuli/sounds/bleep.wav","null","","","","","","",""
"","","","","","html-keyboard-response","39","2.0.0","70324","p6qe0b2olsa","mus","wolf","20","female","yes","yes","5","4","1192","<div style=""font-size:30px;"">Press space to start the trial</div>"," ","","","","","","",""
"","","","","","html-keyboard-response","40","2.0.0","70577","p6qe0b2olsa","mus","wolf","20","female","yes","yes","5","4","null","<div style=""font-size:60px;"">+</div>","null","","","","","","",""
"","","","","","audio-keyboard-response","41","2.0.0","71176","p6qe0b2olsa","mus","wolf","20","female","yes","yes","5","4","null","stimuli/sounds/phone_label_B.wav","null","","","","","","",""
"","","","","","html-keyboard-response","42","2.0.0","72179","p6qe0b2olsa","mus","wolf","20","female","yes","yes","5","4","null","","null","","","","","","",""
"","","","","","image-keyboard-response","43","2.0.0","73403","p6qe0b2olsa","mus","wolf","20","female","yes","yes","5","4","1223","stimuli/pictures/flute_wooden_2.jpg","0","0","","true","no","sound","stimuli/sounds/phone_label_B.wav",""
"","","","","","audio-keyboard-response","44","2.0.0","74405","p6qe0b2olsa","mus","wolf","20","female","yes","yes","5","4","null","stimuli/sounds/bleep.wav","null","","","","","","",""
"","","","","","html-keyboard-response","45","2.0.0","78167","p6qe0b2olsa","mus","wolf","20","female","yes","yes","5","4","3658","<div style=""font-size:30px;"">Press space to start the trial</div>"," ","","","","","","",""
"","","","","","html-keyboard-response","46","2.0.0","78419","p6qe0b2olsa","mus","wolf","20","female","yes","yes","5","4","null","<div style=""font-size:60px;"">+</div>","null","","","","","","",""
"","","","","","audio-keyboard-response","47","2.0.0","79019","p6qe0b2olsa","mus","wolf","20","female","yes","yes","5","4","null","stimuli/sounds/drum_label_B.wav","null","","","","","","",""
"","","","","","html-keyboard-response","48","2.0.0","80021","p6qe0b2olsa","mus","wolf","20","female","yes","yes","5","4","null","","null","","","","","","",""
"","","","","","image-keyboard-response","49","2.0.0","82430","p6qe0b2olsa","mus","wolf","20","female","yes","yes","5","4","2407","stimuli/pictures/drum_bongo_2.jpg","1","1","","true","yes","sound","stimuli/sounds/drum_label_B.wav",""
"","","","","","audio-keyboard-response","50","2.0.0","83432","p6qe0b2olsa","mus","wolf","20","female","yes","yes","5","4","null","stimuli/sounds/bleep.wav","null","","","","","","",""
"","","","","","html-keyboard-response","51","2.0.0","84680","p6qe0b2olsa","mus","wolf","20","female","yes","yes","5","4","1145","<div style=""font-size:30px;"">Press space to start the trial</div>"," ","","","","","","",""
"","","","","","html-keyboard-response","52","2.0.0","84933","p6qe0b2olsa","mus","wolf","20","female","yes","yes","5","4","null","<div style=""font-size:60px;"">+</div>","null","","","","","","",""
"","","","","","audio-keyboard-response","53","2.0.0","85536","p6qe0b2olsa","mus","wolf","20","female","yes","yes","5","4","null","stimuli/sounds/piano_label_B.wav","null","","","","","","",""
"","","","","","html-keyboard-response","54","2.0.0","86538","p6qe0b2olsa","mus","wolf","20","female","yes","yes","5","4","null","","null","","","","","","",""
"","","","","","image-keyboard-response","55","2.0.0","87629","p6qe0b2olsa","mus","wolf","20","female","yes","yes","5","4","1089","stimuli/pictures/piano_grand_1.jpg","1","1","","true","yes","sound","stimuli/sounds/piano_label_B.wav",""
"","","","","","audio-keyboard-response","56","2.0.0","88632","p6qe0b2olsa","mus","wolf","20","female","yes","yes","5","4","null","stimuli/sounds/bleep.wav","null","","","","","","",""
"","","","","","html-keyboard-response","57","2.0.0","105610","p6qe0b2olsa","mus","wolf","20","female","yes","yes","5","4","16875","<div style=""font-size:30px;"">Press space to start the trial</div>"," ","","","","","","",""
"","","","","","html-keyboard-response","58","2.0.0","105863","p6qe0b2olsa","mus","wolf","20","female","yes","yes","5","4","null","<div style=""font-size:60px;"">+</div>","null","","","","","","",""
"","","","","","audio-keyboard-response","59","2.0.0","106467","p6qe0b2olsa","mus","wolf","20","female","yes","yes","5","4","null","stimuli/sounds/flute_sound_A.wav","null","","","","","","",""
"","","","","","html-keyboard-response","60","2.0.0","107469","p6qe0b2olsa","mus","wolf","20","female","yes","yes","5","4","null","","null","","","","","","",""
"","","","","","image-keyboard-response","61","2.0.0","109185","p6qe0b2olsa","mus","wolf","20","female","yes","yes","5","4","1714","stimuli/pictures/phone_cell_2.jpg","0","0","","true","no","sound","stimuli/sounds/flute_sound_A.wav",""
"","","","","","audio-keyboard-response","62","2.0.0","110187","p6qe0b2olsa","mus","wolf","20","female","yes","yes","5","4","null","stimuli/sounds/bleep.wav","null","","","","","","",""
"","","","","","html-keyboard-response","63","2.0.0","111374","p6qe0b2olsa","mus","wolf","20","female","yes","yes","5","4","1085","<div style=""font-size:30px;"">Press space to start the trial</div>"," ","","","","","","",""
"","","","","","html-keyboard-response","64","2.0.0","111626","p6qe0b2olsa","mus","wolf","20","female","yes","yes","5","4","null","<div style=""font-size:60px;"">+</div>","null","","","","","","",""
"","","","","","audio-keyboard-response","65","2.0.0","112254","p6qe0b2olsa","mus","wolf","20","female","yes","yes","5","4","null","stimuli/sounds/piano_label_A.wav","null","","","","","","",""
"","","","","","html-keyboard-response","66","2.0.0","113256","p6qe0b2olsa","mus","wolf","20","female","yes","yes","5","4","null","","null","","","","","","",""
"","","","","","image-keyboard-response","67","2.0.0","114240","p6qe0b2olsa","mus","wolf","20","female","yes","yes","5","4","983","stimuli/pictures/piano_grand_2.jpg","1","1","","true","yes","sound","stimuli/sounds/piano_label_A.wav",""
"","","","","","audio-keyboard-response","68","2.0.0","115243","p6qe0b2olsa","mus","wolf","20","female","yes","yes","5","4","null","stimuli/sounds/bleep.wav","null","","","","","","",""
"","","","","","html-keyboard-response","69","2.0.0","117264","p6qe0b2olsa","mus","wolf","20","female","yes","yes","5","4","1919","<div style=""font-size:30px;"">Press space to start the trial</div>"," ","","","","","","",""
"","","","","","html-keyboard-response","70","2.0.0","117516","p6qe0b2olsa","mus","wolf","20","female","yes","yes","5","4","null","<div style=""font-size:60px;"">+</div>","null","","","","","","",""
"","","","","","audio-keyboard-response","71","2.0.0","118115","p6qe0b2olsa","mus","wolf","20","female","yes","yes","5","4","null","stimuli/sounds/drum_sound_B.wav","null","","","","","","",""
"","","","","","html-keyboard-response","72","2.0.0","119117","p6qe0b2olsa","mus","wolf","20","female","yes","yes","5","4","null","","null","","","","","","",""
"","","","","","image-keyboard-response","73","2.0.0","120564","p6qe0b2olsa","mus","wolf","20","female","yes","yes","5","4","1445","stimuli/pictures/phone_rotary_1.jpg","0","0","","true","no","sound","stimuli/sounds/drum_sound_B.wav",""
"","","","","","audio-keyboard-response","74","2.0.0","121567","p6qe0b2olsa","mus","wolf","20","female","yes","yes","5","4","null","stimuli/sounds/bleep.wav","null","","","","","","",""
"","","","","","html-keyboard-response","75","2.0.0","123166","p6qe0b2olsa","mus","wolf","20","female","yes","yes","5","4","1497","<div style=""font-size:30px;"">Press space to start the trial</div>"," ","","","","","","",""
"","","","","","html-keyboard-response","76","2.0.0","123418","p6qe0b2olsa","mus","wolf","20","female","yes","yes","5","4","null","<div style=""font-size:60px;"">+</div>","null","","","","","","",""
"","","","","","audio-keyboard-response","77","2.0.0","124043","p6qe0b2olsa","mus","wolf","20","female","yes","yes","5","4","null","stimuli/sounds/piano_label_A.wav","null","","","","","","",""
"","","","","","html-keyboard-response","78","2.0.0","125045","p6qe0b2olsa","mus","wolf","20","female","yes","yes","5","4","null","","null","","","","","","",""
"","","","","","image-keyboard-response","79","2.0.0","125991","p6qe0b2olsa","mus","wolf","20","female","yes","yes","5","4","943","stimuli/pictures/piano_electric_1.jpg","1","1","","true","yes","sound","stimuli/sounds/piano_label_A.wav",""
"","","","","","audio-keyboard-response","80","2.0.0","126993","p6qe0b2olsa","mus","wolf","20","female","yes","yes","5","4","null","stimuli/sounds/bleep.wav","null","","","","","","",""
"","","","","","html-keyboard-response","81","2.0.0","127983","p6qe0b2olsa","mus","wolf","20","female","yes","yes","5","4","887","<div style=""font-size:30px;"">Press space to start the trial</div>"," ","","","","","","",""
"","","","","","html-keyboard-response","82","2.0.0","128235","p6qe0b2olsa","mus","wolf","20","female","yes","yes","5","4","null","<div style=""font-size:60px;"">+</div>","null","","","","","","",""
"","","","","","audio-keyboard-response","83","2.0.0","128835","p6qe0b2olsa","mus","wolf","20","female","yes","yes","5","4","null","stimuli/sounds/phone_sound_A.wav","null","","","","","","",""
"","","","","","html-keyboard-response","84","2.0.0","129838","p6qe0b2olsa","mus","wolf","20","female","yes","yes","5","4","null","","null","","","","","","",""
"","","","","","image-keyboard-response","85","2.0.0","131411","p6qe0b2olsa","mus","wolf","20","female","yes","yes","5","4","1572","stimuli/pictures/bird_hawk_1.jpg","0","0","","true","no","sound","stimuli/sounds/phone_sound_A.wav",""
"","","","","","audio-keyboard-response","86","2.0.0","132414","p6qe0b2olsa","mus","wolf","20","female","yes","yes","5","4","null","stimuli/sounds/bleep.wav","null","","","","","","",""
"","","","","","html-keyboard-response","87","2.0.0","133202","p6qe0b2olsa","mus","wolf","20","female","yes","yes","5","4","685","<div style=""font-size:30px;"">Press space to start the trial</div>"," ","","","","","","",""
"","","","","","html-keyboard-response","88","2.0.0","133455","p6qe0b2olsa","mus","wolf","20","female","yes","yes","5","4","null","<div style=""font-size:60px;"">+</div>","null","","","","","","",""
"","","","","","audio-keyboard-response","89","2.0.0","134054","p6qe0b2olsa","mus","wolf","20","female","yes","yes","5","4","null","stimuli/sounds/phone_sound_A.wav","null","","","","","","",""
"","","","","","html-keyboard-response","90","2.0.0","135056","p6qe0b2olsa","mus","wolf","20","female","yes","yes","5","4","null","","null","","","","","","",""
"","","","","","image-keyboard-response","91","2.0.0","136048","p6qe0b2olsa","mus","wolf","20","female","yes","yes","5","4","990","stimuli/pictures/bird_song_2.jpg","0","0","","true","no","sound","stimuli/sounds/phone_sound_A.wav",""
"","","","","","audio-keyboard-response","92","2.0.0","137051","p6qe0b2olsa","mus","wolf","20","female","yes","yes","5","4","null","stimuli/sounds/bleep.wav","null","","","","","","",""
"","","","","","html-keyboard-response","93","2.0.0","137717","p6qe0b2olsa","mus","wolf","20","female","yes","yes","5","4","564","<div style=""font-size:30px;"">Press space to start the trial</div>"," ","","","","","","",""
"","","","","","html-keyboard-response","94","2.0.0","137969","p6qe0b2olsa","mus","wolf","20","female","yes","yes","5","4","null","<div style=""font-size:60px;"">+</div>","null","","","","","","",""
"","","","","","audio-keyboard-response","95","2.0.0","138568","p6qe0b2olsa","mus","wolf","20","female","yes","yes","5","4","null","stimuli/sounds/bird_label_A.wav","null","","","","","","",""
"","","","","","html-keyboard-response","96","2.0.0","139570","p6qe0b2olsa","mus","wolf","20","female","yes","yes","5","4","null","","null","","","","","","",""
"","","","","","image-keyboard-response","97","2.0.0","140677","p6qe0b2olsa","mus","wolf","20","female","yes","yes","5","4","1106","stimuli/pictures/flute_wooden_1.jpg","0","0","","true","no","sound","stimuli/sounds/bird_label_A.wav",""
"","","","","","audio-keyboard-response","98","2.0.0","141680","p6qe0b2olsa","mus","wolf","20","female","yes","yes","5","4","null","stimuli/sounds/bleep.wav","null","","","","","","",""
"","","","","","html-keyboard-response","99","2.0.0","142722","p6qe0b2olsa","mus","wolf","20","female","yes","yes","5","4","940","<div style=""font-size:30px;"">Press space to start the trial</div>"," ","","","","","","",""
"","","","","","html-keyboard-response","100","2.0.0","142974","p6qe0b2olsa","mus","wolf","20","female","yes","yes","5","4","null","<div style=""font-size:60px;"">+</div>","null","","","","","","",""
"","","","","","audio-keyboard-response","101","2.0.0","143574","p6qe0b2olsa","mus","wolf","20","female","yes","yes","5","4","null","stimuli/sounds/phone_sound_B.wav","null","","","","","","",""
"","","","","","html-keyboard-response","102","2.0.0","144576","p6qe0b2olsa","mus","wolf","20","female","yes","yes","5","4","null","","null","","","","","","",""
"","","","","","image-keyboard-response","103","2.0.0","145985","p6qe0b2olsa","mus","wolf","20","female","yes","yes","5","4","1407","stimuli/pictures/piano_electric_2.jpg","0","0","","true","no","sound","stimuli/sounds/phone_sound_B.wav",""
"","","","","","audio-keyboard-response","104","2.0.0","146988","p6qe0b2olsa","mus","wolf","20","female","yes","yes","5","4","null","stimuli/sounds/bleep.wav","null","","","","","","",""
"","","","","","html-keyboard-response","105","2.0.0","148134","p6qe0b2olsa","mus","wolf","20","female","yes","yes","5","4","1044","<div style=""font-size:30px;"">Press space to start the trial</div>"," ","","","","","","",""
"","","","","","html-keyboard-response","106","2.0.0","148386","p6qe0b2olsa","mus","wolf","20","female","yes","yes","5","4","null","<div style=""font-size:60px;"">+</div>","null","","","","","","",""
"","","","","","audio-keyboard-response","107","2.0.0","148992","p6qe0b2olsa","mus","wolf","20","female","yes","yes","5","4","null","stimuli/sounds/piano_sound_A.wav","null","","","","","","",""
"","","","","","html-keyboard-response","108","2.0.0","149994","p6qe0b2olsa","mus","wolf","20","female","yes","yes","5","4","null","","null","","","","","","",""
"","","","","","image-keyboard-response","109","2.0.0","150818","p6qe0b2olsa","mus","wolf","20","female","yes","yes","5","4","822","stimuli/pictures/piano_grand_2.jpg","1","1","","true","yes","sound","stimuli/sounds/piano_sound_A.wav",""
"","","","","","audio-keyboard-response","110","2.0.0","151820","p6qe0b2olsa","mus","wolf","20","female","yes","yes","5","4","null","stimuli/sounds/bleep.wav","null","","","","","","",""
"","","","","","html-keyboard-response","111","2.0.0","152622","p6qe0b2olsa","mus","wolf","20","female","yes","yes","5","4","700","<div style=""font-size:30px;"">Press space to start the trial</div>"," ","","","","","","",""
"","","","","","html-keyboard-response","112","2.0.0","152874","p6qe0b2olsa","mus","wolf","20","female","yes","yes","5","4","null","<div style=""font-size:60px;"">+</div>","null","","","","","","",""
"","","","","","audio-keyboard-response","113","2.0.0","153475","p6qe0b2olsa","mus","wolf","20","female","yes","yes","5","4","null","stimuli/sounds/phone_sound_B.wav","null","","","","","","",""
"","","","","","html-keyboard-response","114","2.0.0","154477","p6qe0b2olsa","mus","wolf","20","female","yes","yes","5","4","null","","null","","","","","","",""
"","","","","","image-keyboard-response","115","2.0.0","155433","p6qe0b2olsa","mus","wolf","20","female","yes","yes","5","4","954","stimuli/pictures/phone_rotary_1.jpg","1","1","","true","yes","sound","stimuli/sounds/phone_sound_B.wav",""
"","","","","","audio-keyboard-response","116","2.0.0","156435","p6qe0b2olsa","mus","wolf","20","female","yes","yes","5","4","null","stimuli/sounds/bleep.wav","null","","","","","","",""
"","","","","","html-keyboard-response","117","2.0.0","157255","p6qe0b2olsa","mus","wolf","20","female","yes","yes","5","4","718","<div style=""font-size:30px;"">Press space to start the trial</div>"," ","","","","","","",""
"","","","","","html-keyboard-response","118","2.0.0","157507","p6qe0b2olsa","mus","wolf","20","female","yes","yes","5","4","null","<div style=""font-size:60px;"">+</div>","null","","","","","","",""
"","","","","","audio-keyboard-response","119","2.0.0","158107","p6qe0b2olsa","mus","wolf","20","female","yes","yes","5","4","null","stimuli/sounds/bird_sound_A.wav","null","","","","","","",""
"","","","","","html-keyboard-response","120","2.0.0","159109","p6qe0b2olsa","mus","wolf","20","female","yes","yes","5","4","null","","null","","","","","","",""
"","","","","","image-keyboard-response","121","2.0.0","160913","p6qe0b2olsa","mus","wolf","20","female","yes","yes","5","4","1803","stimuli/pictures/bird_hawk_1.jpg","1","1","","true","yes","sound","stimuli/sounds/bird_sound_A.wav",""
"","","","","","audio-keyboard-response","122","2.0.0","161916","p6qe0b2olsa","mus","wolf","20","female","yes","yes","5","4","null","stimuli/sounds/bleep.wav","null","","","","","","",""
"","","","","","html-keyboard-response","123","2.0.0","162665","p6qe0b2olsa","mus","wolf","20","female","yes","yes","5","4","647","<div style=""font-size:30px;"">Press space to start the trial</div>"," ","","","","","","",""
"","","","","","html-keyboard-response","124","2.0.0","162917","p6qe0b2olsa","mus","wolf","20","female","yes","yes","5","4","null","<div style=""font-size:60px;"">+</div>","null","","","","","","",""
"","","","","","audio-keyboard-response","125","2.0.0","163518","p6qe0b2olsa","mus","wolf","20","female","yes","yes","5","4","null","stimuli/sounds/phone_sound_B.wav","null","","","","","","",""
"","","","","","html-keyboard-response","126","2.0.0","164520","p6qe0b2olsa","mus","wolf","20","female","yes","yes","5","4","null","","null","","","","","","",""
"","","","","","image-keyboard-response","127","2.0.0","165503","p6qe0b2olsa","mus","wolf","20","female","yes","yes","5","4","980","stimuli/pictures/piano_electric_1.jpg","0","0","","true","no","sound","stimuli/sounds/phone_sound_B.wav",""
"","","","","","audio-keyboard-response","128","2.0.0","166505","p6qe0b2olsa","mus","wolf","20","female","yes","yes","5","4","null","stimuli/sounds/bleep.wav","null","","","","","","",""
"","","","","","html-keyboard-response","129","2.0.0","167137","p6qe0b2olsa","mus","wolf","20","female","yes","yes","5","4","530","<div style=""font-size:30px;"">Press space to start the trial</div>"," ","","","","","","",""
"","","","","","html-keyboard-response","130","2.0.0","167389","p6qe0b2olsa","mus","wolf","20","female","yes","yes","5","4","null","<div style=""font-size:60px;"">+</div>","null","","","","","","",""
"","","","","","audio-keyboard-response","131","2.0.0","167990","p6qe0b2olsa","mus","wolf","20","female","yes","yes","5","4","null","stimuli/sounds/phone_label_B.wav","null","","","","","","",""
"","","","","","html-keyboard-response","132","2.0.0","168991","p6qe0b2olsa","mus","wolf","20","female","yes","yes","5","4","null","","null","","","","","","",""
"","","","","","image-keyboard-response","133","2.0.0","169970","p6qe0b2olsa","mus","wolf","20","female","yes","yes","5","4","977","stimuli/pictures/flute_metal_2.jpg","0","0","","true","no","sound","stimuli/sounds/phone_label_B.wav",""
"","","","","","audio-keyboard-response","134","2.0.0","170972","p6qe0b2olsa","mus","wolf","20","female","yes","yes","5","4","null","stimuli/sounds/bleep.wav","null","","","","","","",""
"","","","","","html-keyboard-response","135","2.0.0","171860","p6qe0b2olsa","mus","wolf","20","female","yes","yes","5","4","784","<div style=""font-size:30px;"">Press space to start the trial</div>"," ","","","","","","",""
"","","","","","html-keyboard-response","136","2.0.0","172112","p6qe0b2olsa","mus","wolf","20","female","yes","yes","5","4","null","<div style=""font-size:60px;"">+</div>","null","","","","","","",""
"","","","","","audio-keyboard-response","137","2.0.0","172712","p6qe0b2olsa","mus","wolf","20","female","yes","yes","5","4","null","stimuli/sounds/bird_sound_B.wav","null","","","","","","",""
"","","","","","html-keyboard-response","138","2.0.0","173715","p6qe0b2olsa","mus","wolf","20","female","yes","yes","5","4","null","","null","","","","","","",""
"","","","","","image-keyboard-response","139","2.0.0","174665","p6qe0b2olsa","mus","wolf","20","female","yes","yes","5","4","949","stimuli/pictures/bird_hawk_1.jpg","1","1","","true","no","sound","stimuli/sounds/bird_sound_B.wav",""
"","","","","","audio-keyboard-response","140","2.0.0","175667","p6qe0b2olsa","mus","wolf","20","female","yes","yes","5","4","null","stimuli/sounds/bleep.wav","null","","","","","","",""
"","","","","","html-keyboard-response","141","2.0.0","176556","p6qe0b2olsa","mus","wolf","20","female","yes","yes","5","4","788","<div style=""font-size:30px;"">Press space to start the trial</div>"," ","","","","","","",""
"","","","","","html-keyboard-response","142","2.0.0","176808","p6qe0b2olsa","mus","wolf","20","female","yes","yes","5","4","null","<div style=""font-size:60px;"">+</div>","null","","","","","","",""
"","","","","","audio-keyboard-response","143","2.0.0","177408","p6qe0b2olsa","mus","wolf","20","female","yes","yes","5","4","null","stimuli/sounds/drum_sound_A.wav","null","","","","","","",""
"","","","","","html-keyboard-response","144","2.0.0","178411","p6qe0b2olsa","mus","wolf","20","female","yes","yes","5","4","null","","null","","","","","","",""
"","","","","","image-keyboard-response","145","2.0.0","179091","p6qe0b2olsa","mus","wolf","20","female","yes","yes","5","4","677","stimuli/pictures/drum_kit_1.jpg","1","1","","true","yes","sound","stimuli/sounds/drum_sound_A.wav",""
"","","","","","audio-keyboard-response","146","2.0.0","180094","p6qe0b2olsa","mus","wolf","20","female","yes","yes","5","4","null","stimuli/sounds/bleep.wav","null","","","","","","",""
"","","","","","html-keyboard-response","147","2.0.0","182296","p6qe0b2olsa","mus","wolf","20","female","yes","yes","5","4","2100","<p>You have completed a block. Press R when you are ready to continue</p>","r","","","","","","",""
"","","","","","html-keyboard-response","148","2.0.0","182971","p6qe0b2olsa","mus","wolf","20","female","yes","yes","5","4","675","<div style=""font-size:30px;"">Press space to start the trial</div>"," ","","","","","","",""
"","","","","","html-keyboard-response","149","2.0.0","183224","p6qe0b2olsa","mus","wolf","20","female","yes","yes","5","4","null","<div style=""font-size:60px;"">+</div>","null","","","","","","",""
"","","","","","audio-keyboard-response","150","2.0.0","183824","p6qe0b2olsa","mus","wolf","20","female","yes","yes","5","4","null","stimuli/sounds/phone_label_B.wav","null","","","","","","",""
"","","","","","html-keyboard-response","151","2.0.0","184826","p6qe0b2olsa","mus","wolf","20","female","yes","yes","5","4","null","","null","","","","","","",""
"","","","","","image-keyboard-response","152","2.0.0","185306","p6qe0b2olsa","mus","wolf","20","female","yes","yes","5","4","478","stimuli/pictures/phone_rotary_1.jpg","1","1","","true","yes","sound","stimuli/sounds/phone_label_B.wav",""
"","","","","","audio-keyboard-response","153","2.0.0","186308","p6qe0b2olsa","mus","wolf","20","female","yes","yes","5","4","null","stimuli/sounds/bleep.wav","null","","","","","","",""
"","","","","","html-keyboard-response","154","2.0.0","187080","p6qe0b2olsa","mus","wolf","20","female","yes","yes","5","4","670","<div style=""font-size:30px;"">Press space to start the trial</div>"," ","","","","","","",""
"","","","","","html-keyboard-response","155","2.0.0","187332","p6qe0b2olsa","mus","wolf","20","female","yes","yes","5","4","null","<div style=""font-size:60px;"">+</div>","null","","","","","","",""
"","","","","","audio-keyboard-response","156","2.0.0","187931","p6qe0b2olsa","mus","wolf","20","female","yes","yes","5","4","null","stimuli/sounds/phone_sound_B.wav","null","","","","","","",""
"","","","","","html-keyboard-response","157","2.0.0","188933","p6qe0b2olsa","mus","wolf","20","female","yes","yes","5","4","null","","null","","","","","","",""
"","","","","","image-keyboard-response","158","2.0.0","189722","p6qe0b2olsa","mus","wolf","20","female","yes","yes","5","4","787","stimuli/pictures/piano_grand_2.jpg","0","0","","true","no","sound","stimuli/sounds/phone_sound_B.wav",""
"","","","","","audio-keyboard-response","159","2.0.0","190725","p6qe0b2olsa","mus","wolf","20","female","yes","yes","5","4","null","stimuli/sounds/bleep.wav","null","","","","","","",""
"","","","","","html-keyboard-response","160","2.0.0","191424","p6qe0b2olsa","mus","wolf","20","female","yes","yes","5","4","598","<div style=""font-size:30px;"">Press space to start the trial</div>"," ","","","","","","",""
"","","","","","html-keyboard-response","161","2.0.0","191676","p6qe0b2olsa","mus","wolf","20","female","yes","yes","5","4","null","<div style=""font-size:60px;"">+</div>","null","","","","","","",""
"","","","","","audio-keyboard-response","162","2.0.0","192283","p6qe0b2olsa","mus","wolf","20","female","yes","yes","5","4","null","stimuli/sounds/flute_sound_B.wav","null","","","","","","",""
"","","","","","html-keyboard-response","163","2.0.0","193285","p6qe0b2olsa","mus","wolf","20","female","yes","yes","5","4","null","","null","","","","","","",""
"","","","","","image-keyboard-response","164","2.0.0","193991","p6qe0b2olsa","mus","wolf","20","female","yes","yes","5","4","705","stimuli/pictures/flute_metal_1.jpg","1","1","","true","no","sound","stimuli/sounds/flute_sound_B.wav",""
"","","","","","audio-keyboard-response","165","2.0.0","194994","p6qe0b2olsa","mus","wolf","20","female","yes","yes","5","4","null","stimuli/sounds/bleep.wav","null","","","","","","",""
"","","","","","html-keyboard-response","166","2.0.0","195693","p6qe0b2olsa","mus","wolf","20","female","yes","yes","5","4","597","<div style=""font-size:30px;"">Press space to start the trial</div>"," ","","","","","","",""
"","","","","","html-keyboard-response","167","2.0.0","195946","p6qe0b2olsa","mus","wolf","20","female","yes","yes","5","4","null","<div style=""font-size:60px;"">+</div>","null","","","","","","",""
"","","","","","audio-keyboard-response","168","2.0.0","196544","p6qe0b2olsa","mus","wolf","20","female","yes","yes","5","4","null","stimuli/sounds/phone_sound_A.wav","null","","","","","","",""
"","","","","","html-keyboard-response","169","2.0.0","197547","p6qe0b2olsa","mus","wolf","20","female","yes","yes","5","4","null","","null","","","","","","",""
"","","","","","image-keyboard-response","170","2.0.0","198100","p6qe0b2olsa","mus","wolf","20","female","yes","yes","5","4","551","stimuli/pictures/phone_cell_1.jpg","1","1","","true","yes","sound","stimuli/sounds/phone_sound_A.wav",""
"","","","","","audio-keyboard-response","171","2.0.0","199101","p6qe0b2olsa","mus","wolf","20","female","yes","yes","5","4","null","stimuli/sounds/bleep.wav","null","","","","","","",""
"","","","","","html-keyboard-response","172","2.0.0","199760","p6qe0b2olsa","mus","wolf","20","female","yes","yes","5","4","557","<div style=""font-size:30px;"">Press space to start the trial</div>"," ","","","","","","",""
"","","","","","html-keyboard-response","173","2.0.0","200012","p6qe0b2olsa","mus","wolf","20","female","yes","yes","5","4","null","<div style=""font-size:60px;"">+</div>","null","","","","","","",""
"","","","","","audio-keyboard-response","174","2.0.0","200611","p6qe0b2olsa","mus","wolf","20","female","yes","yes","5","4","null","stimuli/sounds/bird_sound_B.wav","null","","","","","","",""
"","","","","","html-keyboard-response","175","2.0.0","201612","p6qe0b2olsa","mus","wolf","20","female","yes","yes","5","4","null","","null","","","","","","",""
"","","","","","image-keyboard-response","176","2.0.0","202502","p6qe0b2olsa","mus","wolf","20","female","yes","yes","5","4","888","stimuli/pictures/drum_kit_2.jpg","0","0","","true","no","sound","stimuli/sounds/bird_sound_B.wav",""
"","","","","","audio-keyboard-response","177","2.0.0","203505","p6qe0b2olsa","mus","wolf","20","female","yes","yes","5","4","null","stimuli/sounds/bleep.wav","null","","","","","","",""
"","","","","","html-keyboard-response","178","2.0.0","204445","p6qe0b2olsa","mus","wolf","20","female","yes","yes","5","4","838","<div style=""font-size:30px;"">Press space to start the trial</div>"," ","","","","","","",""
"","","","","","html-keyboard-response","179","2.0.0","204698","p6qe0b2olsa","mus","wolf","20","female","yes","yes","5","4","null","<div style=""font-size:60px;"">+</div>","null","","","","","","",""
"","","","","","audio-keyboard-response","180","2.0.0","205304","p6qe0b2olsa","mus","wolf","20","female","yes","yes","5","4","null","stimuli/sounds/flute_label_B.wav","null","","","","","","",""
"","","","","","html-keyboard-response","181","2.0.0","206307","p6qe0b2olsa","mus","wolf","20","female","yes","yes","5","4","null","","null","","","","","","",""
"","","","","","image-keyboard-response","182","2.0.0","207379","p6qe0b2olsa","mus","wolf","20","female","yes","yes","5","4","1070","stimuli/pictures/flute_wooden_2.jpg","1","1","","true","yes","sound","stimuli/sounds/flute_label_B.wav",""
"","","","","","audio-keyboard-response","183","2.0.0","208382","p6qe0b2olsa","mus","wolf","20","female","yes","yes","5","4","null","stimuli/sounds/bleep.wav","null","","","","","","",""
"","","","","","html-keyboard-response","184","2.0.0","209439","p6qe0b2olsa","mus","wolf","20","female","yes","yes","5","4","954","<div style=""font-size:30px;"">Press space to start the trial</div>"," ","","","","","","",""
"","","","","","html-keyboard-response","185","2.0.0","209691","p6qe0b2olsa","mus","wolf","20","female","yes","yes","5","4","null","<div style=""font-size:60px;"">+</div>","null","","","","","","",""
"","","","","","audio-keyboard-response","186","2.0.0","210291","p6qe0b2olsa","mus","wolf","20","female","yes","yes","5","4","null","stimuli/sounds/drum_label_A.wav","null","","","","","","",""
"","","","","","html-keyboard-response","187","2.0.0","211293","p6qe0b2olsa","mus","wolf","20","female","yes","yes","5","4","null","","null","","","","","","",""
"","","","","","image-keyboard-response","188","2.0.0","211981","p6qe0b2olsa","mus","wolf","20","female","yes","yes","5","4","686","stimuli/pictures/drum_bongo_2.jpg","1","1","","true","yes","sound","stimuli/sounds/drum_label_A.wav",""
"","","","","","audio-keyboard-response","189","2.0.0","212983","p6qe0b2olsa","mus","wolf","20","female","yes","yes","5","4","null","stimuli/sounds/bleep.wav","null","","","","","","",""
"","","","","","html-keyboard-response","190","2.0.0","213995","p6qe0b2olsa","mus","wolf","20","female","yes","yes","5","4","909","<div style=""font-size:30px;"">Press space to start the trial</div>"," ","","","","","","",""
"","","","","","html-keyboard-response","191","2.0.0","214247","p6qe0b2olsa","mus","wolf","20","female","yes","yes","5","4","null","<div style=""font-size:60px;"">+</div>","null","","","","","","",""
"","","","","","audio-keyboard-response","192","2.0.0","214854","p6qe0b2olsa","mus","wolf","20","female","yes","yes","5","4","null","stimuli/sounds/flute_label_B.wav","null","","","","","","",""
"","","","","","html-keyboard-response","193","2.0.0","215856","p6qe0b2olsa","mus","wolf","20","female","yes","yes","5","4","null","","null","","","","","","",""
"","","","","","image-keyboard-response","194","2.0.0","216942","p6qe0b2olsa","mus","wolf","20","female","yes","yes","5","4","1084","stimuli/pictures/drum_bongo_2.jpg","0","0","","true","no","sound","stimuli/sounds/flute_label_B.wav",""
"","","","","","audio-keyboard-response","195","2.0.0","217945","p6qe0b2olsa","mus","wolf","20","female","yes","yes","5","4","null","stimuli/sounds/bleep.wav","null","","","","","","",""
"","","","","","html-keyboard-response","196","2.0.0","219063","p6qe0b2olsa","mus","wolf","20","female","yes","yes","5","4","1016","<div style=""font-size:30px;"">Press space to start the trial</div>"," ","","","","","","",""
"","","","","","html-keyboard-response","197","2.0.0","219315","p6qe0b2olsa","mus","wolf","20","female","yes","yes","5","4","null","<div style=""font-size:60px;"">+</div>","null","","","","","","",""
"","","","","","audio-keyboard-response","198","2.0.0","219918","p6qe0b2olsa","mus","wolf","20","female","yes","yes","5","4","null","stimuli/sounds/piano_label_B.wav","null","","","","","","",""
"","","","","","html-keyboard-response","199","2.0.0","220921","p6qe0b2olsa","mus","wolf","20","female","yes","yes","5","4","null","","null","","","","","","",""
"","","","","","image-keyboard-response","200","2.0.0","221651","p6qe0b2olsa","mus","wolf","20","female","yes","yes","5","4","729","stimuli/pictures/bird_song_2.jpg","0","0","","true","no","sound","stimuli/sounds/piano_label_B.wav",""
"","","","","","audio-keyboard-response","201","2.0.0","222654","p6qe0b2olsa","mus","wolf","20","female","yes","yes","5","4","null","stimuli/sounds/bleep.wav","null","","","","","","",""
"","","","","","html-keyboard-response","202","2.0.0","223264","p6qe0b2olsa","mus","wolf","20","female","yes","yes","5","4","508","<div style=""font-size:30px;"">Press space to start the trial</div>"," ","","","","","","",""
"","","","","","html-keyboard-response","203","2.0.0","223517","p6qe0b2olsa","mus","wolf","20","female","yes","yes","5","4","null","<div style=""font-size:60px;"">+</div>","null","","","","","","",""
"","","","","","audio-keyboard-response","204","2.0.0","224115","p6qe0b2olsa","mus","wolf","20","female","yes","yes","5","4","null","stimuli/sounds/drum_label_A.wav","null","","","","","","",""
"","","","","","html-keyboard-response","205","2.0.0","225117","p6qe0b2olsa","mus","wolf","20","female","yes","yes","5","4","null","","null","","","","","","",""
"","","","","","image-keyboard-response","206","2.0.0","225814","p6qe0b2olsa","mus","wolf","20","female","yes","yes","5","4","694","stimuli/pictures/bird_hawk_1.jpg","0","0","","true","no","sound","stimuli/sounds/drum_label_A.wav",""
"","","","","","audio-keyboard-response","207","2.0.0","226817","p6qe0b2olsa","mus","wolf","20","female","yes","yes","5","4","null","stimuli/sounds/bleep.wav","null","","","","","","",""
"","","","","","html-keyboard-response","208","2.0.0","227362","p6qe0b2olsa","mus","wolf","20","female","yes","yes","5","4","443","<div style=""font-size:30px;"">Press space to start the trial</div>"," ","","","","","","",""
"","","","","","html-keyboard-response","209","2.0.0","227615","p6qe0b2olsa","mus","wolf","20","female","yes","yes","5","4","null","<div style=""font-size:60px;"">+</div>","null","","","","","","",""
"","","","","","audio-keyboard-response","210","2.0.0","228216","p6qe0b2olsa","mus","wolf","20","female","yes","yes","5","4","null","stimuli/sounds/piano_label_B.wav","null","","","","","","",""
"","","","","","html-keyboard-response","211","2.0.0","229218","p6qe0b2olsa","mus","wolf","20","female","yes","yes","5","4","null","","null","","","","","","",""
"","","","","","image-keyboard-response","212","2.0.0","229927","p6qe0b2olsa","mus","wolf","20","female","yes","yes","5","4","707","stimuli/pictures/bird_hawk_1.jpg","0","0","","true","no","sound","stimuli/sounds/piano_label_B.wav",""
"","","","","","audio-keyboard-response","213","2.0.0","230933","p6qe0b2olsa","mus","wolf","20","female","yes","yes","5","4","null","stimuli/sounds/bleep.wav","null","","","","","","",""
"","","","","","html-keyboard-response","214","2.0.0","232324","p6qe0b2olsa","mus","wolf","20","female","yes","yes","5","4","1289","<div style=""font-size:30px;"">Press space to start the trial</div>"," ","","","","","","",""
"","","","","","html-keyboard-response","215","2.0.0","232576","p6qe0b2olsa","mus","wolf","20","female","yes","yes","5","4","null","<div style=""font-size:60px;"">+</div>","null","","","","","","",""
"","","","","","audio-keyboard-response","216","2.0.0","233182","p6qe0b2olsa","mus","wolf","20","female","yes","yes","5","4","null","stimuli/sounds/piano_sound_B.wav","null","","","","","","",""
"","","","","","html-keyboard-response","217","2.0.0","234184","p6qe0b2olsa","mus","wolf","20","female","yes","yes","5","4","null","","null","","","","","","",""
"","","","","","image-keyboard-response","218","2.0.0","234761","p6qe0b2olsa","mus","wolf","20","female","yes","yes","5","4","575","stimuli/pictures/flute_metal_2.jpg","0","0","","true","no","sound","stimuli/sounds/piano_sound_B.wav",""
"","","","","","audio-keyboard-response","219","2.0.0","235763","p6qe0b2olsa","mus","wolf","20","female","yes","yes","5","4","null","stimuli/sounds/bleep.wav","null","","","","","","",""
"","","","","","html-keyboard-response","220","2.0.0","236478","p6qe0b2olsa","mus","wolf","20","female","yes","yes","5","4","613","<div style=""font-size:30px;"">Press space to start the trial</div>"," ","","","","","","",""
"","","","","","html-keyboard-response","221","2.0.0","236729","p6qe0b2olsa","mus","wolf","20","female","yes","yes","5","4","null","<div style=""font-size:60px;"">+</div>","null","","","","","","",""
"","","","","","audio-keyboard-response","222","2.0.0","237334","p6qe0b2olsa","mus","wolf","20","female","yes","yes","5","4","null","stimuli/sounds/piano_sound_B.wav","null","","","","","","",""
"","","","","","html-keyboard-response","223","2.0.0","238335","p6qe0b2olsa","mus","wolf","20","female","yes","yes","5","4","null","","null","","","","","","",""
"","","","","","image-keyboard-response","224","2.0.0","239022","p6qe0b2olsa","mus","wolf","20","female","yes","yes","5","4","685","stimuli/pictures/piano_electric_2.jpg","1","1","","true","yes","sound","stimuli/sounds/piano_sound_B.wav",""
"","","","","","audio-keyboard-response","225","2.0.0","240025","p6qe0b2olsa","mus","wolf","20","female","yes","yes","5","4","null","stimuli/sounds/bleep.wav","null","","","","","","",""
"","","","","","html-keyboard-response","226","2.0.0","240572","p6qe0b2olsa","mus","wolf","20","female","yes","yes","5","4","445","<div style=""font-size:30px;"">Press space to start the trial</div>"," ","","","","","","",""
"","","","","","html-keyboard-response","227","2.0.0","240825","p6qe0b2olsa","mus","wolf","20","female","yes","yes","5","4","null","<div style=""font-size:60px;"">+</div>","null","","","","","","",""
"","","","","","audio-keyboard-response","228","2.0.0","241424","p6qe0b2olsa","mus","wolf","20","female","yes","yes","5","4","null","stimuli/sounds/bird_sound_B.wav","null","","","","","","",""
"","","","","","html-keyboard-response","229","2.0.0","242427","p6qe0b2olsa","mus","wolf","20","female","yes","yes","5","4","null","","null","","","","","","",""
"","","","","","image-keyboard-response","230","2.0.0","242989","p6qe0b2olsa","mus","wolf","20","female","yes","yes","5","4","560","stimuli/pictures/bird_hawk_1.jpg","1","1","","true","no","sound","stimuli/sounds/bird_sound_B.wav",""
"","","","","","audio-keyboard-response","231","2.0.0","243992","p6qe0b2olsa","mus","wolf","20","female","yes","yes","5","4","null","stimuli/sounds/bleep.wav","null","","","","","","",""
"","","","","","html-keyboard-response","232","2.0.0","245252","p6qe0b2olsa","mus","wolf","20","female","yes","yes","5","4","1158","<div style=""font-size:30px;"">Press space to start the trial</div>"," ","","","","","","",""
"","","","","","html-keyboard-response","233","2.0.0","245504","p6qe0b2olsa","mus","wolf","20","female","yes","yes","5","4","null","<div style=""font-size:60px;"">+</div>","null","","","","","","",""
"","","","","","audio-keyboard-response","234","2.0.0","246104","p6qe0b2olsa","mus","wolf","20","female","yes","yes","5","4","null","stimuli/sounds/bird_sound_A.wav","null","","","","","","",""
"","","","","","html-keyboard-response","235","2.0.0","247106","p6qe0b2olsa","mus","wolf","20","female","yes","yes","5","4","null","","null","","","","","","",""
"","","","","","image-keyboard-response","236","2.0.0","248002","p6qe0b2olsa","mus","wolf","20","female","yes","yes","5","4","894","stimuli/pictures/bird_song_1.jpg","1","1","","true","no","sound","stimuli/sounds/bird_sound_A.wav",""
"","","","","","audio-keyboard-response","237","2.0.0","249004","p6qe0b2olsa","mus","wolf","20","female","yes","yes","5","4","null","stimuli/sounds/bleep.wav","null","","","","","","",""
"","","","","","html-keyboard-response","238","2.0.0","249595","p6qe0b2olsa","mus","wolf","20","female","yes","yes","5","4","489","<div style=""font-size:30px;"">Press space to start the trial</div>"," ","","","","","","",""
"","","","","","html-keyboard-response","239","2.0.0","249848","p6qe0b2olsa","mus","wolf","20","female","yes","yes","5","4","null","<div style=""font-size:60px;"">+</div>","null","","","","","","",""
"","","","","","audio-keyboard-response","240","2.0.0","250448","p6qe0b2olsa","mus","wolf","20","female","yes","yes","5","4","null","stimuli/sounds/bird_sound_A.wav","null","","","","","","",""
"","","","","","html-keyboard-response","241","2.0.0","251450","p6qe0b2olsa","mus","wolf","20","female","yes","yes","5","4","null","","null","","","","","","",""
"","","","","","image-keyboard-response","242","2.0.0","251819","p6qe0b2olsa","mus","wolf","20","female","yes","yes","5","4","367","stimuli/pictures/piano_electric_2.jpg","0","0","","true","no","sound","stimuli/sounds/bird_sound_A.wav",""
"","","","","","audio-keyboard-response","243","2.0.0","252822","p6qe0b2olsa","mus","wolf","20","female","yes","yes","5","4","null","stimuli/sounds/bleep.wav","null","","","","","","",""
"","","","","","html-keyboard-response","244","2.0.0","253354","p6qe0b2olsa","mus","wolf","20","female","yes","yes","5","4","429","<div style=""font-size:30px;"">Press space to start the trial</div>"," ","","","","","","",""
"","","","","","html-keyboard-response","245","2.0.0","253606","p6qe0b2olsa","mus","wolf","20","female","yes","yes","5","4","null","<div style=""font-size:60px;"">+</div>","null","","","","","","",""
"","","","","","audio-keyboard-response","246","2.0.0","254208","p6qe0b2olsa","mus","wolf","20","female","yes","yes","5","4","null","stimuli/sounds/piano_label_B.wav","null","","","","","","",""
"","","","","","html-keyboard-response","247","2.0.0","255211","p6qe0b2olsa","mus","wolf","20","female","yes","yes","5","4","null","","null","","","","","","",""
"","","","","","image-keyboard-response","248","2.0.0","255802","p6qe0b2olsa","mus","wolf","20","female","yes","yes","5","4","589","stimuli/pictures/bird_hawk_1.jpg","0","0","","true","no","sound","stimuli/sounds/piano_label_B.wav",""
"","","","","","audio-keyboard-response","249","2.0.0","256804","p6qe0b2olsa","mus","wolf","20","female","yes","yes","5","4","null","stimuli/sounds/bleep.wav","null","","","","","","",""
"","","","","","html-keyboard-response","250","2.0.0","257541","p6qe0b2olsa","mus","wolf","20","female","yes","yes","5","4","635","<div style=""font-size:30px;"">Press space to start the trial</div>"," ","","","","","","",""
"","","","","","html-keyboard-response","251","2.0.0","257793","p6qe0b2olsa","mus","wolf","20","female","yes","yes","5","4","null","<div style=""font-size:60px;"">+</div>","null","","","","","","",""
"","","","","","audio-keyboard-response","252","2.0.0","258419","p6qe0b2olsa","mus","wolf","20","female","yes","yes","5","4","null","stimuli/sounds/piano_label_A.wav","null","","","","","","",""
"","","","","","html-keyboard-response","253","2.0.0","259421","p6qe0b2olsa","mus","wolf","20","female","yes","yes","5","4","null","","null","","","","","","",""
"","","","","","image-keyboard-response","254","2.0.0","259951","p6qe0b2olsa","mus","wolf","20","female","yes","yes","5","4","528","stimuli/pictures/phone_rotary_2.jpg","0","0","","true","no","sound","stimuli/sounds/piano_label_A.wav",""
"","","","","","audio-keyboard-response","255","2.0.0","260954","p6qe0b2olsa","mus","wolf","20","female","yes","yes","5","4","null","stimuli/sounds/bleep.wav","null","","","","","","",""
"","","","","","html-keyboard-response","256","2.0.0","261728","p6qe0b2olsa","mus","wolf","20","female","yes","yes","5","4","671","<div style=""font-size:30px;"">Press space to start the trial</div>"," ","","","","","","",""
"","","","","","html-keyboard-response","257","2.0.0","261980","p6qe0b2olsa","mus","wolf","20","female","yes","yes","5","4","null","<div style=""font-size:60px;"">+</div>","null","","","","","","",""
"","","","","","audio-keyboard-response","258","2.0.0","262579","p6qe0b2olsa","mus","wolf","20","female","yes","yes","5","4","null","stimuli/sounds/drum_sound_A.wav","null","","","","","","",""
"","","","","","html-keyboard-response","259","2.0.0","263582","p6qe0b2olsa","mus","wolf","20","female","yes","yes","5","4","null","","null","","","","","","",""
"","","","","","image-keyboard-response","260","2.0.0","265462","p6qe0b2olsa","mus","wolf","20","female","yes","yes","5","4","1879","stimuli/pictures/drum_bongo_2.jpg","1","1","","true","no","sound","stimuli/sounds/drum_sound_A.wav",""
"","","","","","audio-keyboard-response","261","2.0.0","266464","p6qe0b2olsa","mus","wolf","20","female","yes","yes","5","4","null","stimuli/sounds/bleep.wav","null","","","","","","",""
"","","","","","html-keyboard-response","262","2.0.0","267321","p6qe0b2olsa","mus","wolf","20","female","yes","yes","5","4","755","<div style=""font-size:30px;"">Press space to start the trial</div>"," ","","","","","","",""
"","","","","","html-keyboard-response","263","2.0.0","267573","p6qe0b2olsa","mus","wolf","20","female","yes","yes","5","4","null","<div style=""font-size:60px;"">+</div>","null","","","","","","",""
"","","","","","audio-keyboard-response","264","2.0.0","268176","p6qe0b2olsa","mus","wolf","20","female","yes","yes","5","4","null","stimuli/sounds/piano_label_B.wav","null","","","","","","",""
"","","","","","html-keyboard-response","265","2.0.0","269178","p6qe0b2olsa","mus","wolf","20","female","yes","yes","5","4","null","","null","","","","","","",""
"","","","","","image-keyboard-response","266","2.0.0","270270","p6qe0b2olsa","mus","wolf","20","female","yes","yes","5","4","1090","stimuli/pictures/bird_song_1.jpg","0","0","","true","no","sound","stimuli/sounds/piano_label_B.wav",""
"","","","","","audio-keyboard-response","267","2.0.0","271273","p6qe0b2olsa","mus","wolf","20","female","yes","yes","5","4","null","stimuli/sounds/bleep.wav","null","","","","","","",""
"","","","","","html-keyboard-response","268","2.0.0","272557","p6qe0b2olsa","mus","wolf","20","female","yes","yes","5","4","1181","<p>You have completed a block. Press R when you are ready to continue</p>","r","","","","","","",""
"","","","","","html-keyboard-response","269","2.0.0","273115","p6qe0b2olsa","mus","wolf","20","female","yes","yes","5","4","558","<div style=""font-size:30px;"">Press space to start the trial</div>"," ","","","","","","",""
"","","","","","html-keyboard-response","270","2.0.0","273367","p6qe0b2olsa","mus","wolf","20","female","yes","yes","5","4","null","<div style=""font-size:60px;"">+</div>","null","","","","","","",""
"","","","","","audio-keyboard-response","271","2.0.0","273971","p6qe0b2olsa","mus","wolf","20","female","yes","yes","5","4","null","stimuli/sounds/flute_label_B.wav","null","","","","","","",""
"","","","","","html-keyboard-response","272","2.0.0","274974","p6qe0b2olsa","mus","wolf","20","female","yes","yes","5","4","null","","null","","","","","","",""
"","","","","","image-keyboard-response","273","2.0.0","275615","p6qe0b2olsa","mus","wolf","20","female","yes","yes","5","4","640","stimuli/pictures/drum_kit_2.jpg","0","0","","true","no","sound","stimuli/sounds/flute_label_B.wav",""
"","","","","","audio-keyboard-response","274","2.0.0","276619","p6qe0b2olsa","mus","wolf","20","female","yes","yes","5","4","null","stimuli/sounds/bleep.wav","null","","","","","","",""
"","","","","","html-keyboard-response","275","2.0.0","277495","p6qe0b2olsa","mus","wolf","20","female","yes","yes","5","4","774","<div style=""font-size:30px;"">Press space to start the trial</div>"," ","","","","","","",""
"","","","","","html-keyboard-response","276","2.0.0","277747","p6qe0b2olsa","mus","wolf","20","female","yes","yes","5","4","null","<div style=""font-size:60px;"">+</div>","null","","","","","","",""
"","","","","","audio-keyboard-response","277","2.0.0","278347","p6qe0b2olsa","mus","wolf","20","female","yes","yes","5","4","null","stimuli/sounds/phone_label_B.wav","null","","","","","","",""
"","","","","","html-keyboard-response","278","2.0.0","279349","p6qe0b2olsa","mus","wolf","20","female","yes","yes","5","4","null","","null","","","","","","",""
"","","","","","image-keyboard-response","279","2.0.0","279921","p6qe0b2olsa","mus","wolf","20","female","yes","yes","5","4","571","stimuli/pictures/flute_wooden_1.jpg","0","0","","true","no","sound","stimuli/sounds/phone_label_B.wav",""
"","","","","","audio-keyboard-response","280","2.0.0","280924","p6qe0b2olsa","mus","wolf","20","female","yes","yes","5","4","null","stimuli/sounds/bleep.wav","null","","","","","","",""
"","","","","","html-keyboard-response","281","2.0.0","281528","p6qe0b2olsa","mus","wolf","20","female","yes","yes","5","4","501","<div style=""font-size:30px;"">Press space to start the trial</div>"," ","","","","","","",""
"","","","","","html-keyboard-response","282","2.0.0","281780","p6qe0b2olsa","mus","wolf","20","female","yes","yes","5","4","null","<div style=""font-size:60px;"">+</div>","null","","","","","","",""
"","","","","","audio-keyboard-response","283","2.0.0","282379","p6qe0b2olsa","mus","wolf","20","female","yes","yes","5","4","null","stimuli/sounds/phone_label_A.wav","null","","","","","","",""
"","","","","","html-keyboard-response","284","2.0.0","283381","p6qe0b2olsa","mus","wolf","20","female","yes","yes","5","4","null","","null","","","","","","",""
"","","","","","image-keyboard-response","285","2.0.0","283985","p6qe0b2olsa","mus","wolf","20","female","yes","yes","5","4","602","stimuli/pictures/phone_rotary_2.jpg","1","1","","true","yes","sound","stimuli/sounds/phone_label_A.wav",""
"","","","","","audio-keyboard-response","286","2.0.0","284988","p6qe0b2olsa","mus","wolf","20","female","yes","yes","5","4","null","stimuli/sounds/bleep.wav","null","","","","","","",""
"","","","","","html-keyboard-response","287","2.0.0","285557","p6qe0b2olsa","mus","wolf","20","female","yes","yes","5","4","466","<div style=""font-size:30px;"">Press space to start the trial</div>"," ","","","","","","",""
"","","","","","html-keyboard-response","288","2.0.0","285810","p6qe0b2olsa","mus","wolf","20","female","yes","yes","5","4","null","<div style=""font-size:60px;"">+</div>","null","","","","","","",""
"","","","","","audio-keyboard-response","289","2.0.0","286411","p6qe0b2olsa","mus","wolf","20","female","yes","yes","5","4","null","stimuli/sounds/flute_sound_A.wav","null","","","","","","",""
"","","","","","html-keyboard-response","290","2.0.0","287413","p6qe0b2olsa","mus","wolf","20","female","yes","yes","5","4","null","","null","","","","","","",""
"","","","","","image-keyboard-response","291","2.0.0","287979","p6qe0b2olsa","mus","wolf","20","female","yes","yes","5","4","564","stimuli/pictures/phone_cell_1.jpg","0","0","","true","no","sound","stimuli/sounds/flute_sound_A.wav",""
"","","","","","audio-keyboard-response","292","2.0.0","288981","p6qe0b2olsa","mus","wolf","20","female","yes","yes","5","4","null","stimuli/sounds/bleep.wav","null","","","","","","",""
"","","","","","html-keyboard-response","293","2.0.0","289636","p6qe0b2olsa","mus","wolf","20","female","yes","yes","5","4","553","<div style=""font-size:30px;"">Press space to start the trial</div>"," ","","","","","","",""
"","","","","","html-keyboard-response","294","2.0.0","289889","p6qe0b2olsa","mus","wolf","20","female","yes","yes","5","4","null","<div style=""font-size:60px;"">+</div>","null","","","","","","",""
"","","","","","audio-keyboard-response","295","2.0.0","290488","p6qe0b2olsa","mus","wolf","20","female","yes","yes","5","4","null","stimuli/sounds/phone_sound_A.wav","null","","","","","","",""
"","","","","","html-keyboard-response","296","2.0.0","291491","p6qe0b2olsa","mus","wolf","20","female","yes","yes","5","4","null","","null","","","","","","",""
"","","","","","image-keyboard-response","297","2.0.0","291993","p6qe0b2olsa","mus","wolf","20","female","yes","yes","5","4","501","stimuli/pictures/phone_cell_2.jpg","1","1","","true","yes","sound","stimuli/sounds/phone_sound_A.wav",""
"","","","","","audio-keyboard-response","298","2.0.0","292995","p6qe0b2olsa","mus","wolf","20","female","yes","yes","5","4","null","stimuli/sounds/bleep.wav","null","","","","","","",""
"","","","","","html-keyboard-response","299","2.0.0","293604","p6qe0b2olsa","mus","wolf","20","female","yes","yes","5","4","507","<div style=""font-size:30px;"">Press space to start the trial</div>"," ","","","","","","",""
"","","","","","html-keyboard-response","300","2.0.0","293856","p6qe0b2olsa","mus","wolf","20","female","yes","yes","5","4","null","<div style=""font-size:60px;"">+</div>","null","","","","","","",""
"","","","","","audio-keyboard-response","301","2.0.0","294462","p6qe0b2olsa","mus","wolf","20","female","yes","yes","5","4","null","stimuli/sounds/flute_label_B.wav","null","","","","","","",""
"","","","","","html-keyboard-response","302","2.0.0","295464","p6qe0b2olsa","mus","wolf","20","female","yes","yes","5","4","null","","null","","","","","","",""
"","","","","","image-keyboard-response","303","2.0.0","295970","p6qe0b2olsa","mus","wolf","20","female","yes","yes","5","4","505","stimuli/pictures/flute_metal_1.jpg","1","1","","true","yes","sound","stimuli/sounds/flute_label_B.wav",""
"","","","","","audio-keyboard-response","304","2.0.0","296972","p6qe0b2olsa","mus","wolf","20","female","yes","yes","5","4","null","stimuli/sounds/bleep.wav","null","","","","","","",""
"","","","","","html-keyboard-response","305","2.0.0","297643","p6qe0b2olsa","mus","wolf","20","female","yes","yes","5","4","569","<div style=""font-size:30px;"">Press space to start the trial</div>"," ","","","","","","",""
"","","","","","html-keyboard-response","306","2.0.0","297895","p6qe0b2olsa","mus","wolf","20","female","yes","yes","5","4","null","<div style=""font-size:60px;"">+</div>","null","","","","","","",""
"","","","","","audio-keyboard-response","307","2.0.0","298502","p6qe0b2olsa","mus","wolf","20","female","yes","yes","5","4","null","stimuli/sounds/piano_sound_A.wav","null","","","","","","",""
"","","","","","html-keyboard-response","308","2.0.0","299504","p6qe0b2olsa","mus","wolf","20","female","yes","yes","5","4","null","","null","","","","","","",""
"","","","","","image-keyboard-response","309","2.0.0","299900","p6qe0b2olsa","mus","wolf","20","female","yes","yes","5","4","395","stimuli/pictures/drum_bongo_1.jpg","0","0","","true","no","sound","stimuli/sounds/piano_sound_A.wav",""
"","","","","","audio-keyboard-response","310","2.0.0","300903","p6qe0b2olsa","mus","wolf","20","female","yes","yes","5","4","null","stimuli/sounds/bleep.wav","null","","","","","","",""
"","","","","","html-keyboard-response","311","2.0.0","301580","p6qe0b2olsa","mus","wolf","20","female","yes","yes","5","4","575","<div style=""font-size:30px;"">Press space to start the trial</div>"," ","","","","","","",""
"","","","","","html-keyboard-response","312","2.0.0","301832","p6qe0b2olsa","mus","wolf","20","female","yes","yes","5","4","null","<div style=""font-size:60px;"">+</div>","null","","","","","","",""
"","","","","","audio-keyboard-response","313","2.0.0","302438","p6qe0b2olsa","mus","wolf","20","female","yes","yes","5","4","null","stimuli/sounds/piano_sound_B.wav","null","","","","","","",""
"","","","","","html-keyboard-response","314","2.0.0","303440","p6qe0b2olsa","mus","wolf","20","female","yes","yes","5","4","null","","null","","","","","","",""
"","","","","","image-keyboard-response","315","2.0.0","304561","p6qe0b2olsa","mus","wolf","20","female","yes","yes","5","4","1119","stimuli/pictures/flute_metal_1.jpg","0","0","","true","no","sound","stimuli/sounds/piano_sound_B.wav",""
"","","","","","audio-keyboard-response","316","2.0.0","305564","p6qe0b2olsa","mus","wolf","20","female","yes","yes","5","4","null","stimuli/sounds/bleep.wav","null","","","","","","",""
"","","","","","html-keyboard-response","317","2.0.0","306190","p6qe0b2olsa","mus","wolf","20","female","yes","yes","5","4","524","<div style=""font-size:30px;"">Press space to start the trial</div>"," ","","","","","","",""
"","","","","","html-keyboard-response","318","2.0.0","306442","p6qe0b2olsa","mus","wolf","20","female","yes","yes","5","4","null","<div style=""font-size:60px;"">+</div>","null","","","","","","",""
"","","","","","audio-keyboard-response","319","2.0.0","307059","p6qe0b2olsa","mus","wolf","20","female","yes","yes","5","4","null","stimuli/sounds/flute_sound_B.wav","null","","","","","","",""
"","","","","","html-keyboard-response","320","2.0.0","308060","p6qe0b2olsa","mus","wolf","20","female","yes","yes","5","4","null","","null","","","","","","",""
"","","","","","image-keyboard-response","321","2.0.0","308698","p6qe0b2olsa","mus","wolf","20","female","yes","yes","5","4","636","stimuli/pictures/bird_song_1.jpg","0","0","","true","no","sound","stimuli/sounds/flute_sound_B.wav",""
"","","","","","audio-keyboard-response","322","2.0.0","309701","p6qe0b2olsa","mus","wolf","20","female","yes","yes","5","4","null","stimuli/sounds/bleep.wav","null","","","","","","",""
"","","","","","html-keyboard-response","323","2.0.0","310216","p6qe0b2olsa","mus","wolf","20","female","yes","yes","5","4","414","<div style=""font-size:30px;"">Press space to start the trial</div>"," ","","","","","","",""
"","","","","","html-keyboard-response","324","2.0.0","310469","p6qe0b2olsa","mus","wolf","20","female","yes","yes","5","4","null","<div style=""font-size:60px;"">+</div>","null","","","","","","",""
"","","","","","audio-keyboard-response","325","2.0.0","311070","p6qe0b2olsa","mus","wolf","20","female","yes","yes","5","4","null","stimuli/sounds/phone_label_A.wav","null","","","","","","",""
"","","","","","html-keyboard-response","326","2.0.0","312071","p6qe0b2olsa","mus","wolf","20","female","yes","yes","5","4","null","","null","","","","","","",""
"","","","","","image-keyboard-response","327","2.0.0","312810","p6qe0b2olsa","mus","wolf","20","female","yes","yes","5","4","737","stimuli/pictures/drum_kit_1.jpg","0","0","","true","no","sound","stimuli/sounds/phone_label_A.wav",""
"","","","","","audio-keyboard-response","328","2.0.0","313813","p6qe0b2olsa","mus","wolf","20","female","yes","yes","5","4","null","stimuli/sounds/bleep.wav","null","","","","","","",""
"","","","","","html-keyboard-response","329","2.0.0","314418","p6qe0b2olsa","mus","wolf","20","female","yes","yes","5","4","503","<div style=""font-size:30px;"">Press space to start the trial</div>"," ","","","","","","",""
"","","","","","html-keyboard-response","330","2.0.0","314670","p6qe0b2olsa","mus","wolf","20","female","yes","yes","5","4","null","<div style=""font-size:60px;"">+</div>","null","","","","","","",""
"","","","","","audio-keyboard-response","331","2.0.0","315270","p6qe0b2olsa","mus","wolf","20","female","yes","yes","5","4","null","stimuli/sounds/phone_label_B.wav","null","","","","","","",""
"","","","","","html-keyboard-response","332","2.0.0","316271","p6qe0b2olsa","mus","wolf","20","female","yes","yes","5","4","null","","null","","","","","","",""
"","","","","","image-keyboard-response","333","2.0.0","317072","p6qe0b2olsa","mus","wolf","20","female","yes","yes","5","4","799","stimuli/pictures/phone_rotary_2.jpg","1","1","","true","yes","sound","stimuli/sounds/phone_label_B.wav",""
"","","","","","audio-keyboard-response","334","2.0.0","318075","p6qe0b2olsa","mus","wolf","20","female","yes","yes","5","4","null","stimuli/sounds/bleep.wav","null","","","","","","",""
"","","","","","html-keyboard-response","335","2.0.0","318795","p6qe0b2olsa","mus","wolf","20","female","yes","yes","5","4","619","<div style=""font-size:30px;"">Press space to start the trial</div>"," ","","","","","","",""
"","","","","","html-keyboard-response","336","2.0.0","319046","p6qe0b2olsa","mus","wolf","20","female","yes","yes","5","4","null","<div style=""font-size:60px;"">+</div>","null","","","","","","",""
"","","","","","audio-keyboard-response","337","2.0.0","319646","p6qe0b2olsa","mus","wolf","20","female","yes","yes","5","4","null","stimuli/sounds/drum_label_B.wav","null","","","","","","",""
"","","","","","html-keyboard-response","338","2.0.0","320648","p6qe0b2olsa","mus","wolf","20","female","yes","yes","5","4","null","","null","","","","","","",""
"","","","","","image-keyboard-response","339","2.0.0","321267","p6qe0b2olsa","mus","wolf","20","female","yes","yes","5","4","618","stimuli/pictures/piano_grand_2.jpg","0","0","","true","no","sound","stimuli/sounds/drum_label_B.wav",""
"","","","","","audio-keyboard-response","340","2.0.0","322270","p6qe0b2olsa","mus","wolf","20","female","yes","yes","5","4","null","stimuli/sounds/bleep.wav","null","","","","","","",""
"","","","","","html-keyboard-response","341","2.0.0","322859","p6qe0b2olsa","mus","wolf","20","female","yes","yes","5","4","487","<div style=""font-size:30px;"">Press space to start the trial</div>"," ","","","","","","",""
"","","","","","html-keyboard-response","342","2.0.0","323111","p6qe0b2olsa","mus","wolf","20","female","yes","yes","5","4","null","<div style=""font-size:60px;"">+</div>","null","","","","","","",""
"","","","","","audio-keyboard-response","343","2.0.0","323710","p6qe0b2olsa","mus","wolf","20","female","yes","yes","5","4","null","stimuli/sounds/drum_sound_B.wav","null","","","","","","",""
"","","","","","html-keyboard-response","344","2.0.0","324712","p6qe0b2olsa","mus","wolf","20","female","yes","yes","5","4","null","","null","","","","","","",""
"","","","","","image-keyboard-response","345","2.0.0","325808","p6qe0b2olsa","mus","wolf","20","female","yes","yes","5","4","1094","stimuli/pictures/drum_kit_1.jpg","0","1","","false","no","sound","stimuli/sounds/drum_sound_B.wav",""
"","","","","","audio-keyboard-response","346","2.0.0","326811","p6qe0b2olsa","mus","wolf","20","female","yes","yes","5","4","null","stimuli/sounds/buzz.wav","null","","","","","","",""
"","","","","","html-keyboard-response","347","2.0.0","327334","p6qe0b2olsa","mus","wolf","20","female","yes","yes","5","4","421","<div style=""font-size:30px;"">Press space to start the trial</div>"," ","","","","","","",""
"","","","","","html-keyboard-response","348","2.0.0","327586","p6qe0b2olsa","mus","wolf","20","female","yes","yes","5","4","null","<div style=""font-size:60px;"">+</div>","null","","","","","","",""
"","","","","","audio-keyboard-response","349","2.0.0","328184","p6qe0b2olsa","mus","wolf","20","female","yes","yes","5","4","null","stimuli/sounds/drum_sound_A.wav","null","","","","","","",""
"","","","","","html-keyboard-response","350","2.0.0","329186","p6qe0b2olsa","mus","wolf","20","female","yes","yes","5","4","null","","null","","","","","","",""
"","","","","","image-keyboard-response","351","2.0.0","329946","p6qe0b2olsa","mus","wolf","20","female","yes","yes","5","4","758","stimuli/pictures/flute_metal_1.jpg","0","0","","true","no","sound","stimuli/sounds/drum_sound_A.wav",""
"","","","","","audio-keyboard-response","352","2.0.0","330948","p6qe0b2olsa","mus","wolf","20","female","yes","yes","5","4","null","stimuli/sounds/bleep.wav","null","","","","","","",""
"","","","","","html-keyboard-response","353","2.0.0","331917","p6qe0b2olsa","mus","wolf","20","female","yes","yes","5","4","867","<div style=""font-size:30px;"">Press space to start the trial</div>"," ","","","","","","",""
"","","","","","html-keyboard-response","354","2.0.0","332169","p6qe0b2olsa","mus","wolf","20","female","yes","yes","5","4","null","<div style=""font-size:60px;"">+</div>","null","","","","","","",""
"","","","","","audio-keyboard-response","355","2.0.0","332768","p6qe0b2olsa","mus","wolf","20","female","yes","yes","5","4","null","stimuli/sounds/drum_label_B.wav","null","","","","","","",""
"","","","","","html-keyboard-response","356","2.0.0","333770","p6qe0b2olsa","mus","wolf","20","female","yes","yes","5","4","null","","null","","","","","","",""
"","","","","","image-keyboard-response","357","2.0.0","334416","p6qe0b2olsa","mus","wolf","20","female","yes","yes","5","4","645","stimuli/pictures/drum_kit_1.jpg","1","1","","true","yes","sound","stimuli/sounds/drum_label_B.wav",""
"","","","","","audio-keyboard-response","358","2.0.0","335419","p6qe0b2olsa","mus","wolf","20","female","yes","yes","5","4","null","stimuli/sounds/bleep.wav","null","","","","","","",""
"","","","","","html-keyboard-response","359","2.0.0","336091","p6qe0b2olsa","mus","wolf","20","female","yes","yes","5","4","569","<div style=""font-size:30px;"">Press space to start the trial</div>"," ","","","","","","",""
"","","","","","html-keyboard-response","360","2.0.0","336343","p6qe0b2olsa","mus","wolf","20","female","yes","yes","5","4","null","<div style=""font-size:60px;"">+</div>","null","","","","","","",""
"","","","","","audio-keyboard-response","361","2.0.0","336942","p6qe0b2olsa","mus","wolf","20","female","yes","yes","5","4","null","stimuli/sounds/bird_sound_A.wav","null","","","","","","",""
"","","","","","html-keyboard-response","362","2.0.0","337943","p6qe0b2olsa","mus","wolf","20","female","yes","yes","5","4","null","","null","","","","","","",""
"","","","","","image-keyboard-response","363","2.0.0","338899","p6qe0b2olsa","mus","wolf","20","female","yes","yes","5","4","954","stimuli/pictures/piano_grand_1.jpg","0","0","","true","no","sound","stimuli/sounds/bird_sound_A.wav",""
"","","","","","audio-keyboard-response","364","2.0.0","339902","p6qe0b2olsa","mus","wolf","20","female","yes","yes","5","4","null","stimuli/sounds/bleep.wav","null","","","","","","",""
"","","","","","html-keyboard-response","365","2.0.0","340460","p6qe0b2olsa","mus","wolf","20","female","yes","yes","5","4","457","<div style=""font-size:30px;"">Press space to start the trial</div>"," ","","","","","","",""
"","","","","","html-keyboard-response","366","2.0.0","340712","p6qe0b2olsa","mus","wolf","20","female","yes","yes","5","4","null","<div style=""font-size:60px;"">+</div>","null","","","","","","",""
"","","","","","audio-keyboard-response","367","2.0.0","341315","p6qe0b2olsa","mus","wolf","20","female","yes","yes","5","4","null","stimuli/sounds/piano_label_B.wav","null","","","","","","",""
"","","","","","html-keyboard-response","368","2.0.0","342317","p6qe0b2olsa","mus","wolf","20","female","yes","yes","5","4","null","","null","","","","","","",""
"","","","","","image-keyboard-response","369","2.0.0","342993","p6qe0b2olsa","mus","wolf","20","female","yes","yes","5","4","674","stimuli/pictures/piano_electric_2.jpg","1","1","","true","yes","sound","stimuli/sounds/piano_label_B.wav",""
"","","","","","audio-keyboard-response","370","2.0.0","343995","p6qe0b2olsa","mus","wolf","20","female","yes","yes","5","4","null","stimuli/sounds/bleep.wav","null","","","","","","",""
"","","","","","html-keyboard-response","371","2.0.0","344596","p6qe0b2olsa","mus","wolf","20","female","yes","yes","5","4","499","<div style=""font-size:30px;"">Press space to start the trial</div>"," ","","","","","","",""
"","","","","","html-keyboard-response","372","2.0.0","344849","p6qe0b2olsa","mus","wolf","20","female","yes","yes","5","4","null","<div style=""font-size:60px;"">+</div>","null","","","","","","",""
"","","","","","audio-keyboard-response","373","2.0.0","345456","p6qe0b2olsa","mus","wolf","20","female","yes","yes","5","4","null","stimuli/sounds/piano_sound_A.wav","null","","","","","","",""
"","","","","","html-keyboard-response","374","2.0.0","346459","p6qe0b2olsa","mus","wolf","20","female","yes","yes","5","4","null","","null","","","","","","",""
"","","","","","image-keyboard-response","375","2.0.0","347280","p6qe0b2olsa","mus","wolf","20","female","yes","yes","5","4","819","stimuli/pictures/drum_bongo_2.jpg","0","0","","true","no","sound","stimuli/sounds/piano_sound_A.wav",""
"","","","","","audio-keyboard-response","376","2.0.0","348283","p6qe0b2olsa","mus","wolf","20","female","yes","yes","5","4","null","stimuli/sounds/bleep.wav","null","","","","","","",""
"","","","","","html-keyboard-response","377","2.0.0","349191","p6qe0b2olsa","mus","wolf","20","female","yes","yes","5","4","805","<div style=""font-size:30px;"">Press space to start the trial</div>"," ","","","","","","",""
"","","","","","html-keyboard-response","378","2.0.0","349444","p6qe0b2olsa","mus","wolf","20","female","yes","yes","5","4","null","<div style=""font-size:60px;"">+</div>","null","","","","","","",""
"","","","","","audio-keyboard-response","379","2.0.0","350046","p6qe0b2olsa","mus","wolf","20","female","yes","yes","5","4","null","stimuli/sounds/flute_sound_A.wav","null","","","","","","",""
"","","","","","html-keyboard-response","380","2.0.0","351048","p6qe0b2olsa","mus","wolf","20","female","yes","yes","5","4","null","","null","","","","","","",""
"","","","","","image-keyboard-response","381","2.0.0","352169","p6qe0b2olsa","mus","wolf","20","female","yes","yes","5","4","1119","stimuli/pictures/flute_wooden_2.jpg","1","1","","true","no","sound","stimuli/sounds/flute_sound_A.wav",""
"","","","","","audio-keyboard-response","382","2.0.0","353171","p6qe0b2olsa","mus","wolf","20","female","yes","yes","5","4","null","stimuli/sounds/bleep.wav","null","","","","","","",""
"","","","","","html-keyboard-response","383","2.0.0","353783","p6qe0b2olsa","mus","wolf","20","female","yes","yes","5","4","511","<div style=""font-size:30px;"">Press space to start the trial</div>"," ","","","","","","",""
"","","","","","html-keyboard-response","384","2.0.0","354034","p6qe0b2olsa","mus","wolf","20","female","yes","yes","5","4","null","<div style=""font-size:60px;"">+</div>","null","","","","","","",""
"","","","","","audio-keyboard-response","385","2.0.0","354638","p6qe0b2olsa","mus","wolf","20","female","yes","yes","5","4","null","stimuli/sounds/flute_sound_A.wav","null","","","","","","",""
"","","","","","html-keyboard-response","386","2.0.0","355640","p6qe0b2olsa","mus","wolf","20","female","yes","yes","5","4","null","","null","","","","","","",""
"","","","","","image-keyboard-response","387","2.0.0","356193","p6qe0b2olsa","mus","wolf","20","female","yes","yes","5","4","552","stimuli/pictures/flute_metal_1.jpg","1","1","","true","yes","sound","stimuli/sounds/flute_sound_A.wav",""
"","","","","","audio-keyboard-response","388","2.0.0","357196","p6qe0b2olsa","mus","wolf","20","female","yes","yes","5","4","null","stimuli/sounds/bleep.wav","null","","","","","","",""
"","","","","","html-keyboard-response","389","2.0.0","373639","p6qe0b2olsa","mus","wolf","20","female","yes","yes","5","4","16341","<p>You have completed a block. Press R when you are ready to continue</p>","r","","","","","","",""
"","","","","","html-keyboard-response","390","2.0.0","374176","p6qe0b2olsa","mus","wolf","20","female","yes","yes","5","4","537","<div style=""font-size:30px;"">Press space to start the trial</div>"," ","","","","","","",""
"","","","","","html-keyboard-response","391","2.0.0","374428","p6qe0b2olsa","mus","wolf","20","female","yes","yes","5","4","null","<div style=""font-size:60px;"">+</div>","null","","","","","","",""
"","","","","","audio-keyboard-response","392","2.0.0","375027","p6qe0b2olsa","mus","wolf","20","female","yes","yes","5","4","null","stimuli/sounds/phone_label_A.wav","null","","","","","","",""
"","","","","","html-keyboard-response","393","2.0.0","376029","p6qe0b2olsa","mus","wolf","20","female","yes","yes","5","4","null","","null","","","","","","",""
"","","","","","image-keyboard-response","394","2.0.0","376762","p6qe0b2olsa","mus","wolf","20","female","yes","yes","5","4","731","stimuli/pictures/phone_cell_1.jpg","1","1","","true","yes","sound","stimuli/sounds/phone_label_A.wav",""
"","","","","","audio-keyboard-response","395","2.0.0","377764","p6qe0b2olsa","mus","wolf","20","female","yes","yes","5","4","null","stimuli/sounds/bleep.wav","null","","","","","","",""
"","","","","","html-keyboard-response","396","2.0.0","378502","p6qe0b2olsa","mus","wolf","20","female","yes","yes","5","4","636","<div style=""font-size:30px;"">Press space to start the trial</div>"," ","","","","","","",""
"","","","","","html-keyboard-response","397","2.0.0","378754","p6qe0b2olsa","mus","wolf","20","female","yes","yes","5","4","null","<div style=""font-size:60px;"">+</div>","null","","","","","","",""
"","","","","","audio-keyboard-response","398","2.0.0","379358","p6qe0b2olsa","mus","wolf","20","female","yes","yes","5","4","null","stimuli/sounds/flute_label_B.wav","null","","","","","","",""
"","","","","","html-keyboard-response","399","2.0.0","380360","p6qe0b2olsa","mus","wolf","20","female","yes","yes","5","4","null","","null","","","","","","",""
"","","","","","image-keyboard-response","400","2.0.0","380861","p6qe0b2olsa","mus","wolf","20","female","yes","yes","5","4","499","stimuli/pictures/flute_wooden_1.jpg","1","1","","true","yes","sound","stimuli/sounds/flute_label_B.wav",""
"","","","","","audio-keyboard-response","401","2.0.0","381864","p6qe0b2olsa","mus","wolf","20","female","yes","yes","5","4","null","stimuli/sounds/bleep.wav","null","","","","","","",""
"","","","","","html-keyboard-response","402","2.0.0","382522","p6qe0b2olsa","mus","wolf","20","female","yes","yes","5","4","556","<div style=""font-size:30px;"">Press space to start the trial</div>"," ","","","","","","",""
"","","","","","html-keyboard-response","403","2.0.0","382774","p6qe0b2olsa","mus","wolf","20","female","yes","yes","5","4","null","<div style=""font-size:60px;"">+</div>","null","","","","","","",""
"","","","","","audio-keyboard-response","404","2.0.0","383400","p6qe0b2olsa","mus","wolf","20","female","yes","yes","5","4","null","stimuli/sounds/piano_label_A.wav","null","","","","","","",""
"","","","","","html-keyboard-response","405","2.0.0","384402","p6qe0b2olsa","mus","wolf","20","female","yes","yes","5","4","null","","null","","","","","","",""
"","","","","","image-keyboard-response","406","2.0.0","385027","p6qe0b2olsa","mus","wolf","20","female","yes","yes","5","4","624","stimuli/pictures/phone_cell_2.jpg","0","0","","true","no","sound","stimuli/sounds/piano_label_A.wav",""
"","","","","","audio-keyboard-response","407","2.0.0","386030","p6qe0b2olsa","mus","wolf","20","female","yes","yes","5","4","null","stimuli/sounds/bleep.wav","null","","","","","","",""
"","","","","","html-keyboard-response","408","2.0.0","386694","p6qe0b2olsa","mus","wolf","20","female","yes","yes","5","4","563","<div style=""font-size:30px;"">Press space to start the trial</div>"," ","","","","","","",""
"","","","","","html-keyboard-response","409","2.0.0","386947","p6qe0b2olsa","mus","wolf","20","female","yes","yes","5","4","null","<div style=""font-size:60px;"">+</div>","null","","","","","","",""
"","","","","","audio-keyboard-response","410","2.0.0","387547","p6qe0b2olsa","mus","wolf","20","female","yes","yes","5","4","null","stimuli/sounds/phone_label_B.wav","null","","","","","","",""
"","","","","","html-keyboard-response","411","2.0.0","388550","p6qe0b2olsa","mus","wolf","20","female","yes","yes","5","4","null","","null","","","","","","",""
"","","","","","image-keyboard-response","412","2.0.0","389466","p6qe0b2olsa","mus","wolf","20","female","yes","yes","5","4","914","stimuli/pictures/flute_metal_1.jpg","0","0","","true","no","sound","stimuli/sounds/phone_label_B.wav",""
"","","","","","audio-keyboard-response","413","2.0.0","390469","p6qe0b2olsa","mus","wolf","20","female","yes","yes","5","4","null","stimuli/sounds/bleep.wav","null","","","","","","",""
"","","","","","html-keyboard-response","414","2.0.0","391067","p6qe0b2olsa","mus","wolf","20","female","yes","yes","5","4","496","<div style=""font-size:30px;"">Press space to start the trial</div>"," ","","","","","","",""
"","","","","","html-keyboard-response","415","2.0.0","391319","p6qe0b2olsa","mus","wolf","20","female","yes","yes","5","4","null","<div style=""font-size:60px;"">+</div>","null","","","","","","",""
"","","","","","audio-keyboard-response","416","2.0.0","391918","p6qe0b2olsa","mus","wolf","20","female","yes","yes","5","4","null","stimuli/sounds/drum_sound_A.wav","null","","","","","","",""
"","","","","","html-keyboard-response","417","2.0.0","392919","p6qe0b2olsa","mus","wolf","20","female","yes","yes","5","4","null","","null","","","","","","",""
"","","","","","image-keyboard-response","418","2.0.0","393383","p6qe0b2olsa","mus","wolf","20","female","yes","yes","5","4","463","stimuli/pictures/flute_wooden_1.jpg","0","0","","true","no","sound","stimuli/sounds/drum_sound_A.wav",""
"","","","","","audio-keyboard-response","419","2.0.0","394386","p6qe0b2olsa","mus","wolf","20","female","yes","yes","5","4","null","stimuli/sounds/bleep.wav","null","","","","","","",""
"","","","","","html-keyboard-response","420","2.0.0","395024","p6qe0b2olsa","mus","wolf","20","female","yes","yes","5","4","537","<div style=""font-size:30px;"">Press space to start the trial</div>"," ","","","","","","",""
"","","","","","html-keyboard-response","421","2.0.0","395276","p6qe0b2olsa","mus","wolf","20","female","yes","yes","5","4","null","<div style=""font-size:60px;"">+</div>","null","","","","","","",""
"","","","","","audio-keyboard-response","422","2.0.0","395875","p6qe0b2olsa","mus","wolf","20","female","yes","yes","5","4","null","stimuli/sounds/drum_sound_B.wav","null","","","","","","",""
"","","","","","html-keyboard-response","423","2.0.0","396877","p6qe0b2olsa","mus","wolf","20","female","yes","yes","5","4","null","","null","","","","","","",""
"","","","","","image-keyboard-response","424","2.0.0","397445","p6qe0b2olsa","mus","wolf","20","female","yes","yes","5","4","566","stimuli/pictures/phone_cell_2.jpg","0","0","","true","no","sound","stimuli/sounds/drum_sound_B.wav",""
"","","","","","audio-keyboard-response","425","2.0.0","398448","p6qe0b2olsa","mus","wolf","20","female","yes","yes","5","4","null","stimuli/sounds/bleep.wav","null","","","","","","",""
"","","","","","html-keyboard-response","426","2.0.0","399089","p6qe0b2olsa","mus","wolf","20","female","yes","yes","5","4","539","<div style=""font-size:30px;"">Press space to start the trial</div>"," ","","","","","","",""
"","","","","","html-keyboard-response","427","2.0.0","399341","p6qe0b2olsa","mus","wolf","20","female","yes","yes","5","4","null","<div style=""font-size:60px;"">+</div>","null","","","","","","",""
"","","","","","audio-keyboard-response","428","2.0.0","399947","p6qe0b2olsa","mus","wolf","20","female","yes","yes","5","4","null","stimuli/sounds/flute_label_B.wav","null","","","","","","",""
"","","","","","html-keyboard-response","429","2.0.0","400949","p6qe0b2olsa","mus","wolf","20","female","yes","yes","5","4","null","","null","","","","","","",""
"","","","","","image-keyboard-response","430","2.0.0","401395","p6qe0b2olsa","mus","wolf","20","female","yes","yes","5","4","444","stimuli/pictures/flute_metal_2.jpg","1","1","","true","yes","sound","stimuli/sounds/flute_label_B.wav",""
"","","","","","audio-keyboard-response","431","2.0.0","402399","p6qe0b2olsa","mus","wolf","20","female","yes","yes","5","4","null","stimuli/sounds/bleep.wav","null","","","","","","",""
"","","","","","html-keyboard-response","432","2.0.0","402923","p6qe0b2olsa","mus","wolf","20","female","yes","yes","5","4","422","<div style=""font-size:30px;"">Press space to start the trial</div>"," ","","","","","","",""
"","","","","","html-keyboard-response","433","2.0.0","403175","p6qe0b2olsa","mus","wolf","20","female","yes","yes","5","4","null","<div style=""font-size:60px;"">+</div>","null","","","","","","",""
"","","","","","audio-keyboard-response","434","2.0.0","403774","p6qe0b2olsa","mus","wolf","20","female","yes","yes","5","4","null","stimuli/sounds/drum_label_B.wav","null","","","","","","",""
"","","","","","html-keyboard-response","435","2.0.0","404776","p6qe0b2olsa","mus","wolf","20","female","yes","yes","5","4","null","","null","","","","","","",""
"","","","","","image-keyboard-response","436","2.0.0","405407","p6qe0b2olsa","mus","wolf","20","female","yes","yes","5","4","629","stimuli/pictures/drum_bongo_1.jpg","1","1","","true","yes","sound","stimuli/sounds/drum_label_B.wav",""
"","","","","","audio-keyboard-response","437","2.0.0","406410","p6qe0b2olsa","mus","wolf","20","female","yes","yes","5","4","null","stimuli/sounds/bleep.wav","null","","","","","","",""
"","","","","","html-keyboard-response","438","2.0.0","407133","p6qe0b2olsa","mus","wolf","20","female","yes","yes","5","4","620","<div style=""font-size:30px;"">Press space to start the trial</div>"," ","","","","","","",""
"","","","","","html-keyboard-response","439","2.0.0","407385","p6qe0b2olsa","mus","wolf","20","female","yes","yes","5","4","null","<div style=""font-size:60px;"">+</div>","null","","","","","","",""
"","","","","","audio-keyboard-response","440","2.0.0","407984","p6qe0b2olsa","mus","wolf","20","female","yes","yes","5","4","null","stimuli/sounds/phone_label_B.wav","null","","","","","","",""
"","","","","","html-keyboard-response","441","2.0.0","408986","p6qe0b2olsa","mus","wolf","20","female","yes","yes","5","4","null","","null","","","","","","",""
"","","","","","image-keyboard-response","442","2.0.0","409482","p6qe0b2olsa","mus","wolf","20","female","yes","yes","5","4","495","stimuli/pictures/phone_cell_2.jpg","1","1","","true","yes","sound","stimuli/sounds/phone_label_B.wav",""
"","","","","","audio-keyboard-response","443","2.0.0","410484","p6qe0b2olsa","mus","wolf","20","female","yes","yes","5","4","null","stimuli/sounds/bleep.wav","null","","","","","","",""
"","","","","","html-keyboard-response","444","2.0.0","411086","p6qe0b2olsa","mus","wolf","20","female","yes","yes","5","4","500","<div style=""font-size:30px;"">Press space to start the trial</div>"," ","","","","","","",""
"","","","","","html-keyboard-response","445","2.0.0","411338","p6qe0b2olsa","mus","wolf","20","female","yes","yes","5","4","null","<div style=""font-size:60px;"">+</div>","null","","","","","","",""
"","","","","","audio-keyboard-response","446","2.0.0","411936","p6qe0b2olsa","mus","wolf","20","female","yes","yes","5","4","null","stimuli/sounds/bird_sound_B.wav","null","","","","","","",""
"","","","","","html-keyboard-response","447","2.0.0","412938","p6qe0b2olsa","mus","wolf","20","female","yes","yes","5","4","null","","null","","","","","","",""
"","","","","","image-keyboard-response","448","2.0.0","413471","p6qe0b2olsa","mus","wolf","20","female","yes","yes","5","4","531","stimuli/pictures/drum_bongo_1.jpg","0","0","","true","no","sound","stimuli/sounds/bird_sound_B.wav",""
"","","","","","audio-keyboard-response","449","2.0.0","414474","p6qe0b2olsa","mus","wolf","20","female","yes","yes","5","4","null","stimuli/sounds/bleep.wav","null","","","","","","",""
"","","","","","html-keyboard-response","450","2.0.0","415081","p6qe0b2olsa","mus","wolf","20","female","yes","yes","5","4","505","<div style=""font-size:30px;"">Press space to start the trial</div>"," ","","","","","","",""
"","","","","","html-keyboard-response","451","2.0.0","415333","p6qe0b2olsa","mus","wolf","20","female","yes","yes","5","4","null","<div style=""font-size:60px;"">+</div>","null","","","","","","",""
"","","","","","audio-keyboard-response","452","2.0.0","415931","p6qe0b2olsa","mus","wolf","20","female","yes","yes","5","4","null","stimuli/sounds/drum_sound_A.wav","null","","","","","","",""
"","","","","","html-keyboard-response","453","2.0.0","416933","p6qe0b2olsa","mus","wolf","20","female","yes","yes","5","4","null","","null","","","","","","",""
"","","","","","image-keyboard-response","454","2.0.0","417589","p6qe0b2olsa","mus","wolf","20","female","yes","yes","5","4","655","stimuli/pictures/flute_wooden_2.jpg","0","0","","true","no","sound","stimuli/sounds/drum_sound_A.wav",""
"","","","","","audio-keyboard-response","455","2.0.0","418591","p6qe0b2olsa","mus","wolf","20","female","yes","yes","5","4","null","stimuli/sounds/bleep.wav","null","","","","","","",""
"","","","","","html-keyboard-response","456","2.0.0","419257","p6qe0b2olsa","mus","wolf","20","female","yes","yes","5","4","564","<div style=""font-size:30px;"">Press space to start the trial</div>"," ","","","","","","",""
"","","","","","html-keyboard-response","457","2.0.0","419509","p6qe0b2olsa","mus","wolf","20","female","yes","yes","5","4","null","<div style=""font-size:60px;"">+</div>","null","","","","","","",""
"","","","","","audio-keyboard-response","458","2.0.0","420110","p6qe0b2olsa","mus","wolf","20","female","yes","yes","5","4","null","stimuli/sounds/flute_sound_A.wav","null","","","","","","",""
"","","","","","html-keyboard-response","459","2.0.0","421112","p6qe0b2olsa","mus","wolf","20","female","yes","yes","5","4","null","","null","","","","","","",""
"","","","","","image-keyboard-response","460","2.0.0","421633","p6qe0b2olsa","mus","wolf","20","female","yes","yes","5","4","520","stimuli/pictures/flute_wooden_1.jpg","1","1","","true","no","sound","stimuli/sounds/flute_sound_A.wav",""
"","","","","","audio-keyboard-response","461","2.0.0","422635","p6qe0b2olsa","mus","wolf","20","female","yes","yes","5","4","null","stimuli/sounds/bleep.wav","null","","","","","","",""
"","","","","","html-keyboard-response","462","2.0.0","423235","p6qe0b2olsa","mus","wolf","20","female","yes","yes","5","4","498","<div style=""font-size:30px;"">Press space to start the trial</div>"," ","","","","","","",""
"","","","","","html-keyboard-response","463","2.0.0","423487","p6qe0b2olsa","mus","wolf","20","female","yes","yes","5","4","null","<div style=""font-size:60px;"">+</div>","null","","","","","","",""
"","","","","","audio-keyboard-response","464","2.0.0","424088","p6qe0b2olsa","mus","wolf","20","female","yes","yes","5","4","null","stimuli/sounds/bird_sound_A.wav","null","","","","","","",""
"","","","","","html-keyboard-response","465","2.0.0","425091","p6qe0b2olsa","mus","wolf","20","female","yes","yes","5","4","null","","null","","","","","","",""
"","","","","","image-keyboard-response","466","2.0.0","425709","p6qe0b2olsa","mus","wolf","20","female","yes","yes","5","4","617","stimuli/pictures/bird_song_2.jpg","1","1","","true","no","sound","stimuli/sounds/bird_sound_A.wav",""
"","","","","","audio-keyboard-response","467","2.0.0","426711","p6qe0b2olsa","mus","wolf","20","female","yes","yes","5","4","null","stimuli/sounds/bleep.wav","null","","","","","","",""
"","","","","","html-keyboard-response","468","2.0.0","427251","p6qe0b2olsa","mus","wolf","20","female","yes","yes","5","4","438","<div style=""font-size:30px;"">Press space to start the trial</div>"," ","","","","","","",""
"","","","","","html-keyboard-response","469","2.0.0","427504","p6qe0b2olsa","mus","wolf","20","female","yes","yes","5","4","null","<div style=""font-size:60px;"">+</div>","null","","","","","","",""
"","","","","","audio-keyboard-response","470","2.0.0","428104","p6qe0b2olsa","mus","wolf","20","female","yes","yes","5","4","null","stimuli/sounds/phone_sound_A.wav","null","","","","","","",""
"","","","","","html-keyboard-response","471","2.0.0","429106","p6qe0b2olsa","mus","wolf","20","female","yes","yes","5","4","null","","null","","","","","","",""
"","","","","","image-keyboard-response","472","2.0.0","430092","p6qe0b2olsa","mus","wolf","20","female","yes","yes","5","4","984","stimuli/pictures/bird_song_1.jpg","0","0","","true","no","sound","stimuli/sounds/phone_sound_A.wav",""
"","","","","","audio-keyboard-response","473","2.0.0","431094","p6qe0b2olsa","mus","wolf","20","female","yes","yes","5","4","null","stimuli/sounds/bleep.wav","null","","","","","","",""
"","","","","","html-keyboard-response","474","2.0.0","431912","p6qe0b2olsa","mus","wolf","20","female","yes","yes","5","4","715","<div style=""font-size:30px;"">Press space to start the trial</div>"," ","","","","","","",""
"","","","","","html-keyboard-response","475","2.0.0","432164","p6qe0b2olsa","mus","wolf","20","female","yes","yes","5","4","null","<div style=""font-size:60px;"">+</div>","null","","","","","","",""
"","","","","","audio-keyboard-response","476","2.0.0","432771","p6qe0b2olsa","mus","wolf","20","female","yes","yes","5","4","null","stimuli/sounds/piano_sound_A.wav","null","","","","","","",""
"","","","","","html-keyboard-response","477","2.0.0","433773","p6qe0b2olsa","mus","wolf","20","female","yes","yes","5","4","null","","null","","","","","","",""
"","","","","","image-keyboard-response","478","2.0.0","434283","p6qe0b2olsa","mus","wolf","20","female","yes","yes","5","4","509","stimuli/pictures/drum_kit_1.jpg","0","0","","true","no","sound","stimuli/sounds/piano_sound_A.wav",""
"","","","","","audio-keyboard-response","479","2.0.0","435286","p6qe0b2olsa","mus","wolf","20","female","yes","yes","5","4","null","stimuli/sounds/bleep.wav","null","","","","","","",""
"","","","","","html-keyboard-response","480","2.0.0","435914","p6qe0b2olsa","mus","wolf","20","female","yes","yes","5","4","526","<div style=""font-size:30px;"">Press space to start the trial</div>"," ","","","","","","",""
"","","","","","html-keyboard-response","481","2.0.0","436167","p6qe0b2olsa","mus","wolf","20","female","yes","yes","5","4","null","<div style=""font-size:60px;"">+</div>","null","","","","","","",""
"","","","","","audio-keyboard-response","482","2.0.0","436766","p6qe0b2olsa","mus","wolf","20","female","yes","yes","5","4","null","stimuli/sounds/bird_sound_B.wav","null","","","","","","",""
"","","","","","html-keyboard-response","483","2.0.0","437768","p6qe0b2olsa","mus","wolf","20","female","yes","yes","5","4","null","","null","","","","","","",""
"","","","","","image-keyboard-response","484","2.0.0","440272","p6qe0b2olsa","mus","wolf","20","female","yes","yes","5","4","2502","stimuli/pictures/bird_song_2.jpg","1","1","","true","yes","sound","stimuli/sounds/bird_sound_B.wav",""
"","","","","","audio-keyboard-response","485","2.0.0","441275","p6qe0b2olsa","mus","wolf","20","female","yes","yes","5","4","null","stimuli/sounds/bleep.wav","null","","","","","","",""
"","","","","","html-keyboard-response","486","2.0.0","441795","p6qe0b2olsa","mus","wolf","20","female","yes","yes","5","4","418","<div style=""font-size:30px;"">Press space to start the trial</div>"," ","","","","","","",""
"","","","","","html-keyboard-response","487","2.0.0","442048","p6qe0b2olsa","mus","wolf","20","female","yes","yes","5","4","null","<div style=""font-size:60px;"">+</div>","null","","","","","","",""
"","","","","","audio-keyboard-response","488","2.0.0","442656","p6qe0b2olsa","mus","wolf","20","female","yes","yes","5","4","null","stimuli/sounds/flute_sound_B.wav","null","","","","","","",""
"","","","","","html-keyboard-response","489","2.0.0","443659","p6qe0b2olsa","mus","wolf","20","female","yes","yes","5","4","null","","null","","","","","","",""
"","","","","","image-keyboard-response","490","2.0.0","444148","p6qe0b2olsa","mus","wolf","20","female","yes","yes","5","4","488","stimuli/pictures/flute_wooden_2.jpg","1","1","","true","yes","sound","stimuli/sounds/flute_sound_B.wav",""
