"success","timeout","failed_images","failed_audio","failed_video","trial_type","trial_index","plugin_version","time_elapsed","random_id","condition","participant","age","gender_id","mus_exp","inst_exp","years_exp","mus_listening","rt","stimulus","response","correct_response","practice","correct","congruent","sound_type","audio","question_order"
"true","false","[]","[]","[]","preload","0","2.0.0","22842","p6sz768hl6f","ono","seal","20","female","no","no","0","4","","","","","","","","","",""
"","","","","","html-keyboard-response","1","2.0.0","3742161","p6sz768hl6f","ono","seal","20","female","no","no","0","4","3719393","Welcome to the experiment! Press any key to begin."," ","","","","","","",""
"true","","","","","fullscreen","2","null","3744280","p6sz768hl6f","ono","seal","20","female","no","no","0","4","1115","","","","","","","","",""
"","","","","","survey-text","3","2.0.0","3747229","p6sz768hl6f","ono","seal","20","female","no","no","0","4","2945","","{""participant_id"":""seal""}","","","","","","",""
"","","","","","html-keyboard-response","4","2.0.0","3756335","p6sz768hl6f","ono","seal","20","female","no","no","0","4","9104","
    <p> Please use headphones for the duration of the study.</p>
    <p> Within each trial, you will hear a sound and then be presented with an image in the center of your screen.</p>
    <p>Press the <b>'1'</b> key if what you hear <u>matches</u> what you see.</p>
    <p>Press the <b>'0'</b> key if what you hear <u>does not match</u> what you see.</p>
    <p>Try to respond as quickly and accurately as you can.</p>
    <p> Press any key to begin.</p>
    "," ","","","","","","",""
"","","","","","html-keyboard-response","5","2.0.0","3759171","p6sz768hl6f","ono","seal","20","female","no","no","0","4","2835","
    <div style=""font-size:28px;"">
      <p>You will now complete 4 short practice trials.</p>
      <p>This is just to help you get familiar with the task.</p>
      <p>Press any key to begin.</p>
    </div>
  "," ","","","","","","",""
"","","","","","html-keyboard-response","6","2.0.0","3759673","p6sz768hl6f","ono","seal","20","female","no","no","0","4","null","<div style=""font-size:60px;"">+</div>","null","","","","","","",""
"","","","","","audio-keyboard-response","7","2.0.0","3760331","p6sz768hl6f","ono","seal","20","female","no","no","0","4","null","stimuli/sounds/guitar_label_A.wav","null","","","","","","",""
"","","","","","image-keyboard-response","8","2.0.0","3778688","p6sz768hl6f","ono","seal","20","female","no","no","0","4","18356","stimuli/pictures/guitar_acoustic_1.jpg","1","1","true","true","","","",""
"","","","","","audio-keyboard-response","9","2.0.0","3779491","p6sz768hl6f","ono","seal","20","female","no","no","0","4","null","stimuli/sounds/bleep.wav","null","","","","","","",""
"","","","","","html-keyboard-response","10","2.0.0","3780194","p6sz768hl6f","ono","seal","20","female","no","no","0","4","null","<p style='color:green; font-size:30px;'>Correct!</p>","null","","","","","","",""
"","","","","","html-keyboard-response","11","2.0.0","3780697","p6sz768hl6f","ono","seal","20","female","no","no","0","4","null","<div style=""font-size:60px;"">+</div>","null","","","","","","",""
"","","","","","audio-keyboard-response","12","2.0.0","3781301","p6sz768hl6f","ono","seal","20","female","no","no","0","4","null","stimuli/sounds/guitar_sound_B.wav","null","","","","","","",""
"","","","","","image-keyboard-response","13","2.0.0","3783567","p6sz768hl6f","ono","seal","20","female","no","no","0","4","2265","stimuli/pictures/guitar_acoustic_2.jpg","1","1","true","true","","","",""
"","","","","","audio-keyboard-response","14","2.0.0","3784370","p6sz768hl6f","ono","seal","20","female","no","no","0","4","null","stimuli/sounds/bleep.wav","null","","","","","","",""
"","","","","","html-keyboard-response","15","2.0.0","3785073","p6sz768hl6f","ono","seal","20","female","no","no","0","4","null","<p style='color:green; font-size:30px;'>Correct!</p>","null","","","","","","",""
"","","","","","html-keyboard-response","16","2.0.0","3785575","p6sz768hl6f","ono","seal","20","female","no","no","0","4","null","<div style=""font-size:60px;"">+</div>","null","","","","","","",""
"","","","","","audio-keyboard-response","17","2.0.0","3786176","p6sz768hl6f","ono","seal","20","female","no","no","0","4","null","stimuli/sounds/flute_sound_A.wav","null","","","","","","",""
"","","","","","image-keyboard-response","18","2.0.0","3787853","p6sz768hl6f","ono","seal","20","female","no","no","0","4","1676","stimuli/pictures/guitar_electric_1.jpg","0","0","true","true","","","",""
"","","","","","audio-keyboard-response","19","2.0.0","3788655","p6sz768hl6f","ono","seal","20","female","no","no","0","4","null","stimuli/sounds/bleep.wav","null","","","","","","",""
"","","","","","html-keyboard-response","20","2.0.0","3789358","p6sz768hl6f","ono","seal","20","female","no","no","0","4","null","<p style='color:green; font-size:30px;'>Correct!</p>","null","","","","","","",""
"","","","","","html-keyboard-response","21","2.0.0","3789860","p6sz768hl6f","ono","seal","20","female","no","no","0","4","null","<div style=""font-size:60px;"">+</div>","null","","","","","","",""
"","","","","","audio-keyboard-response","22","2.0.0","3790464","p6sz768hl6f","ono","seal","20","female","no","no","0","4","null","stimuli/sounds/guitar_sound_A.wav","null","","","","","","",""
"","","","","","image-keyboard-response","23","2.0.0","3791300","p6sz768hl6f","ono","seal","20","female","no","no","0","4","834","stimuli/pictures/guitar_acoustic_1.jpg","0","1","true","false","","","",""
"","","","","","audio-keyboard-response","24","2.0.0","3792102","p6sz768hl6f","ono","seal","20","female","no","no","0","4","null","stimuli/sounds/buzz.wav","null","","","","","","",""
"","","","","","html-keyboard-response","25","2.0.0","3792803","p6sz768hl6f","ono","seal","20","female","no","no","0","4","null","<p style='color:red; font-size:30px;'>Incorrect</p>","null","","","","","","",""
"","","","","","html-keyboard-response","26","2.0.0","3794691","p6sz768hl6f","ono","seal","20","female","no","no","0","4","1886","<p>Practice complete. Press any key to begin the real experiment.</p>"," ","","","","","","",""
"","","","","","html-keyboard-response","27","2.0.0","3796460","p6sz768hl6f","ono","seal","20","female","no","no","0","4","1769","<div style=""font-size:30px;"">Press space to start the trial</div>"," ","","","","","","",""
"","","","","","html-keyboard-response","28","2.0.0","3796712","p6sz768hl6f","ono","seal","20","female","no","no","0","4","null","<div style=""font-size:60px;"">+</div>","null","","","","","","",""
"","","","","","audio-keyboard-response","29","2.0.0","3797312","p6sz768hl6f","ono","seal","20","female","no","no","0","4","null","stimuli/sounds/dog_label_B.wav","null","","","","","","",""
"","","","","","html-keyboard-response","30","2.0.0","3798314","p6sz768hl6f","ono","seal","20","female","no","no","0","4","null","","null","","","","","","",""
"","","","","","image-keyboard-response","31","2.0.0","3799844","p6sz768hl6f","ono","seal","20","female","no","no","0","4","1529","stimuli/pictures/cough_wom_2.jpg","0","0","","true","no","sound","stimuli/sounds/dog_label_B.wav",""
"","","","","","audio-keyboard-response","32","2.0.0","3800847","p6sz768hl6f","ono","seal","20","female","no","no","0","4","null","stimuli/sounds/bleep.wav","null","","","","","","",""
"","","","","","html-keyboard-response","33","2.0.0","3803043","p6sz768hl6f","ono","seal","20","female","no","no","0","4","2093","<div style=""font-size:30px;"">Press space to start the trial</div>"," ","","","","","","",""
"","","","","","html-keyboard-response","34","2.0.0","3803295","p6sz768hl6f","ono","seal","20","female","no","no","0","4","null","<div style=""font-size:60px;"">+</div>","null","","","","","","",""
"","","","","","audio-keyboard-response","35","2.0.0","3803898","p6sz768hl6f","ono","seal","20","female","no","no","0","4","null","stimuli/sounds/dog_sound_B.wav","null","","","","","","",""
"","","","","","html-keyboard-response","36","2.0.0","3804901","p6sz768hl6f","ono","seal","20","female","no","no","0","4","null","","null","","","","","","",""
"","","","","","image-keyboard-response","37","2.0.0","3805896","p6sz768hl6f","ono","seal","20","female","no","no","0","4","994","stimuli/pictures/dog_rott_2.jpg","1","1","","true","no","sound","stimuli/sounds/dog_sound_B.wav",""
"","","","","","audio-keyboard-response","38","2.0.0","3806900","p6sz768hl6f","ono","seal","20","female","no","no","0","4","null","stimuli/sounds/bleep.wav","null","","","","","","",""
"","","","","","html-keyboard-response","39","2.0.0","3807307","p6sz768hl6f","ono","seal","20","female","no","no","0","4","304","<div style=""font-size:30px;"">Press space to start the trial</div>"," ","","","","","","",""
"","","","","","html-keyboard-response","40","2.0.0","3807559","p6sz768hl6f","ono","seal","20","female","no","no","0","4","null","<div style=""font-size:60px;"">+</div>","null","","","","","","",""
"","","","","","audio-keyboard-response","41","2.0.0","3808160","p6sz768hl6f","ono","seal","20","female","no","no","0","4","null","stimuli/sounds/dog_sound_B.wav","null","","","","","","",""
"","","","","","html-keyboard-response","42","2.0.0","3809161","p6sz768hl6f","ono","seal","20","female","no","no","0","4","null","","null","","","","","","",""
"","","","","","image-keyboard-response","43","2.0.0","3810023","p6sz768hl6f","ono","seal","20","female","no","no","0","4","861","stimuli/pictures/motor_harley_2.jpg","0","0","","true","no","sound","stimuli/sounds/dog_sound_B.wav",""
"","","","","","audio-keyboard-response","44","2.0.0","3811026","p6sz768hl6f","ono","seal","20","female","no","no","0","4","null","stimuli/sounds/bleep.wav","null","","","","","","",""
"","","","","","html-keyboard-response","45","2.0.0","3812752","p6sz768hl6f","ono","seal","20","female","no","no","0","4","1624","<div style=""font-size:30px;"">Press space to start the trial</div>"," ","","","","","","",""
"","","","","","html-keyboard-response","46","2.0.0","3813004","p6sz768hl6f","ono","seal","20","female","no","no","0","4","null","<div style=""font-size:60px;"">+</div>","null","","","","","","",""
"","","","","","audio-keyboard-response","47","2.0.0","3813605","p6sz768hl6f","ono","seal","20","female","no","no","0","4","null","stimuli/sounds/dog_label_B.wav","null","","","","","","",""
"","","","","","html-keyboard-response","48","2.0.0","3814608","p6sz768hl6f","ono","seal","20","female","no","no","0","4","null","","null","","","","","","",""
"","","","","","image-keyboard-response","49","2.0.0","3815578","p6sz768hl6f","ono","seal","20","female","no","no","0","4","969","stimuli/pictures/cough_man_1.jpg","0","0","","true","no","sound","stimuli/sounds/dog_label_B.wav",""
"","","","","","audio-keyboard-response","50","2.0.0","3816580","p6sz768hl6f","ono","seal","20","female","no","no","0","4","null","stimuli/sounds/bleep.wav","null","","","","","","",""
"","","","","","html-keyboard-response","51","2.0.0","3817270","p6sz768hl6f","ono","seal","20","female","no","no","0","4","588","<div style=""font-size:30px;"">Press space to start the trial</div>"," ","","","","","","",""
"","","","","","html-keyboard-response","52","2.0.0","3817522","p6sz768hl6f","ono","seal","20","female","no","no","0","4","null","<div style=""font-size:60px;"">+</div>","null","","","","","","",""
"","","","","","audio-keyboard-response","53","2.0.0","3818058","p6sz768hl6f","ono","seal","20","female","no","no","0","4","null","stimuli/sounds/hiccup_label_A.wav","null","","","","","","",""
"","","","","","html-keyboard-response","54","2.0.0","3819061","p6sz768hl6f","ono","seal","20","female","no","no","0","4","null","","null","","","","","","",""
"","","","","","image-keyboard-response","55","2.0.0","3822877","p6sz768hl6f","ono","seal","20","female","no","no","0","4","3815","stimuli/pictures/cough_wom_1.jpg","1","0","","false","no","sound","stimuli/sounds/hiccup_label_A.wav",""
"","","","","","audio-keyboard-response","56","2.0.0","3823880","p6sz768hl6f","ono","seal","20","female","no","no","0","4","null","stimuli/sounds/buzz.wav","null","","","","","","",""
"","","","","","html-keyboard-response","57","2.0.0","3824805","p6sz768hl6f","ono","seal","20","female","no","no","0","4","821","<div style=""font-size:30px;"">Press space to start the trial</div>"," ","","","","","","",""
"","","","","","html-keyboard-response","58","2.0.0","3825057","p6sz768hl6f","ono","seal","20","female","no","no","0","4","null","<div style=""font-size:60px;"">+</div>","null","","","","","","",""
"","","","","","audio-keyboard-response","59","2.0.0","3825658","p6sz768hl6f","ono","seal","20","female","no","no","0","4","null","stimuli/sounds/dog_label_B.wav","null","","","","","","",""
"","","","","","html-keyboard-response","60","2.0.0","3826660","p6sz768hl6f","ono","seal","20","female","no","no","0","4","null","","null","","","","","","",""
"","","","","","image-keyboard-response","61","2.0.0","3829574","p6sz768hl6f","ono","seal","20","female","no","no","0","4","2912","stimuli/pictures/dog_rott_2.jpg","1","1","","true","yes","sound","stimuli/sounds/dog_label_B.wav",""
"","","","","","audio-keyboard-response","62","2.0.0","3830577","p6sz768hl6f","ono","seal","20","female","no","no","0","4","null","stimuli/sounds/bleep.wav","null","","","","","","",""
"","","","","","html-keyboard-response","63","2.0.0","3833133","p6sz768hl6f","ono","seal","20","female","no","no","0","4","2453","<div style=""font-size:30px;"">Press space to start the trial</div>"," ","","","","","","",""
"","","","","","html-keyboard-response","64","2.0.0","3833385","p6sz768hl6f","ono","seal","20","female","no","no","0","4","null","<div style=""font-size:60px;"">+</div>","null","","","","","","",""
"","","","","","audio-keyboard-response","65","2.0.0","3834064","p6sz768hl6f","ono","seal","20","female","no","no","0","4","null","stimuli/sounds/cough_sound_B.wav","null","","","","","","",""
"","","","","","html-keyboard-response","66","2.0.0","3835066","p6sz768hl6f","ono","seal","20","female","no","no","0","4","null","","null","","","","","","",""
"","","","","","image-keyboard-response","67","2.0.0","3837418","p6sz768hl6f","ono","seal","20","female","no","no","0","4","2351","stimuli/pictures/cough_man_2.jpg","1","1","","true","yes","sound","stimuli/sounds/cough_sound_B.wav",""
"","","","","","audio-keyboard-response","68","2.0.0","3838421","p6sz768hl6f","ono","seal","20","female","no","no","0","4","null","stimuli/sounds/bleep.wav","null","","","","","","",""
"","","","","","html-keyboard-response","69","2.0.0","3839548","p6sz768hl6f","ono","seal","20","female","no","no","0","4","1025","<div style=""font-size:30px;"">Press space to start the trial</div>"," ","","","","","","",""
"","","","","","html-keyboard-response","70","2.0.0","3839801","p6sz768hl6f","ono","seal","20","female","no","no","0","4","null","<div style=""font-size:60px;"">+</div>","null","","","","","","",""
"","","","","","audio-keyboard-response","71","2.0.0","3840480","p6sz768hl6f","ono","seal","20","female","no","no","0","4","null","stimuli/sounds/cough_sound_B.wav","null","","","","","","",""
"","","","","","html-keyboard-response","72","2.0.0","3841482","p6sz768hl6f","ono","seal","20","female","no","no","0","4","null","","null","","","","","","",""
"","","","","","image-keyboard-response","73","2.0.0","3842230","p6sz768hl6f","ono","seal","20","female","no","no","0","4","748","stimuli/pictures/hiccup_man_1.jpg","1","0","","false","no","sound","stimuli/sounds/cough_sound_B.wav",""
"","","","","","audio-keyboard-response","74","2.0.0","3843233","p6sz768hl6f","ono","seal","20","female","no","no","0","4","null","stimuli/sounds/buzz.wav","null","","","","","","",""
"","","","","","html-keyboard-response","75","2.0.0","3844032","p6sz768hl6f","ono","seal","20","female","no","no","0","4","697","<div style=""font-size:30px;"">Press space to start the trial</div>"," ","","","","","","",""
"","","","","","html-keyboard-response","76","2.0.0","3844285","p6sz768hl6f","ono","seal","20","female","no","no","0","4","null","<div style=""font-size:60px;"">+</div>","null","","","","","","",""
"","","","","","audio-keyboard-response","77","2.0.0","3844965","p6sz768hl6f","ono","seal","20","female","no","no","0","4","null","stimuli/sounds/cough_sound_B.wav","null","","","","","","",""
"","","","","","html-keyboard-response","78","2.0.0","3845968","p6sz768hl6f","ono","seal","20","female","no","no","0","4","null","","null","","","","","","",""
"","","","","","image-keyboard-response","79","2.0.0","3846716","p6sz768hl6f","ono","seal","20","female","no","no","0","4","746","stimuli/pictures/cough_wom_2.jpg","1","1","","true","no","sound","stimuli/sounds/cough_sound_B.wav",""
"","","","","","audio-keyboard-response","80","2.0.0","3847719","p6sz768hl6f","ono","seal","20","female","no","no","0","4","null","stimuli/sounds/bleep.wav","null","","","","","","",""
"","","","","","html-keyboard-response","81","2.0.0","3848540","p6sz768hl6f","ono","seal","20","female","no","no","0","4","719","<div style=""font-size:30px;"">Press space to start the trial</div>"," ","","","","","","",""
"","","","","","html-keyboard-response","82","2.0.0","3848792","p6sz768hl6f","ono","seal","20","female","no","no","0","4","null","<div style=""font-size:60px;"">+</div>","null","","","","","","",""
"","","","","","audio-keyboard-response","83","2.0.0","3849392","p6sz768hl6f","ono","seal","20","female","no","no","0","4","null","stimuli/sounds/dog_sound_A.wav","null","","","","","","",""
"","","","","","html-keyboard-response","84","2.0.0","3850393","p6sz768hl6f","ono","seal","20","female","no","no","0","4","null","","null","","","","","","",""
"","","","","","image-keyboard-response","85","2.0.0","3852180","p6sz768hl6f","ono","seal","20","female","no","no","0","4","1786","stimuli/pictures/hiccup_man_2.jpg","1","0","","false","no","sound","stimuli/sounds/dog_sound_A.wav",""
"","","","","","audio-keyboard-response","86","2.0.0","3853183","p6sz768hl6f","ono","seal","20","female","no","no","0","4","null","stimuli/sounds/buzz.wav","null","","","","","","",""
"","","","","","html-keyboard-response","87","2.0.0","3853862","p6sz768hl6f","ono","seal","20","female","no","no","0","4","577","<div style=""font-size:30px;"">Press space to start the trial</div>"," ","","","","","","",""
"","","","","","html-keyboard-response","88","2.0.0","3854115","p6sz768hl6f","ono","seal","20","female","no","no","0","4","null","<div style=""font-size:60px;"">+</div>","null","","","","","","",""
"","","","","","audio-keyboard-response","89","2.0.0","3854714","p6sz768hl6f","ono","seal","20","female","no","no","0","4","null","stimuli/sounds/motor_sound_A.wav","null","","","","","","",""
"","","","","","html-keyboard-response","90","2.0.0","3855717","p6sz768hl6f","ono","seal","20","female","no","no","0","4","null","","null","","","","","","",""
"","","","","","image-keyboard-response","91","2.0.0","3856570","p6sz768hl6f","ono","seal","20","female","no","no","0","4","844","stimuli/pictures/motor_harley_1.jpg","1","1","","true","no","sound","stimuli/sounds/motor_sound_A.wav",""
"","","","","","audio-keyboard-response","92","2.0.0","3857572","p6sz768hl6f","ono","seal","20","female","no","no","0","4","null","stimuli/sounds/bleep.wav","null","","","","","","",""
"","","","","","html-keyboard-response","93","2.0.0","3858868","p6sz768hl6f","ono","seal","20","female","no","no","0","4","1194","<div style=""font-size:30px;"">Press space to start the trial</div>"," ","","","","","","",""
"","","","","","html-keyboard-response","94","2.0.0","3859120","p6sz768hl6f","ono","seal","20","female","no","no","0","4","null","<div style=""font-size:60px;"">+</div>","null","","","","","","",""
"","","","","","audio-keyboard-response","95","2.0.0","3859728","p6sz768hl6f","ono","seal","20","female","no","no","0","4","null","stimuli/sounds/drop_sound_B.wav","null","","","","","","",""
"","","","","","html-keyboard-response","96","2.0.0","3860730","p6sz768hl6f","ono","seal","20","female","no","no","0","4","null","","null","","","","","","",""
"","","","","","image-keyboard-response","97","2.0.0","3862142","p6sz768hl6f","ono","seal","20","female","no","no","0","4","1411","stimuli/pictures/dog_york_1.jpg","0","0","","true","no","sound","stimuli/sounds/drop_sound_B.wav",""
"","","","","","audio-keyboard-response","98","2.0.0","3863145","p6sz768hl6f","ono","seal","20","female","no","no","0","4","null","stimuli/sounds/bleep.wav","null","","","","","","",""
"","","","","","html-keyboard-response","99","2.0.0","3864748","p6sz768hl6f","ono","seal","20","female","no","no","0","4","1501","<div style=""font-size:30px;"">Press space to start the trial</div>"," ","","","","","","",""
"","","","","","html-keyboard-response","100","2.0.0","3865000","p6sz768hl6f","ono","seal","20","female","no","no","0","4","null","<div style=""font-size:60px;"">+</div>","null","","","","","","",""
"","","","","","audio-keyboard-response","101","2.0.0","3865605","p6sz768hl6f","ono","seal","20","female","no","no","0","4","null","stimuli/sounds/cough_label_B.wav","null","","","","","","",""
"","","","","","html-keyboard-response","102","2.0.0","3866607","p6sz768hl6f","ono","seal","20","female","no","no","0","4","null","","null","","","","","","",""
"","","","","","image-keyboard-response","103","2.0.0","3867824","p6sz768hl6f","ono","seal","20","female","no","no","0","4","1216","stimuli/pictures/cough_wom_1.jpg","1","1","","true","yes","sound","stimuli/sounds/cough_label_B.wav",""
"","","","","","audio-keyboard-response","104","2.0.0","3868827","p6sz768hl6f","ono","seal","20","female","no","no","0","4","null","stimuli/sounds/bleep.wav","null","","","","","","",""
"","","","","","html-keyboard-response","105","2.0.0","3869838","p6sz768hl6f","ono","seal","20","female","no","no","0","4","909","<div style=""font-size:30px;"">Press space to start the trial</div>"," ","","","","","","",""
"","","","","","html-keyboard-response","106","2.0.0","3870090","p6sz768hl6f","ono","seal","20","female","no","no","0","4","null","<div style=""font-size:60px;"">+</div>","null","","","","","","",""
"","","","","","audio-keyboard-response","107","2.0.0","3870693","p6sz768hl6f","ono","seal","20","female","no","no","0","4","null","stimuli/sounds/motor_label_B.wav","null","","","","","","",""
"","","","","","html-keyboard-response","108","2.0.0","3871695","p6sz768hl6f","ono","seal","20","female","no","no","0","4","null","","null","","","","","","",""
"","","","","","image-keyboard-response","109","2.0.0","3878227","p6sz768hl6f","ono","seal","20","female","no","no","0","4","6531","stimuli/pictures/motor_dirt_1.jpg","0","1","","false","yes","sound","stimuli/sounds/motor_label_B.wav",""
"","","","","","audio-keyboard-response","110","2.0.0","3879230","p6sz768hl6f","ono","seal","20","female","no","no","0","4","null","stimuli/sounds/buzz.wav","null","","","","","","",""
"","","","","","html-keyboard-response","111","2.0.0","3885168","p6sz768hl6f","ono","seal","20","female","no","no","0","4","5835","<div style=""font-size:30px;"">Press space to start the trial</div>"," ","","","","","","",""
"","","","","","html-keyboard-response","112","2.0.0","3885420","p6sz768hl6f","ono","seal","20","female","no","no","0","4","null","<div style=""font-size:60px;"">+</div>","null","","","","","","",""
"","","","","","audio-keyboard-response","113","2.0.0","3886021","p6sz768hl6f","ono","seal","20","female","no","no","0","4","null","stimuli/sounds/dog_label_A.wav","null","","","","","","",""
"","","","","","html-keyboard-response","114","2.0.0","3887023","p6sz768hl6f","ono","seal","20","female","no","no","0","4","null","","null","","","","","","",""
"","","","","","image-keyboard-response","115","2.0.0","3888698","p6sz768hl6f","ono","seal","20","female","no","no","0","4","1675","stimuli/pictures/drop_single_2.jpg","0","0","","true","no","sound","stimuli/sounds/dog_label_A.wav",""
"","","","","","audio-keyboard-response","116","2.0.0","3889700","p6sz768hl6f","ono","seal","20","female","no","no","0","4","null","stimuli/sounds/bleep.wav","null","","","","","","",""
"","","","","","html-keyboard-response","117","2.0.0","3890658","p6sz768hl6f","ono","seal","20","female","no","no","0","4","856","<div style=""font-size:30px;"">Press space to start the trial</div>"," ","","","","","","",""
"","","","","","html-keyboard-response","118","2.0.0","3890910","p6sz768hl6f","ono","seal","20","female","no","no","0","4","null","<div style=""font-size:60px;"">+</div>","null","","","","","","",""
"","","","","","audio-keyboard-response","119","2.0.0","3891514","p6sz768hl6f","ono","seal","20","female","no","no","0","4","null","stimuli/sounds/drop_sound_B.wav","null","","","","","","",""
"","","","","","html-keyboard-response","120","2.0.0","3892517","p6sz768hl6f","ono","seal","20","female","no","no","0","4","null","","null","","","","","","",""
"","","","","","image-keyboard-response","121","2.0.0","3896300","p6sz768hl6f","ono","seal","20","female","no","no","0","4","3782","stimuli/pictures/drop_multi_1.jpg","1","1","","true","yes","sound","stimuli/sounds/drop_sound_B.wav",""
"","","","","","audio-keyboard-response","122","2.0.0","3897303","p6sz768hl6f","ono","seal","20","female","no","no","0","4","null","stimuli/sounds/bleep.wav","null","","","","","","",""
"","","","","","html-keyboard-response","123","2.0.0","3897991","p6sz768hl6f","ono","seal","20","female","no","no","0","4","585","<div style=""font-size:30px;"">Press space to start the trial</div>"," ","","","","","","",""
"","","","","","html-keyboard-response","124","2.0.0","3898243","p6sz768hl6f","ono","seal","20","female","no","no","0","4","null","<div style=""font-size:60px;"">+</div>","null","","","","","","",""
"","","","","","audio-keyboard-response","125","2.0.0","3898848","p6sz768hl6f","ono","seal","20","female","no","no","0","4","null","stimuli/sounds/cough_label_B.wav","null","","","","","","",""
"","","","","","html-keyboard-response","126","2.0.0","3899850","p6sz768hl6f","ono","seal","20","female","no","no","0","4","null","","null","","","","","","",""
"","","","","","image-keyboard-response","127","2.0.0","3900542","p6sz768hl6f","ono","seal","20","female","no","no","0","4","690","stimuli/pictures/drop_single_2.jpg","0","0","","true","no","sound","stimuli/sounds/cough_label_B.wav",""
"","","","","","audio-keyboard-response","128","2.0.0","3901545","p6sz768hl6f","ono","seal","20","female","no","no","0","4","null","stimuli/sounds/bleep.wav","null","","","","","","",""
"","","","","","html-keyboard-response","129","2.0.0","3904586","p6sz768hl6f","ono","seal","20","female","no","no","0","4","2938","<div style=""font-size:30px;"">Press space to start the trial</div>"," ","","","","","","",""
"","","","","","html-keyboard-response","130","2.0.0","3904838","p6sz768hl6f","ono","seal","20","female","no","no","0","4","null","<div style=""font-size:60px;"">+</div>","null","","","","","","",""
"","","","","","audio-keyboard-response","131","2.0.0","3905440","p6sz768hl6f","ono","seal","20","female","no","no","0","4","null","stimuli/sounds/motor_label_B.wav","null","","","","","","",""
"","","","","","html-keyboard-response","132","2.0.0","3906442","p6sz768hl6f","ono","seal","20","female","no","no","0","4","null","","null","","","","","","",""
"","","","","","image-keyboard-response","133","2.0.0","3907073","p6sz768hl6f","ono","seal","20","female","no","no","0","4","630","stimuli/pictures/hiccup_man_1.jpg","0","0","","true","no","sound","stimuli/sounds/motor_label_B.wav",""
"","","","","","audio-keyboard-response","134","2.0.0","3908077","p6sz768hl6f","ono","seal","20","female","no","no","0","4","null","stimuli/sounds/bleep.wav","null","","","","","","",""
"","","","","","html-keyboard-response","135","2.0.0","3910859","p6sz768hl6f","ono","seal","20","female","no","no","0","4","2680","<div style=""font-size:30px;"">Press space to start the trial</div>"," ","","","","","","",""
"","","","","","html-keyboard-response","136","2.0.0","3911111","p6sz768hl6f","ono","seal","20","female","no","no","0","4","null","<div style=""font-size:60px;"">+</div>","null","","","","","","",""
"","","","","","audio-keyboard-response","137","2.0.0","3911744","p6sz768hl6f","ono","seal","20","female","no","no","0","4","null","stimuli/sounds/cough_label_A.wav","null","","","","","","",""
"","","","","","html-keyboard-response","138","2.0.0","3912746","p6sz768hl6f","ono","seal","20","female","no","no","0","4","null","","null","","","","","","",""
"","","","","","image-keyboard-response","139","2.0.0","3914467","p6sz768hl6f","ono","seal","20","female","no","no","0","4","1719","stimuli/pictures/motor_harley_1.jpg","0","0","","true","no","sound","stimuli/sounds/cough_label_A.wav",""
"","","","","","audio-keyboard-response","140","2.0.0","3915470","p6sz768hl6f","ono","seal","20","female","no","no","0","4","null","stimuli/sounds/bleep.wav","null","","","","","","",""
"","","","","","html-keyboard-response","141","2.0.0","3916599","p6sz768hl6f","ono","seal","20","female","no","no","0","4","1027","<div style=""font-size:30px;"">Press space to start the trial</div>"," ","","","","","","",""
"","","","","","html-keyboard-response","142","2.0.0","3916852","p6sz768hl6f","ono","seal","20","female","no","no","0","4","null","<div style=""font-size:60px;"">+</div>","null","","","","","","",""
"","","","","","audio-keyboard-response","143","2.0.0","3917456","p6sz768hl6f","ono","seal","20","female","no","no","0","4","null","stimuli/sounds/motor_sound_B.wav","null","","","","","","",""
"","","","","","html-keyboard-response","144","2.0.0","3918457","p6sz768hl6f","ono","seal","20","female","no","no","0","4","null","","null","","","","","","",""
"","","","","","image-keyboard-response","145","2.0.0","3918949","p6sz768hl6f","ono","seal","20","female","no","no","0","4","490","stimuli/pictures/cough_wom_1.jpg","0","0","","true","no","sound","stimuli/sounds/motor_sound_B.wav",""
"","","","","","audio-keyboard-response","146","2.0.0","3919952","p6sz768hl6f","ono","seal","20","female","no","no","0","4","null","stimuli/sounds/bleep.wav","null","","","","","","",""
"","","","","","html-keyboard-response","147","2.0.0","3923551","p6sz768hl6f","ono","seal","20","female","no","no","0","4","3497","<p>You have completed a block. Press R when you are ready to continue</p>","r","","","","","","",""
"","","","","","html-keyboard-response","148","2.0.0","3927610","p6sz768hl6f","ono","seal","20","female","no","no","0","4","4057","<div style=""font-size:30px;"">Press space to start the trial</div>"," ","","","","","","",""
"","","","","","html-keyboard-response","149","2.0.0","3927862","p6sz768hl6f","ono","seal","20","female","no","no","0","4","null","<div style=""font-size:60px;"">+</div>","null","","","","","","",""
"","","","","","audio-keyboard-response","150","2.0.0","3928464","p6sz768hl6f","ono","seal","20","female","no","no","0","4","null","stimuli/sounds/motor_label_B.wav","null","","","","","","",""
"","","","","","html-keyboard-response","151","2.0.0","3929465","p6sz768hl6f","ono","seal","20","female","no","no","0","4","null","","null","","","","","","",""
"","","","","","image-keyboard-response","152","2.0.0","3930374","p6sz768hl6f","ono","seal","20","female","no","no","0","4","908","stimuli/pictures/motor_dirt_2.jpg","1","1","","true","yes","sound","stimuli/sounds/motor_label_B.wav",""
"","","","","","audio-keyboard-response","153","2.0.0","3931377","p6sz768hl6f","ono","seal","20","female","no","no","0","4","null","stimuli/sounds/bleep.wav","null","","","","","","",""
"","","","","","html-keyboard-response","154","2.0.0","3932029","p6sz768hl6f","ono","seal","20","female","no","no","0","4","550","<div style=""font-size:30px;"">Press space to start the trial</div>"," ","","","","","","",""
"","","","","","html-keyboard-response","155","2.0.0","3932282","p6sz768hl6f","ono","seal","20","female","no","no","0","4","null","<div style=""font-size:60px;"">+</div>","null","","","","","","",""
"","","","","","audio-keyboard-response","156","2.0.0","3932890","p6sz768hl6f","ono","seal","20","female","no","no","0","4","null","stimuli/sounds/hiccup_sound_A.wav","null","","","","","","",""
"","","","","","html-keyboard-response","157","2.0.0","3933893","p6sz768hl6f","ono","seal","20","female","no","no","0","4","null","","null","","","","","","",""
"","","","","","image-keyboard-response","158","2.0.0","3934433","p6sz768hl6f","ono","seal","20","female","no","no","0","4","538","stimuli/pictures/motor_harley_1.jpg","0","0","","true","no","sound","stimuli/sounds/hiccup_sound_A.wav",""
"","","","","","audio-keyboard-response","159","2.0.0","3935436","p6sz768hl6f","ono","seal","20","female","no","no","0","4","null","stimuli/sounds/bleep.wav","null","","","","","","",""
"","","","","","html-keyboard-response","160","2.0.0","3936100","p6sz768hl6f","ono","seal","20","female","no","no","0","4","561","<div style=""font-size:30px;"">Press space to start the trial</div>"," ","","","","","","",""
"","","","","","html-keyboard-response","161","2.0.0","3936352","p6sz768hl6f","ono","seal","20","female","no","no","0","4","null","<div style=""font-size:60px;"">+</div>","null","","","","","","",""
"","","","","","audio-keyboard-response","162","2.0.0","3936901","p6sz768hl6f","ono","seal","20","female","no","no","0","4","null","stimuli/sounds/drop_label_A.wav","null","","","","","","",""
"","","","","","html-keyboard-response","163","2.0.0","3937904","p6sz768hl6f","ono","seal","20","female","no","no","0","4","null","","null","","","","","","",""
"","","","","","image-keyboard-response","164","2.0.0","3938611","p6sz768hl6f","ono","seal","20","female","no","no","0","4","705","stimuli/pictures/hiccup_man_1.jpg","0","0","","true","no","sound","stimuli/sounds/drop_label_A.wav",""
"","","","","","audio-keyboard-response","165","2.0.0","3939613","p6sz768hl6f","ono","seal","20","female","no","no","0","4","null","stimuli/sounds/bleep.wav","null","","","","","","",""
"","","","","","html-keyboard-response","166","2.0.0","3940285","p6sz768hl6f","ono","seal","20","female","no","no","0","4","569","<div style=""font-size:30px;"">Press space to start the trial</div>"," ","","","","","","",""
"","","","","","html-keyboard-response","167","2.0.0","3940537","p6sz768hl6f","ono","seal","20","female","no","no","0","4","null","<div style=""font-size:60px;"">+</div>","null","","","","","","",""
"","","","","","audio-keyboard-response","168","2.0.0","3941141","p6sz768hl6f","ono","seal","20","female","no","no","0","4","null","stimuli/sounds/dog_sound_B.wav","null","","","","","","",""
"","","","","","html-keyboard-response","169","2.0.0","3942143","p6sz768hl6f","ono","seal","20","female","no","no","0","4","null","","null","","","","","","",""
"","","","","","image-keyboard-response","170","2.0.0","3942561","p6sz768hl6f","ono","seal","20","female","no","no","0","4","416","stimuli/pictures/motor_dirt_2.jpg","0","0","","true","no","sound","stimuli/sounds/dog_sound_B.wav",""
"","","","","","audio-keyboard-response","171","2.0.0","3943565","p6sz768hl6f","ono","seal","20","female","no","no","0","4","null","stimuli/sounds/bleep.wav","null","","","","","","",""
"","","","","","html-keyboard-response","172","2.0.0","3944387","p6sz768hl6f","ono","seal","20","female","no","no","0","4","720","<div style=""font-size:30px;"">Press space to start the trial</div>"," ","","","","","","",""
"","","","","","html-keyboard-response","173","2.0.0","3944639","p6sz768hl6f","ono","seal","20","female","no","no","0","4","null","<div style=""font-size:60px;"">+</div>","null","","","","","","",""
"","","","","","audio-keyboard-response","174","2.0.0","3945242","p6sz768hl6f","ono","seal","20","female","no","no","0","4","null","stimuli/sounds/hiccup_sound_B.wav","null","","","","","","",""
"","","","","","html-keyboard-response","175","2.0.0","3946245","p6sz768hl6f","ono","seal","20","female","no","no","0","4","null","","null","","","","","","",""
"","","","","","image-keyboard-response","176","2.0.0","3946878","p6sz768hl6f","ono","seal","20","female","no","no","0","4","632","stimuli/pictures/drop_multi_2.jpg","0","0","","true","no","sound","stimuli/sounds/hiccup_sound_B.wav",""
"","","","","","audio-keyboard-response","177","2.0.0","3947881","p6sz768hl6f","ono","seal","20","female","no","no","0","4","null","stimuli/sounds/bleep.wav","null","","","","","","",""
"","","","","","html-keyboard-response","178","2.0.0","3948476","p6sz768hl6f","ono","seal","20","female","no","no","0","4","493","<div style=""font-size:30px;"">Press space to start the trial</div>"," ","","","","","","",""
"","","","","","html-keyboard-response","179","2.0.0","3948728","p6sz768hl6f","ono","seal","20","female","no","no","0","4","null","<div style=""font-size:60px;"">+</div>","null","","","","","","",""
"","","","","","audio-keyboard-response","180","2.0.0","3949328","p6sz768hl6f","ono","seal","20","female","no","no","0","4","null","stimuli/sounds/hiccup_sound_B.wav","null","","","","","","",""
"","","","","","html-keyboard-response","181","2.0.0","3950330","p6sz768hl6f","ono","seal","20","female","no","no","0","4","null","","null","","","","","","",""
"","","","","","image-keyboard-response","182","2.0.0","3951085","p6sz768hl6f","ono","seal","20","female","no","no","0","4","753","stimuli/pictures/hiccup_wom_1.jpg","1","1","","true","no","sound","stimuli/sounds/hiccup_sound_B.wav",""
"","","","","","audio-keyboard-response","183","2.0.0","3952087","p6sz768hl6f","ono","seal","20","female","no","no","0","4","null","stimuli/sounds/bleep.wav","null","","","","","","",""
"","","","","","html-keyboard-response","184","2.0.0","3952946","p6sz768hl6f","ono","seal","20","female","no","no","0","4","757","<div style=""font-size:30px;"">Press space to start the trial</div>"," ","","","","","","",""
"","","","","","html-keyboard-response","185","2.0.0","3953197","p6sz768hl6f","ono","seal","20","female","no","no","0","4","null","<div style=""font-size:60px;"">+</div>","null","","","","","","",""
"","","","","","audio-keyboard-response","186","2.0.0","3953797","p6sz768hl6f","ono","seal","20","female","no","no","0","4","null","stimuli/sounds/dog_label_A.wav","null","","","","","","",""
"","","","","","html-keyboard-response","187","2.0.0","3954799","p6sz768hl6f","ono","seal","20","female","no","no","0","4","null","","null","","","","","","",""
"","","","","","image-keyboard-response","188","2.0.0","3956030","p6sz768hl6f","ono","seal","20","female","no","no","0","4","1230","stimuli/pictures/dog_rott_2.jpg","1","1","","true","yes","sound","stimuli/sounds/dog_label_A.wav",""
"","","","","","audio-keyboard-response","189","2.0.0","3957034","p6sz768hl6f","ono","seal","20","female","no","no","0","4","null","stimuli/sounds/bleep.wav","null","","","","","","",""
"","","","","","html-keyboard-response","190","2.0.0","3962361","p6sz768hl6f","ono","seal","20","female","no","no","0","4","5225","<div style=""font-size:30px;"">Press space to start the trial</div>"," ","","","","","","",""
"","","","","","html-keyboard-response","191","2.0.0","3962612","p6sz768hl6f","ono","seal","20","female","no","no","0","4","null","<div style=""font-size:60px;"">+</div>","null","","","","","","",""
"","","","","","audio-keyboard-response","192","2.0.0","3963216","p6sz768hl6f","ono","seal","20","female","no","no","0","4","null","stimuli/sounds/dog_sound_A.wav","null","","","","","","",""
"","","","","","html-keyboard-response","193","2.0.0","3964218","p6sz768hl6f","ono","seal","20","female","no","no","0","4","null","","null","","","","","","",""
"","","","","","image-keyboard-response","194","2.0.0","3964740","p6sz768hl6f","ono","seal","20","female","no","no","0","4","520","stimuli/pictures/hiccup_man_1.jpg","0","0","","true","no","sound","stimuli/sounds/dog_sound_A.wav",""
"","","","","","audio-keyboard-response","195","2.0.0","3965743","p6sz768hl6f","ono","seal","20","female","no","no","0","4","null","stimuli/sounds/bleep.wav","null","","","","","","",""
"","","","","","html-keyboard-response","196","2.0.0","3966468","p6sz768hl6f","ono","seal","20","female","no","no","0","4","622","<div style=""font-size:30px;"">Press space to start the trial</div>"," ","","","","","","",""
"","","","","","html-keyboard-response","197","2.0.0","3966720","p6sz768hl6f","ono","seal","20","female","no","no","0","4","null","<div style=""font-size:60px;"">+</div>","null","","","","","","",""
"","","","","","audio-keyboard-response","198","2.0.0","3967322","p6sz768hl6f","ono","seal","20","female","no","no","0","4","null","stimuli/sounds/motor_label_A.wav","null","","","","","","",""
"","","","","","html-keyboard-response","199","2.0.0","3968324","p6sz768hl6f","ono","seal","20","female","no","no","0","4","null","","null","","","","","","",""
"","","","","","image-keyboard-response","200","2.0.0","3970013","p6sz768hl6f","ono","seal","20","female","no","no","0","4","1688","stimuli/pictures/dog_rott_1.jpg","0","0","","true","no","sound","stimuli/sounds/motor_label_A.wav",""
"","","","","","audio-keyboard-response","201","2.0.0","3971015","p6sz768hl6f","ono","seal","20","female","no","no","0","4","null","stimuli/sounds/bleep.wav","null","","","","","","",""
"","","","","","html-keyboard-response","202","2.0.0","3972800","p6sz768hl6f","ono","seal","20","female","no","no","0","4","1683","<div style=""font-size:30px;"">Press space to start the trial</div>"," ","","","","","","",""
"","","","","","html-keyboard-response","203","2.0.0","3973052","p6sz768hl6f","ono","seal","20","female","no","no","0","4","null","<div style=""font-size:60px;"">+</div>","null","","","","","","",""
"","","","","","audio-keyboard-response","204","2.0.0","3973717","p6sz768hl6f","ono","seal","20","female","no","no","0","4","null","stimuli/sounds/cough_sound_A.wav","null","","","","","","",""
"","","","","","html-keyboard-response","205","2.0.0","3974720","p6sz768hl6f","ono","seal","20","female","no","no","0","4","null","","null","","","","","","",""
"","","","","","image-keyboard-response","206","2.0.0","3975393","p6sz768hl6f","ono","seal","20","female","no","no","0","4","671","stimuli/pictures/dog_rott_1.jpg","0","0","","true","no","sound","stimuli/sounds/cough_sound_A.wav",""
"","","","","","audio-keyboard-response","207","2.0.0","3976395","p6sz768hl6f","ono","seal","20","female","no","no","0","4","null","stimuli/sounds/bleep.wav","null","","","","","","",""
"","","","","","html-keyboard-response","208","2.0.0","3979506","p6sz768hl6f","ono","seal","20","female","no","no","0","4","3008","<div style=""font-size:30px;"">Press space to start the trial</div>"," ","","","","","","",""
"","","","","","html-keyboard-response","209","2.0.0","3979759","p6sz768hl6f","ono","seal","20","female","no","no","0","4","null","<div style=""font-size:60px;"">+</div>","null","","","","","","",""
"","","","","","audio-keyboard-response","210","2.0.0","3980368","p6sz768hl6f","ono","seal","20","female","no","no","0","4","null","stimuli/sounds/cough_label_B.wav","null","","","","","","",""
"","","","","","html-keyboard-response","211","2.0.0","3981370","p6sz768hl6f","ono","seal","20","female","no","no","0","4","null","","null","","","","","","",""
"","","","","","image-keyboard-response","212","2.0.0","3982593","p6sz768hl6f","ono","seal","20","female","no","no","0","4","1222","stimuli/pictures/cough_wom_2.jpg","1","1","","true","yes","sound","stimuli/sounds/cough_label_B.wav",""
"","","","","","audio-keyboard-response","213","2.0.0","3983596","p6sz768hl6f","ono","seal","20","female","no","no","0","4","null","stimuli/sounds/bleep.wav","null","","","","","","",""
"","","","","","html-keyboard-response","214","2.0.0","3984577","p6sz768hl6f","ono","seal","20","female","no","no","0","4","878","<div style=""font-size:30px;"">Press space to start the trial</div>"," ","","","","","","",""
"","","","","","html-keyboard-response","215","2.0.0","3984829","p6sz768hl6f","ono","seal","20","female","no","no","0","4","null","<div style=""font-size:60px;"">+</div>","null","","","","","","",""
"","","","","","audio-keyboard-response","216","2.0.0","3985509","p6sz768hl6f","ono","seal","20","female","no","no","0","4","null","stimuli/sounds/cough_sound_B.wav","null","","","","","","",""
"","","","","","html-keyboard-response","217","2.0.0","3986511","p6sz768hl6f","ono","seal","20","female","no","no","0","4","null","","null","","","","","","",""
"","","","","","image-keyboard-response","218","2.0.0","3988974","p6sz768hl6f","ono","seal","20","female","no","no","0","4","2461","stimuli/pictures/hiccup_man_2.jpg","0","0","","true","no","sound","stimuli/sounds/cough_sound_B.wav",""
"","","","","","audio-keyboard-response","219","2.0.0","3989976","p6sz768hl6f","ono","seal","20","female","no","no","0","4","null","stimuli/sounds/bleep.wav","null","","","","","","",""
"","","","","","html-keyboard-response","220","2.0.0","3999828","p6sz768hl6f","ono","seal","20","female","no","no","0","4","9749","<div style=""font-size:30px;"">Press space to start the trial</div>"," ","","","","","","",""
"","","","","","html-keyboard-response","221","2.0.0","4000080","p6sz768hl6f","ono","seal","20","female","no","no","0","4","null","<div style=""font-size:60px;"">+</div>","null","","","","","","",""
"","","","","","audio-keyboard-response","222","2.0.0","4000666","p6sz768hl6f","ono","seal","20","female","no","no","0","4","null","stimuli/sounds/drop_sound_A.wav","null","","","","","","",""
"","","","","","html-keyboard-response","223","2.0.0","4001669","p6sz768hl6f","ono","seal","20","female","no","no","0","4","null","","null","","","","","","",""
"","","","","","image-keyboard-response","224","2.0.0","4003135","p6sz768hl6f","ono","seal","20","female","no","no","0","4","1465","stimuli/pictures/cough_wom_2.jpg","0","0","","true","no","sound","stimuli/sounds/drop_sound_A.wav",""
"","","","","","audio-keyboard-response","225","2.0.0","4004138","p6sz768hl6f","ono","seal","20","female","no","no","0","4","null","stimuli/sounds/bleep.wav","null","","","","","","",""
"","","","","","html-keyboard-response","226","2.0.0","4008730","p6sz768hl6f","ono","seal","20","female","no","no","0","4","4491","<div style=""font-size:30px;"">Press space to start the trial</div>"," ","","","","","","",""
"","","","","","html-keyboard-response","227","2.0.0","4008983","p6sz768hl6f","ono","seal","20","female","no","no","0","4","null","<div style=""font-size:60px;"">+</div>","null","","","","","","",""
"","","","","","audio-keyboard-response","228","2.0.0","4009584","p6sz768hl6f","ono","seal","20","female","no","no","0","4","null","stimuli/sounds/dog_label_B.wav","null","","","","","","",""
"","","","","","html-keyboard-response","229","2.0.0","4010586","p6sz768hl6f","ono","seal","20","female","no","no","0","4","null","","null","","","","","","",""
"","","","","","image-keyboard-response","230","2.0.0","4012780","p6sz768hl6f","ono","seal","20","female","no","no","0","4","2192","stimuli/pictures/dog_york_1.jpg","1","1","","true","yes","sound","stimuli/sounds/dog_label_B.wav",""
"","","","","","audio-keyboard-response","231","2.0.0","4013783","p6sz768hl6f","ono","seal","20","female","no","no","0","4","null","stimuli/sounds/bleep.wav","null","","","","","","",""
"","","","","","html-keyboard-response","232","2.0.0","4016367","p6sz768hl6f","ono","seal","20","female","no","no","0","4","2482","<div style=""font-size:30px;"">Press space to start the trial</div>"," ","","","","","","",""
"","","","","","html-keyboard-response","233","2.0.0","4016618","p6sz768hl6f","ono","seal","20","female","no","no","0","4","null","<div style=""font-size:60px;"">+</div>","null","","","","","","",""
"","","","","","audio-keyboard-response","234","2.0.0","4017226","p6sz768hl6f","ono","seal","20","female","no","no","0","4","null","stimuli/sounds/hiccup_sound_A.wav","null","","","","","","",""
"","","","","","html-keyboard-response","235","2.0.0","4018229","p6sz768hl6f","ono","seal","20","female","no","no","0","4","null","","null","","","","","","",""
"","","","","","image-keyboard-response","236","2.0.0","4019842","p6sz768hl6f","ono","seal","20","female","no","no","0","4","1611","stimuli/pictures/hiccup_man_1.jpg","0","1","","false","no","sound","stimuli/sounds/hiccup_sound_A.wav",""
"","","","","","audio-keyboard-response","237","2.0.0","4020845","p6sz768hl6f","ono","seal","20","female","no","no","0","4","null","stimuli/sounds/buzz.wav","null","","","","","","",""
"","","","","","html-keyboard-response","238","2.0.0","4021812","p6sz768hl6f","ono","seal","20","female","no","no","0","4","865","<div style=""font-size:30px;"">Press space to start the trial</div>"," ","","","","","","",""
"","","","","","html-keyboard-response","239","2.0.0","4022064","p6sz768hl6f","ono","seal","20","female","no","no","0","4","null","<div style=""font-size:60px;"">+</div>","null","","","","","","",""
"","","","","","audio-keyboard-response","240","2.0.0","4022666","p6sz768hl6f","ono","seal","20","female","no","no","0","4","null","stimuli/sounds/motor_label_A.wav","null","","","","","","",""
"","","","","","html-keyboard-response","241","2.0.0","4023668","p6sz768hl6f","ono","seal","20","female","no","no","0","4","null","","null","","","","","","",""
"","","","","","image-keyboard-response","242","2.0.0","4024932","p6sz768hl6f","ono","seal","20","female","no","no","0","4","1263","stimuli/pictures/dog_york_1.jpg","1","0","","false","no","sound","stimuli/sounds/motor_label_A.wav",""
"","","","","","audio-keyboard-response","243","2.0.0","4025934","p6sz768hl6f","ono","seal","20","female","no","no","0","4","null","stimuli/sounds/buzz.wav","null","","","","","","",""
"","","","","","html-keyboard-response","244","2.0.0","4027651","p6sz768hl6f","ono","seal","20","female","no","no","0","4","1614","<div style=""font-size:30px;"">Press space to start the trial</div>"," ","","","","","","",""
"","","","","","html-keyboard-response","245","2.0.0","4027903","p6sz768hl6f","ono","seal","20","female","no","no","0","4","null","<div style=""font-size:60px;"">+</div>","null","","","","","","",""
"","","","","","audio-keyboard-response","246","2.0.0","4028490","p6sz768hl6f","ono","seal","20","female","no","no","0","4","null","stimuli/sounds/drop_sound_A.wav","null","","","","","","",""
"","","","","","html-keyboard-response","247","2.0.0","4029493","p6sz768hl6f","ono","seal","20","female","no","no","0","4","null","","null","","","","","","",""
"","","","","","image-keyboard-response","248","2.0.0","4031056","p6sz768hl6f","ono","seal","20","female","no","no","0","4","1562","stimuli/pictures/drop_multi_2.jpg","0","1","","false","no","sound","stimuli/sounds/drop_sound_A.wav",""
"","","","","","audio-keyboard-response","249","2.0.0","4032058","p6sz768hl6f","ono","seal","20","female","no","no","0","4","null","stimuli/sounds/buzz.wav","null","","","","","","",""
"","","","","","html-keyboard-response","250","2.0.0","4034097","p6sz768hl6f","ono","seal","20","female","no","no","0","4","1936","<div style=""font-size:30px;"">Press space to start the trial</div>"," ","","","","","","",""
"","","","","","html-keyboard-response","251","2.0.0","4034349","p6sz768hl6f","ono","seal","20","female","no","no","0","4","null","<div style=""font-size:60px;"">+</div>","null","","","","","","",""
"","","","","","audio-keyboard-response","252","2.0.0","4034949","p6sz768hl6f","ono","seal","20","female","no","no","0","4","null","stimuli/sounds/dog_sound_B.wav","null","","","","","","",""
"","","","","","html-keyboard-response","253","2.0.0","4035951","p6sz768hl6f","ono","seal","20","female","no","no","0","4","null","","null","","","","","","",""
"","","","","","image-keyboard-response","254","2.0.0","4037199","p6sz768hl6f","ono","seal","20","female","no","no","0","4","1246","stimuli/pictures/dog_rott_1.jpg","1","1","","true","no","sound","stimuli/sounds/dog_sound_B.wav",""
"","","","","","audio-keyboard-response","255","2.0.0","4038201","p6sz768hl6f","ono","seal","20","female","no","no","0","4","null","stimuli/sounds/bleep.wav","null","","","","","","",""
"","","","","","html-keyboard-response","256","2.0.0","4042527","p6sz768hl6f","ono","seal","20","female","no","no","0","4","4223","<div style=""font-size:30px;"">Press space to start the trial</div>"," ","","","","","","",""
"","","","","","html-keyboard-response","257","2.0.0","4042780","p6sz768hl6f","ono","seal","20","female","no","no","0","4","null","<div style=""font-size:60px;"">+</div>","null","","","","","","",""
"","","","","","audio-keyboard-response","258","2.0.0","4043386","p6sz768hl6f","ono","seal","20","female","no","no","0","4","null","stimuli/sounds/drop_sound_B.wav","null","","","","","","",""
"","","","","","html-keyboard-response","259","2.0.0","4044388","p6sz768hl6f","ono","seal","20","female","no","no","0","4","null","","null","","","","","","",""
"","","","","","image-keyboard-response","260","2.0.0","4045199","p6sz768hl6f","ono","seal","20","female","no","no","0","4","810","stimuli/pictures/dog_york_2.jpg","0","0","","true","no","sound","stimuli/sounds/drop_sound_B.wav",""
"","","","","","audio-keyboard-response","261","2.0.0","4046202","p6sz768hl6f","ono","seal","20","female","no","no","0","4","null","stimuli/sounds/bleep.wav","null","","","","","","",""
"","","","","","html-keyboard-response","262","2.0.0","4046904","p6sz768hl6f","ono","seal","20","female","no","no","0","4","599","<div style=""font-size:30px;"">Press space to start the trial</div>"," ","","","","","","",""
"","","","","","html-keyboard-response","263","2.0.0","4047157","p6sz768hl6f","ono","seal","20","female","no","no","0","4","null","<div style=""font-size:60px;"">+</div>","null","","","","","","",""
"","","","","","audio-keyboard-response","264","2.0.0","4047792","p6sz768hl6f","ono","seal","20","female","no","no","0","4","null","stimuli/sounds/cough_label_A.wav","null","","","","","","",""
"","","","","","html-keyboard-response","265","2.0.0","4048794","p6sz768hl6f","ono","seal","20","female","no","no","0","4","null","","null","","","","","","",""
"","","","","","image-keyboard-response","266","2.0.0","4050618","p6sz768hl6f","ono","seal","20","female","no","no","0","4","1823","stimuli/pictures/cough_wom_1.jpg","1","1","","true","yes","sound","stimuli/sounds/cough_label_A.wav",""
"","","","","","audio-keyboard-response","267","2.0.0","4051620","p6sz768hl6f","ono","seal","20","female","no","no","0","4","null","stimuli/sounds/bleep.wav","null","","","","","","",""
"","","","","","html-keyboard-response","268","2.0.0","4059561","p6sz768hl6f","ono","seal","20","female","no","no","0","4","7839","<p>You have completed a block. Press R when you are ready to continue</p>","r","","","","","","",""
"","","","","","html-keyboard-response","269","2.0.0","4071572","p6sz768hl6f","ono","seal","20","female","no","no","0","4","12011","<div style=""font-size:30px;"">Press space to start the trial</div>"," ","","","","","","",""
"","","","","","html-keyboard-response","270","2.0.0","4071825","p6sz768hl6f","ono","seal","20","female","no","no","0","4","null","<div style=""font-size:60px;"">+</div>","null","","","","","","",""
"","","","","","audio-keyboard-response","271","2.0.0","4072432","p6sz768hl6f","ono","seal","20","female","no","no","0","4","null","stimuli/sounds/hiccup_sound_A.wav","null","","","","","","",""
"","","","","","html-keyboard-response","272","2.0.0","4073434","p6sz768hl6f","ono","seal","20","female","no","no","0","4","null","","null","","","","","","",""
"","","","","","image-keyboard-response","273","2.0.0","4074013","p6sz768hl6f","ono","seal","20","female","no","no","0","4","578","stimuli/pictures/motor_dirt_1.jpg","0","0","","true","no","sound","stimuli/sounds/hiccup_sound_A.wav",""
"","","","","","audio-keyboard-response","274","2.0.0","4075015","p6sz768hl6f","ono","seal","20","female","no","no","0","4","null","stimuli/sounds/bleep.wav","null","","","","","","",""
"","","","","","html-keyboard-response","275","2.0.0","4075707","p6sz768hl6f","ono","seal","20","female","no","no","0","4","590","<div style=""font-size:30px;"">Press space to start the trial</div>"," ","","","","","","",""
"","","","","","html-keyboard-response","276","2.0.0","4075960","p6sz768hl6f","ono","seal","20","female","no","no","0","4","null","<div style=""font-size:60px;"">+</div>","null","","","","","","",""
"","","","","","audio-keyboard-response","277","2.0.0","4076560","p6sz768hl6f","ono","seal","20","female","no","no","0","4","null","stimuli/sounds/dog_sound_B.wav","null","","","","","","",""
"","","","","","html-keyboard-response","278","2.0.0","4077562","p6sz768hl6f","ono","seal","20","female","no","no","0","4","null","","null","","","","","","",""
"","","","","","image-keyboard-response","279","2.0.0","4077945","p6sz768hl6f","ono","seal","20","female","no","no","0","4","381","stimuli/pictures/dog_york_2.jpg","1","1","","true","yes","sound","stimuli/sounds/dog_sound_B.wav",""
"","","","","","audio-keyboard-response","280","2.0.0","4078947","p6sz768hl6f","ono","seal","20","female","no","no","0","4","null","stimuli/sounds/bleep.wav","null","","","","","","",""
"","","","","","html-keyboard-response","281","2.0.0","4079980","p6sz768hl6f","ono","seal","20","female","no","no","0","4","931","<div style=""font-size:30px;"">Press space to start the trial</div>"," ","","","","","","",""
"","","","","","html-keyboard-response","282","2.0.0","4080233","p6sz768hl6f","ono","seal","20","female","no","no","0","4","null","<div style=""font-size:60px;"">+</div>","null","","","","","","",""
"","","","","","audio-keyboard-response","283","2.0.0","4080837","p6sz768hl6f","ono","seal","20","female","no","no","0","4","null","stimuli/sounds/hiccup_label_B.wav","null","","","","","","",""
"","","","","","html-keyboard-response","284","2.0.0","4081840","p6sz768hl6f","ono","seal","20","female","no","no","0","4","null","","null","","","","","","",""
"","","","","","image-keyboard-response","285","2.0.0","4082489","p6sz768hl6f","ono","seal","20","female","no","no","0","4","648","stimuli/pictures/dog_rott_1.jpg","0","0","","true","no","sound","stimuli/sounds/hiccup_label_B.wav",""
"","","","","","audio-keyboard-response","286","2.0.0","4083492","p6sz768hl6f","ono","seal","20","female","no","no","0","4","null","stimuli/sounds/bleep.wav","null","","","","","","",""
"","","","","","html-keyboard-response","287","2.0.0","4084145","p6sz768hl6f","ono","seal","20","female","no","no","0","4","550","<div style=""font-size:30px;"">Press space to start the trial</div>"," ","","","","","","",""
"","","","","","html-keyboard-response","288","2.0.0","4084397","p6sz768hl6f","ono","seal","20","female","no","no","0","4","null","<div style=""font-size:60px;"">+</div>","null","","","","","","",""
"","","","","","audio-keyboard-response","289","2.0.0","4084981","p6sz768hl6f","ono","seal","20","female","no","no","0","4","null","stimuli/sounds/drop_sound_A.wav","null","","","","","","",""
"","","","","","html-keyboard-response","290","2.0.0","4085983","p6sz768hl6f","ono","seal","20","female","no","no","0","4","null","","null","","","","","","",""
"","","","","","image-keyboard-response","291","2.0.0","4087843","p6sz768hl6f","ono","seal","20","female","no","no","0","4","1859","stimuli/pictures/drop_single_1.jpg","1","1","","true","yes","sound","stimuli/sounds/drop_sound_A.wav",""
"","","","","","audio-keyboard-response","292","2.0.0","4088846","p6sz768hl6f","ono","seal","20","female","no","no","0","4","null","stimuli/sounds/bleep.wav","null","","","","","","",""
"","","","","","html-keyboard-response","293","2.0.0","4090189","p6sz768hl6f","ono","seal","20","female","no","no","0","4","1241","<div style=""font-size:30px;"">Press space to start the trial</div>"," ","","","","","","",""
"","","","","","html-keyboard-response","294","2.0.0","4090440","p6sz768hl6f","ono","seal","20","female","no","no","0","4","null","<div style=""font-size:60px;"">+</div>","null","","","","","","",""
"","","","","","audio-keyboard-response","295","2.0.0","4091045","p6sz768hl6f","ono","seal","20","female","no","no","0","4","null","stimuli/sounds/drop_sound_B.wav","null","","","","","","",""
"","","","","","html-keyboard-response","296","2.0.0","4092047","p6sz768hl6f","ono","seal","20","female","no","no","0","4","null","","null","","","","","","",""
"","","","","","image-keyboard-response","297","2.0.0","4092827","p6sz768hl6f","ono","seal","20","female","no","no","0","4","778","stimuli/pictures/drop_multi_2.jpg","0","1","","false","yes","sound","stimuli/sounds/drop_sound_B.wav",""
"","","","","","audio-keyboard-response","298","2.0.0","4093830","p6sz768hl6f","ono","seal","20","female","no","no","0","4","null","stimuli/sounds/buzz.wav","null","","","","","","",""
"","","","","","html-keyboard-response","299","2.0.0","4097396","p6sz768hl6f","ono","seal","20","female","no","no","0","4","3464","<div style=""font-size:30px;"">Press space to start the trial</div>"," ","","","","","","",""
"","","","","","html-keyboard-response","300","2.0.0","4097648","p6sz768hl6f","ono","seal","20","female","no","no","0","4","null","<div style=""font-size:60px;"">+</div>","null","","","","","","",""
"","","","","","audio-keyboard-response","301","2.0.0","4098261","p6sz768hl6f","ono","seal","20","female","no","no","0","4","null","stimuli/sounds/drop_label_B.wav","null","","","","","","",""
"","","","","","html-keyboard-response","302","2.0.0","4099263","p6sz768hl6f","ono","seal","20","female","no","no","0","4","null","","null","","","","","","",""
"","","","","","image-keyboard-response","303","2.0.0","4100021","p6sz768hl6f","ono","seal","20","female","no","no","0","4","756","stimuli/pictures/motor_harley_1.jpg","0","0","","true","no","sound","stimuli/sounds/drop_label_B.wav",""
"","","","","","audio-keyboard-response","304","2.0.0","4101024","p6sz768hl6f","ono","seal","20","female","no","no","0","4","null","stimuli/sounds/bleep.wav","null","","","","","","",""
"","","","","","html-keyboard-response","305","2.0.0","4103854","p6sz768hl6f","ono","seal","20","female","no","no","0","4","2728","<div style=""font-size:30px;"">Press space to start the trial</div>"," ","","","","","","",""
"","","","","","html-keyboard-response","306","2.0.0","4104107","p6sz768hl6f","ono","seal","20","female","no","no","0","4","null","<div style=""font-size:60px;"">+</div>","null","","","","","","",""
"","","","","","audio-keyboard-response","307","2.0.0","4104709","p6sz768hl6f","ono","seal","20","female","no","no","0","4","null","stimuli/sounds/motor_sound_B.wav","null","","","","","","",""
"","","","","","html-keyboard-response","308","2.0.0","4105711","p6sz768hl6f","ono","seal","20","female","no","no","0","4","null","","null","","","","","","",""
"","","","","","image-keyboard-response","309","2.0.0","4106325","p6sz768hl6f","ono","seal","20","female","no","no","0","4","613","stimuli/pictures/cough_wom_2.jpg","0","0","","true","no","sound","stimuli/sounds/motor_sound_B.wav",""
"","","","","","audio-keyboard-response","310","2.0.0","4107328","p6sz768hl6f","ono","seal","20","female","no","no","0","4","null","stimuli/sounds/bleep.wav","null","","","","","","",""
"","","","","","html-keyboard-response","311","2.0.0","4109652","p6sz768hl6f","ono","seal","20","female","no","no","0","4","2222","<div style=""font-size:30px;"">Press space to start the trial</div>"," ","","","","","","",""
"","","","","","html-keyboard-response","312","2.0.0","4109905","p6sz768hl6f","ono","seal","20","female","no","no","0","4","null","<div style=""font-size:60px;"">+</div>","null","","","","","","",""
"","","","","","audio-keyboard-response","313","2.0.0","4110506","p6sz768hl6f","ono","seal","20","female","no","no","0","4","null","stimuli/sounds/motor_sound_A.wav","null","","","","","","",""
"","","","","","html-keyboard-response","314","2.0.0","4111509","p6sz768hl6f","ono","seal","20","female","no","no","0","4","null","","null","","","","","","",""
"","","","","","image-keyboard-response","315","2.0.0","4112917","p6sz768hl6f","ono","seal","20","female","no","no","0","4","1407","stimuli/pictures/drop_single_2.jpg","0","0","","true","no","sound","stimuli/sounds/motor_sound_A.wav",""
"","","","","","audio-keyboard-response","316","2.0.0","4113920","p6sz768hl6f","ono","seal","20","female","no","no","0","4","null","stimuli/sounds/bleep.wav","null","","","","","","",""
"","","","","","html-keyboard-response","317","2.0.0","4117067","p6sz768hl6f","ono","seal","20","female","no","no","0","4","3044","<div style=""font-size:30px;"">Press space to start the trial</div>"," ","","","","","","",""
"","","","","","html-keyboard-response","318","2.0.0","4117319","p6sz768hl6f","ono","seal","20","female","no","no","0","4","null","<div style=""font-size:60px;"">+</div>","null","","","","","","",""
"","","","","","audio-keyboard-response","319","2.0.0","4117919","p6sz768hl6f","ono","seal","20","female","no","no","0","4","null","stimuli/sounds/motor_label_B.wav","null","","","","","","",""
"","","","","","html-keyboard-response","320","2.0.0","4118921","p6sz768hl6f","ono","seal","20","female","no","no","0","4","null","","null","","","","","","",""
"","","","","","image-keyboard-response","321","2.0.0","4120832","p6sz768hl6f","ono","seal","20","female","no","no","0","4","1909","stimuli/pictures/hiccup_man_2.jpg","0","0","","true","no","sound","stimuli/sounds/motor_label_B.wav",""
"","","","","","audio-keyboard-response","322","2.0.0","4121834","p6sz768hl6f","ono","seal","20","female","no","no","0","4","null","stimuli/sounds/bleep.wav","null","","","","","","",""
"","","","","","html-keyboard-response","323","2.0.0","4122623","p6sz768hl6f","ono","seal","20","female","no","no","0","4","687","<div style=""font-size:30px;"">Press space to start the trial</div>"," ","","","","","","",""
"","","","","","html-keyboard-response","324","2.0.0","4122875","p6sz768hl6f","ono","seal","20","female","no","no","0","4","null","<div style=""font-size:60px;"">+</div>","null","","","","","","",""
"","","","","","audio-keyboard-response","325","2.0.0","4123477","p6sz768hl6f","ono","seal","20","female","no","no","0","4","null","stimuli/sounds/motor_sound_B.wav","null","","","","","","",""
"","","","","","html-keyboard-response","326","2.0.0","4124479","p6sz768hl6f","ono","seal","20","female","no","no","0","4","null","","null","","","","","","",""
"","","","","","image-keyboard-response","327","2.0.0","4125984","p6sz768hl6f","ono","seal","20","female","no","no","0","4","1504","stimuli/pictures/motor_dirt_2.jpg","1","1","","true","no","sound","stimuli/sounds/motor_sound_B.wav",""
"","","","","","audio-keyboard-response","328","2.0.0","4126987","p6sz768hl6f","ono","seal","20","female","no","no","0","4","null","stimuli/sounds/bleep.wav","null","","","","","","",""
"","","","","","html-keyboard-response","329","2.0.0","4131552","p6sz768hl6f","ono","seal","20","female","no","no","0","4","4463","<div style=""font-size:30px;"">Press space to start the trial</div>"," ","","","","","","",""
"","","","","","html-keyboard-response","330","2.0.0","4131805","p6sz768hl6f","ono","seal","20","female","no","no","0","4","null","<div style=""font-size:60px;"">+</div>","null","","","","","","",""
"","","","","","audio-keyboard-response","331","2.0.0","4132405","p6sz768hl6f","ono","seal","20","female","no","no","0","4","null","stimuli/sounds/motor_sound_B.wav","null","","","","","","",""
"","","","","","html-keyboard-response","332","2.0.0","4133407","p6sz768hl6f","ono","seal","20","female","no","no","0","4","null","","null","","","","","","",""
"","","","","","image-keyboard-response","333","2.0.0","4134449","p6sz768hl6f","ono","seal","20","female","no","no","0","4","1041","stimuli/pictures/motor_harley_2.jpg","1","1","","true","yes","sound","stimuli/sounds/motor_sound_B.wav",""
"","","","","","audio-keyboard-response","334","2.0.0","4135452","p6sz768hl6f","ono","seal","20","female","no","no","0","4","null","stimuli/sounds/bleep.wav","null","","","","","","",""
"","","","","","html-keyboard-response","335","2.0.0","4136064","p6sz768hl6f","ono","seal","20","female","no","no","0","4","511","<div style=""font-size:30px;"">Press space to start the trial</div>"," ","","","","","","",""
"","","","","","html-keyboard-response","336","2.0.0","4136317","p6sz768hl6f","ono","seal","20","female","no","no","0","4","null","<div style=""font-size:60px;"">+</div>","null","","","","","","",""
"","","","","","audio-keyboard-response","337","2.0.0","4136917","p6sz768hl6f","ono","seal","20","female","no","no","0","4","null","stimuli/sounds/dog_sound_B.wav","null","","","","","","",""
"","","","","","html-keyboard-response","338","2.0.0","4137919","p6sz768hl6f","ono","seal","20","female","no","no","0","4","null","","null","","","","","","",""
"","","","","","image-keyboard-response","339","2.0.0","4138480","p6sz768hl6f","ono","seal","20","female","no","no","0","4","559","stimuli/pictures/motor_dirt_1.jpg","0","0","","true","no","sound","stimuli/sounds/dog_sound_B.wav",""
"","","","","","audio-keyboard-response","340","2.0.0","4139483","p6sz768hl6f","ono","seal","20","female","no","no","0","4","null","stimuli/sounds/bleep.wav","null","","","","","","",""
"","","","","","html-keyboard-response","341","2.0.0","4141808","p6sz768hl6f","ono","seal","20","female","no","no","0","4","2222","<div style=""font-size:30px;"">Press space to start the trial</div>"," ","","","","","","",""
"","","","","","html-keyboard-response","342","2.0.0","4142065","p6sz768hl6f","ono","seal","20","female","no","no","0","4","null","<div style=""font-size:60px;"">+</div>","null","","","","","","",""
"","","","","","audio-keyboard-response","343","2.0.0","4142671","p6sz768hl6f","ono","seal","20","female","no","no","0","4","null","stimuli/sounds/hiccup_label_B.wav","null","","","","","","",""
"","","","","","html-keyboard-response","344","2.0.0","4143674","p6sz768hl6f","ono","seal","20","female","no","no","0","4","null","","null","","","","","","",""
"","","","","","image-keyboard-response","345","2.0.0","4144256","p6sz768hl6f","ono","seal","20","female","no","no","0","4","581","stimuli/pictures/dog_rott_1.jpg","0","0","","true","no","sound","stimuli/sounds/hiccup_label_B.wav",""
"","","","","","audio-keyboard-response","346","2.0.0","4145259","p6sz768hl6f","ono","seal","20","female","no","no","0","4","null","stimuli/sounds/bleep.wav","null","","","","","","",""
"","","","","","html-keyboard-response","347","2.0.0","4146978","p6sz768hl6f","ono","seal","20","female","no","no","0","4","1617","<div style=""font-size:30px;"">Press space to start the trial</div>"," ","","","","","","",""
"","","","","","html-keyboard-response","348","2.0.0","4147231","p6sz768hl6f","ono","seal","20","female","no","no","0","4","null","<div style=""font-size:60px;"">+</div>","null","","","","","","",""
"","","","","","audio-keyboard-response","349","2.0.0","4147834","p6sz768hl6f","ono","seal","20","female","no","no","0","4","null","stimuli/sounds/motor_sound_A.wav","null","","","","","","",""
"","","","","","html-keyboard-response","350","2.0.0","4148836","p6sz768hl6f","ono","seal","20","female","no","no","0","4","null","","null","","","","","","",""
"","","","","","image-keyboard-response","351","2.0.0","4153369","p6sz768hl6f","ono","seal","20","female","no","no","0","4","4532","stimuli/pictures/drop_multi_2.jpg","0","0","","true","no","sound","stimuli/sounds/motor_sound_A.wav",""
"","","","","","audio-keyboard-response","352","2.0.0","4154372","p6sz768hl6f","ono","seal","20","female","no","no","0","4","null","stimuli/sounds/bleep.wav","null","","","","","","",""
"","","","","","html-keyboard-response","353","2.0.0","4156447","p6sz768hl6f","ono","seal","20","female","no","no","0","4","1972","<div style=""font-size:30px;"">Press space to start the trial</div>"," ","","","","","","",""
"","","","","","html-keyboard-response","354","2.0.0","4156699","p6sz768hl6f","ono","seal","20","female","no","no","0","4","null","<div style=""font-size:60px;"">+</div>","null","","","","","","",""
"","","","","","audio-keyboard-response","355","2.0.0","4157381","p6sz768hl6f","ono","seal","20","female","no","no","0","4","null","stimuli/sounds/cough_sound_B.wav","null","","","","","","",""
"","","","","","html-keyboard-response","356","2.0.0","4158383","p6sz768hl6f","ono","seal","20","female","no","no","0","4","null","","null","","","","","","",""
"","","","","","image-keyboard-response","357","2.0.0","4158853","p6sz768hl6f","ono","seal","20","female","no","no","0","4","469","stimuli/pictures/cough_wom_1.jpg","1","1","","true","no","sound","stimuli/sounds/cough_sound_B.wav",""
"","","","","","audio-keyboard-response","358","2.0.0","4159855","p6sz768hl6f","ono","seal","20","female","no","no","0","4","null","stimuli/sounds/bleep.wav","null","","","","","","",""
"","","","","","html-keyboard-response","359","2.0.0","4163673","p6sz768hl6f","ono","seal","20","female","no","no","0","4","3715","<div style=""font-size:30px;"">Press space to start the trial</div>"," ","","","","","","",""
"","","","","","html-keyboard-response","360","2.0.0","4163925","p6sz768hl6f","ono","seal","20","female","no","no","0","4","null","<div style=""font-size:60px;"">+</div>","null","","","","","","",""
"","","","","","audio-keyboard-response","361","2.0.0","4164527","p6sz768hl6f","ono","seal","20","female","no","no","0","4","null","stimuli/sounds/dog_sound_A.wav","null","","","","","","",""
"","","","","","html-keyboard-response","362","2.0.0","4165530","p6sz768hl6f","ono","seal","20","female","no","no","0","4","null","","null","","","","","","",""
"","","","","","image-keyboard-response","363","2.0.0","4166071","p6sz768hl6f","ono","seal","20","female","no","no","0","4","539","stimuli/pictures/dog_york_1.jpg","1","1","","true","no","sound","stimuli/sounds/dog_sound_A.wav",""
"","","","","","audio-keyboard-response","364","2.0.0","4167073","p6sz768hl6f","ono","seal","20","female","no","no","0","4","null","stimuli/sounds/bleep.wav","null","","","","","","",""
"","","","","","html-keyboard-response","365","2.0.0","4167645","p6sz768hl6f","ono","seal","20","female","no","no","0","4","470","<div style=""font-size:30px;"">Press space to start the trial</div>"," ","","","","","","",""
"","","","","","html-keyboard-response","366","2.0.0","4167897","p6sz768hl6f","ono","seal","20","female","no","no","0","4","null","<div style=""font-size:60px;"">+</div>","null","","","","","","",""
"","","","","","audio-keyboard-response","367","2.0.0","4168485","p6sz768hl6f","ono","seal","20","female","no","no","0","4","null","stimuli/sounds/drop_sound_A.wav","null","","","","","","",""
"","","","","","html-keyboard-response","368","2.0.0","4169486","p6sz768hl6f","ono","seal","20","female","no","no","0","4","null","","null","","","","","","",""
"","","","","","image-keyboard-response","369","2.0.0","4170381","p6sz768hl6f","ono","seal","20","female","no","no","0","4","894","stimuli/pictures/cough_man_2.jpg","0","0","","true","no","sound","stimuli/sounds/drop_sound_A.wav",""
"","","","","","audio-keyboard-response","370","2.0.0","4171384","p6sz768hl6f","ono","seal","20","female","no","no","0","4","null","stimuli/sounds/bleep.wav","null","","","","","","",""
"","","","","","html-keyboard-response","371","2.0.0","4172323","p6sz768hl6f","ono","seal","20","female","no","no","0","4","837","<div style=""font-size:30px;"">Press space to start the trial</div>"," ","","","","","","",""
"","","","","","html-keyboard-response","372","2.0.0","4172576","p6sz768hl6f","ono","seal","20","female","no","no","0","4","null","<div style=""font-size:60px;"">+</div>","null","","","","","","",""
"","","","","","audio-keyboard-response","373","2.0.0","4173125","p6sz768hl6f","ono","seal","20","female","no","no","0","4","null","stimuli/sounds/drop_label_A.wav","null","","","","","","",""
"","","","","","html-keyboard-response","374","2.0.0","4174127","p6sz768hl6f","ono","seal","20","female","no","no","0","4","null","","null","","","","","","",""
"","","","","","image-keyboard-response","375","2.0.0","4174677","p6sz768hl6f","ono","seal","20","female","no","no","0","4","549","stimuli/pictures/drop_multi_2.jpg","1","1","","true","yes","sound","stimuli/sounds/drop_label_A.wav",""
"","","","","","audio-keyboard-response","376","2.0.0","4175680","p6sz768hl6f","ono","seal","20","female","no","no","0","4","null","stimuli/sounds/bleep.wav","null","","","","","","",""
"","","","","","html-keyboard-response","377","2.0.0","4176251","p6sz768hl6f","ono","seal","20","female","no","no","0","4","468","<div style=""font-size:30px;"">Press space to start the trial</div>"," ","","","","","","",""
"","","","","","html-keyboard-response","378","2.0.0","4176503","p6sz768hl6f","ono","seal","20","female","no","no","0","4","null","<div style=""font-size:60px;"">+</div>","null","","","","","","",""
"","","","","","audio-keyboard-response","379","2.0.0","4177109","p6sz768hl6f","ono","seal","20","female","no","no","0","4","null","stimuli/sounds/hiccup_label_B.wav","null","","","","","","",""
"","","","","","html-keyboard-response","380","2.0.0","4178111","p6sz768hl6f","ono","seal","20","female","no","no","0","4","null","","null","","","","","","",""
"","","","","","image-keyboard-response","381","2.0.0","4178640","p6sz768hl6f","ono","seal","20","female","no","no","0","4","527","stimuli/pictures/dog_york_1.jpg","0","0","","true","no","sound","stimuli/sounds/hiccup_label_B.wav",""
"","","","","","audio-keyboard-response","382","2.0.0","4179643","p6sz768hl6f","ono","seal","20","female","no","no","0","4","null","stimuli/sounds/bleep.wav","null","","","","","","",""
"","","","","","html-keyboard-response","383","2.0.0","4181266","p6sz768hl6f","ono","seal","20","female","no","no","0","4","1521","<div style=""font-size:30px;"">Press space to start the trial</div>"," ","","","","","","",""
"","","","","","html-keyboard-response","384","2.0.0","4181518","p6sz768hl6f","ono","seal","20","female","no","no","0","4","null","<div style=""font-size:60px;"">+</div>","null","","","","","","",""
"","","","","","audio-keyboard-response","385","2.0.0","4182117","p6sz768hl6f","ono","seal","20","female","no","no","0","4","null","stimuli/sounds/dog_label_A.wav","null","","","","","","",""
"","","","","","html-keyboard-response","386","2.0.0","4183119","p6sz768hl6f","ono","seal","20","female","no","no","0","4","null","","null","","","","","","",""
"","","","","","image-keyboard-response","387","2.0.0","4184647","p6sz768hl6f","ono","seal","20","female","no","no","0","4","1526","stimuli/pictures/drop_multi_2.jpg","0","0","","true","no","sound","stimuli/sounds/dog_label_A.wav",""
"","","","","","audio-keyboard-response","388","2.0.0","4185650","p6sz768hl6f","ono","seal","20","female","no","no","0","4","null","stimuli/sounds/bleep.wav","null","","","","","","",""
"","","","","","html-keyboard-response","389","2.0.0","4188733","p6sz768hl6f","ono","seal","20","female","no","no","0","4","2981","<p>You have completed a block. Press R when you are ready to continue</p>","r","","","","","","",""
"","","","","","html-keyboard-response","390","2.0.0","4189835","p6sz768hl6f","ono","seal","20","female","no","no","0","4","1102","<div style=""font-size:30px;"">Press space to start the trial</div>"," ","","","","","","",""
"","","","","","html-keyboard-response","391","2.0.0","4190088","p6sz768hl6f","ono","seal","20","female","no","no","0","4","null","<div style=""font-size:60px;"">+</div>","null","","","","","","",""
"","","","","","audio-keyboard-response","392","2.0.0","4190634","p6sz768hl6f","ono","seal","20","female","no","no","0","4","null","stimuli/sounds/drop_label_A.wav","null","","","","","","",""
"","","","","","html-keyboard-response","393","2.0.0","4191637","p6sz768hl6f","ono","seal","20","female","no","no","0","4","null","","null","","","","","","",""
"","","","","","image-keyboard-response","394","2.0.0","4192460","p6sz768hl6f","ono","seal","20","female","no","no","0","4","822","stimuli/pictures/drop_single_2.jpg","1","1","","true","yes","sound","stimuli/sounds/drop_label_A.wav",""
"","","","","","audio-keyboard-response","395","2.0.0","4193463","p6sz768hl6f","ono","seal","20","female","no","no","0","4","null","stimuli/sounds/bleep.wav","null","","","","","","",""
"","","","","","html-keyboard-response","396","2.0.0","4195136","p6sz768hl6f","ono","seal","20","female","no","no","0","4","1571","<div style=""font-size:30px;"">Press space to start the trial</div>"," ","","","","","","",""
"","","","","","html-keyboard-response","397","2.0.0","4195388","p6sz768hl6f","ono","seal","20","female","no","no","0","4","null","<div style=""font-size:60px;"">+</div>","null","","","","","","",""
"","","","","","audio-keyboard-response","398","2.0.0","4195973","p6sz768hl6f","ono","seal","20","female","no","no","0","4","null","stimuli/sounds/drop_sound_A.wav","null","","","","","","",""
"","","","","","html-keyboard-response","399","2.0.0","4196975","p6sz768hl6f","ono","seal","20","female","no","no","0","4","null","","null","","","","","","",""
"","","","","","image-keyboard-response","400","2.0.0","4198308","p6sz768hl6f","ono","seal","20","female","no","no","0","4","1331","stimuli/pictures/cough_wom_1.jpg","1","0","","false","no","sound","stimuli/sounds/drop_sound_A.wav",""
"","","","","","audio-keyboard-response","401","2.0.0","4199310","p6sz768hl6f","ono","seal","20","female","no","no","0","4","null","stimuli/sounds/buzz.wav","null","","","","","","",""
"","","","","","html-keyboard-response","402","2.0.0","4200007","p6sz768hl6f","ono","seal","20","female","no","no","0","4","594","<div style=""font-size:30px;"">Press space to start the trial</div>"," ","","","","","","",""
"","","","","","html-keyboard-response","403","2.0.0","4200260","p6sz768hl6f","ono","seal","20","female","no","no","0","4","null","<div style=""font-size:60px;"">+</div>","null","","","","","","",""
"","","","","","audio-keyboard-response","404","2.0.0","4200863","p6sz768hl6f","ono","seal","20","female","no","no","0","4","null","stimuli/sounds/motor_label_A.wav","null","","","","","","",""
"","","","","","html-keyboard-response","405","2.0.0","4201865","p6sz768hl6f","ono","seal","20","female","no","no","0","4","null","","null","","","","","","",""
"","","","","","image-keyboard-response","406","2.0.0","4203131","p6sz768hl6f","ono","seal","20","female","no","no","0","4","1265","stimuli/pictures/motor_harley_2.jpg","1","1","","true","yes","sound","stimuli/sounds/motor_label_A.wav",""
"","","","","","audio-keyboard-response","407","2.0.0","4204134","p6sz768hl6f","ono","seal","20","female","no","no","0","4","null","stimuli/sounds/bleep.wav","null","","","","","","",""
"","","","","","html-keyboard-response","408","2.0.0","4204826","p6sz768hl6f","ono","seal","20","female","no","no","0","4","590","<div style=""font-size:30px;"">Press space to start the trial</div>"," ","","","","","","",""
"","","","","","html-keyboard-response","409","2.0.0","4205078","p6sz768hl6f","ono","seal","20","female","no","no","0","4","null","<div style=""font-size:60px;"">+</div>","null","","","","","","",""
"","","","","","audio-keyboard-response","410","2.0.0","4205663","p6sz768hl6f","ono","seal","20","female","no","no","0","4","null","stimuli/sounds/drop_sound_A.wav","null","","","","","","",""
"","","","","","html-keyboard-response","411","2.0.0","4206666","p6sz768hl6f","ono","seal","20","female","no","no","0","4","null","","null","","","","","","",""
"","","","","","image-keyboard-response","412","2.0.0","4207663","p6sz768hl6f","ono","seal","20","female","no","no","0","4","996","stimuli/pictures/drop_multi_1.jpg","1","1","","true","no","sound","stimuli/sounds/drop_sound_A.wav",""
"","","","","","audio-keyboard-response","413","2.0.0","4208666","p6sz768hl6f","ono","seal","20","female","no","no","0","4","null","stimuli/sounds/bleep.wav","null","","","","","","",""
"","","","","","html-keyboard-response","414","2.0.0","4209197","p6sz768hl6f","ono","seal","20","female","no","no","0","4","429","<div style=""font-size:30px;"">Press space to start the trial</div>"," ","","","","","","",""
"","","","","","html-keyboard-response","415","2.0.0","4209450","p6sz768hl6f","ono","seal","20","female","no","no","0","4","null","<div style=""font-size:60px;"">+</div>","null","","","","","","",""
"","","","","","audio-keyboard-response","416","2.0.0","4209989","p6sz768hl6f","ono","seal","20","female","no","no","0","4","null","stimuli/sounds/hiccup_label_A.wav","null","","","","","","",""
"","","","","","html-keyboard-response","417","2.0.0","4210991","p6sz768hl6f","ono","seal","20","female","no","no","0","4","null","","null","","","","","","",""
"","","","","","image-keyboard-response","418","2.0.0","4212749","p6sz768hl6f","ono","seal","20","female","no","no","0","4","1757","stimuli/pictures/hiccup_wom_2.jpg","1","1","","true","yes","sound","stimuli/sounds/hiccup_label_A.wav",""
"","","","","","audio-keyboard-response","419","2.0.0","4213752","p6sz768hl6f","ono","seal","20","female","no","no","0","4","null","stimuli/sounds/bleep.wav","null","","","","","","",""
"","","","","","html-keyboard-response","420","2.0.0","4214449","p6sz768hl6f","ono","seal","20","female","no","no","0","4","594","<div style=""font-size:30px;"">Press space to start the trial</div>"," ","","","","","","",""
"","","","","","html-keyboard-response","421","2.0.0","4214701","p6sz768hl6f","ono","seal","20","female","no","no","0","4","null","<div style=""font-size:60px;"">+</div>","null","","","","","","",""
"","","","","","audio-keyboard-response","422","2.0.0","4215301","p6sz768hl6f","ono","seal","20","female","no","no","0","4","null","stimuli/sounds/dog_label_A.wav","null","","","","","","",""
"","","","","","html-keyboard-response","423","2.0.0","4216303","p6sz768hl6f","ono","seal","20","female","no","no","0","4","null","","null","","","","","","",""
"","","","","","image-keyboard-response","424","2.0.0","4216759","p6sz768hl6f","ono","seal","20","female","no","no","0","4","454","stimuli/pictures/dog_rott_1.jpg","1","1","","true","yes","sound","stimuli/sounds/dog_label_A.wav",""
"","","","","","audio-keyboard-response","425","2.0.0","4217762","p6sz768hl6f","ono","seal","20","female","no","no","0","4","null","stimuli/sounds/bleep.wav","null","","","","","","",""
"","","","","","html-keyboard-response","426","2.0.0","4218493","p6sz768hl6f","ono","seal","20","female","no","no","0","4","628","<div style=""font-size:30px;"">Press space to start the trial</div>"," ","","","","","","",""
"","","","","","html-keyboard-response","427","2.0.0","4218746","p6sz768hl6f","ono","seal","20","female","no","no","0","4","null","<div style=""font-size:60px;"">+</div>","null","","","","","","",""
"","","","","","audio-keyboard-response","428","2.0.0","4219349","p6sz768hl6f","ono","seal","20","female","no","no","0","4","null","stimuli/sounds/dog_sound_A.wav","null","","","","","","",""
"","","","","","html-keyboard-response","429","2.0.0","4220351","p6sz768hl6f","ono","seal","20","female","no","no","0","4","null","","null","","","","","","",""
"","","","","","image-keyboard-response","430","2.0.0","4220912","p6sz768hl6f","ono","seal","20","female","no","no","0","4","559","stimuli/pictures/dog_rott_2.jpg","1","1","","true","yes","sound","stimuli/sounds/dog_sound_A.wav",""
"","","","","","audio-keyboard-response","431","2.0.0","4221915","p6sz768hl6f","ono","seal","20","female","no","no","0","4","null","stimuli/sounds/bleep.wav","null","","","","","","",""
"","","","","","html-keyboard-response","432","2.0.0","4222718","p6sz768hl6f","ono","seal","20","female","no","no","0","4","701","<div style=""font-size:30px;"">Press space to start the trial</div>"," ","","","","","","",""
"","","","","","html-keyboard-response","433","2.0.0","4222970","p6sz768hl6f","ono","seal","20","female","no","no","0","4","null","<div style=""font-size:60px;"">+</div>","null","","","","","","",""
"","","","","","audio-keyboard-response","434","2.0.0","4223578","p6sz768hl6f","ono","seal","20","female","no","no","0","4","null","stimuli/sounds/cough_label_B.wav","null","","","","","","",""
"","","","","","html-keyboard-response","435","2.0.0","4224579","p6sz768hl6f","ono","seal","20","female","no","no","0","4","null","","null","","","","","","",""
"","","","","","image-keyboard-response","436","2.0.0","4225079","p6sz768hl6f","ono","seal","20","female","no","no","0","4","498","stimuli/pictures/cough_man_2.jpg","1","1","","true","yes","sound","stimuli/sounds/cough_label_B.wav",""
"","","","","","audio-keyboard-response","437","2.0.0","4226082","p6sz768hl6f","ono","seal","20","female","no","no","0","4","null","stimuli/sounds/bleep.wav","null","","","","","","",""
"","","","","","html-keyboard-response","438","2.0.0","4226662","p6sz768hl6f","ono","seal","20","female","no","no","0","4","478","<div style=""font-size:30px;"">Press space to start the trial</div>"," ","","","","","","",""
"","","","","","html-keyboard-response","439","2.0.0","4226915","p6sz768hl6f","ono","seal","20","female","no","no","0","4","null","<div style=""font-size:60px;"">+</div>","null","","","","","","",""
"","","","","","audio-keyboard-response","440","2.0.0","4227514","p6sz768hl6f","ono","seal","20","female","no","no","0","4","null","stimuli/sounds/dog_label_B.wav","null","","","","","","",""
"","","","","","html-keyboard-response","441","2.0.0","4228516","p6sz768hl6f","ono","seal","20","female","no","no","0","4","null","","null","","","","","","",""
"","","","","","image-keyboard-response","442","2.0.0","4229101","p6sz768hl6f","ono","seal","20","female","no","no","0","4","584","stimuli/pictures/dog_york_2.jpg","1","1","","true","yes","sound","stimuli/sounds/dog_label_B.wav",""
"","","","","","audio-keyboard-response","443","2.0.0","4230104","p6sz768hl6f","ono","seal","20","female","no","no","0","4","null","stimuli/sounds/bleep.wav","null","","","","","","",""
"","","","","","html-keyboard-response","444","2.0.0","4230571","p6sz768hl6f","ono","seal","20","female","no","no","0","4","365","<div style=""font-size:30px;"">Press space to start the trial</div>"," ","","","","","","",""
"","","","","","html-keyboard-response","445","2.0.0","4230822","p6sz768hl6f","ono","seal","20","female","no","no","0","4","null","<div style=""font-size:60px;"">+</div>","null","","","","","","",""
"","","","","","audio-keyboard-response","446","2.0.0","4231423","p6sz768hl6f","ono","seal","20","female","no","no","0","4","null","stimuli/sounds/motor_sound_B.wav","null","","","","","","",""
"","","","","","html-keyboard-response","447","2.0.0","4232426","p6sz768hl6f","ono","seal","20","female","no","no","0","4","null","","null","","","","","","",""
"","","","","","image-keyboard-response","448","2.0.0","4232856","p6sz768hl6f","ono","seal","20","female","no","no","0","4","430","stimuli/pictures/motor_harley_1.jpg","1","1","","true","yes","sound","stimuli/sounds/motor_sound_B.wav",""
"","","","","","audio-keyboard-response","449","2.0.0","4233859","p6sz768hl6f","ono","seal","20","female","no","no","0","4","null","stimuli/sounds/bleep.wav","null","","","","","","",""
"","","","","","html-keyboard-response","450","2.0.0","4234409","p6sz768hl6f","ono","seal","20","female","no","no","0","4","448","<div style=""font-size:30px;"">Press space to start the trial</div>"," ","","","","","","",""
"","","","","","html-keyboard-response","451","2.0.0","4234661","p6sz768hl6f","ono","seal","20","female","no","no","0","4","null","<div style=""font-size:60px;"">+</div>","null","","","","","","",""
"","","","","","audio-keyboard-response","452","2.0.0","4235295","p6sz768hl6f","ono","seal","20","female","no","no","0","4","null","stimuli/sounds/cough_label_A.wav","null","","","","","","",""
"","","","","","html-keyboard-response","453","2.0.0","4236297","p6sz768hl6f","ono","seal","20","female","no","no","0","4","null","","null","","","","","","",""
"","","","","","image-keyboard-response","454","2.0.0","4236919","p6sz768hl6f","ono","seal","20","female","no","no","0","4","621","stimuli/pictures/cough_wom_2.jpg","1","1","","true","yes","sound","stimuli/sounds/cough_label_A.wav",""
"","","","","","audio-keyboard-response","455","2.0.0","4237922","p6sz768hl6f","ono","seal","20","female","no","no","0","4","null","stimuli/sounds/bleep.wav","null","","","","","","",""
"","","","","","html-keyboard-response","456","2.0.0","4239391","p6sz768hl6f","ono","seal","20","female","no","no","0","4","1366","<div style=""font-size:30px;"">Press space to start the trial</div>"," ","","","","","","",""
"","","","","","html-keyboard-response","457","2.0.0","4239644","p6sz768hl6f","ono","seal","20","female","no","no","0","4","null","<div style=""font-size:60px;"">+</div>","null","","","","","","",""
"","","","","","audio-keyboard-response","458","2.0.0","4240245","p6sz768hl6f","ono","seal","20","female","no","no","0","4","null","stimuli/sounds/hiccup_sound_B.wav","null","","","","","","",""
"","","","","","html-keyboard-response","459","2.0.0","4241247","p6sz768hl6f","ono","seal","20","female","no","no","0","4","null","","null","","","","","","",""
"","","","","","image-keyboard-response","460","2.0.0","4242415","p6sz768hl6f","ono","seal","20","female","no","no","0","4","1168","stimuli/pictures/hiccup_man_1.jpg","1","1","","true","yes","sound","stimuli/sounds/hiccup_sound_B.wav",""
"","","","","","audio-keyboard-response","461","2.0.0","4243418","p6sz768hl6f","ono","seal","20","female","no","no","0","4","null","stimuli/sounds/bleep.wav","null","","","","","","",""
"","","","","","html-keyboard-response","462","2.0.0","4244036","p6sz768hl6f","ono","seal","20","female","no","no","0","4","515","<div style=""font-size:30px;"">Press space to start the trial</div>"," ","","","","","","",""
"","","","","","html-keyboard-response","463","2.0.0","4244288","p6sz768hl6f","ono","seal","20","female","no","no","0","4","null","<div style=""font-size:60px;"">+</div>","null","","","","","","",""
"","","","","","audio-keyboard-response","464","2.0.0","4244837","p6sz768hl6f","ono","seal","20","female","no","no","0","4","null","stimuli/sounds/drop_label_A.wav","null","","","","","","",""
"","","","","","html-keyboard-response","465","2.0.0","4245839","p6sz768hl6f","ono","seal","20","female","no","no","0","4","null","","null","","","","","","",""
"","","","","","image-keyboard-response","466","2.0.0","4247199","p6sz768hl6f","ono","seal","20","female","no","no","0","4","1358","stimuli/pictures/drop_multi_1.jpg","1","1","","true","yes","sound","stimuli/sounds/drop_label_A.wav",""
"","","","","","audio-keyboard-response","467","2.0.0","4248202","p6sz768hl6f","ono","seal","20","female","no","no","0","4","null","stimuli/sounds/bleep.wav","null","","","","","","",""
"","","","","","html-keyboard-response","468","2.0.0","4248871","p6sz768hl6f","ono","seal","20","female","no","no","0","4","566","<div style=""font-size:30px;"">Press space to start the trial</div>"," ","","","","","","",""
"","","","","","html-keyboard-response","469","2.0.0","4249124","p6sz768hl6f","ono","seal","20","female","no","no","0","4","null","<div style=""font-size:60px;"">+</div>","null","","","","","","",""
"","","","","","audio-keyboard-response","470","2.0.0","4249733","p6sz768hl6f","ono","seal","20","female","no","no","0","4","null","stimuli/sounds/drop_label_B.wav","null","","","","","","",""
"","","","","","html-keyboard-response","471","2.0.0","4250735","p6sz768hl6f","ono","seal","20","female","no","no","0","4","null","","null","","","","","","",""
"","","","","","image-keyboard-response","472","2.0.0","4251151","p6sz768hl6f","ono","seal","20","female","no","no","0","4","415","stimuli/pictures/drop_single_1.jpg","1","1","","true","yes","sound","stimuli/sounds/drop_label_B.wav",""
"","","","","","audio-keyboard-response","473","2.0.0","4252154","p6sz768hl6f","ono","seal","20","female","no","no","0","4","null","stimuli/sounds/bleep.wav","null","","","","","","",""
"","","","","","html-keyboard-response","474","2.0.0","4252725","p6sz768hl6f","ono","seal","20","female","no","no","0","4","469","<div style=""font-size:30px;"">Press space to start the trial</div>"," ","","","","","","",""
"","","","","","html-keyboard-response","475","2.0.0","4252978","p6sz768hl6f","ono","seal","20","female","no","no","0","4","null","<div style=""font-size:60px;"">+</div>","null","","","","","","",""
"","","","","","audio-keyboard-response","476","2.0.0","4253578","p6sz768hl6f","ono","seal","20","female","no","no","0","4","null","stimuli/sounds/motor_sound_A.wav","null","","","","","","",""
"","","","","","html-keyboard-response","477","2.0.0","4254580","p6sz768hl6f","ono","seal","20","female","no","no","0","4","null","","null","","","","","","",""
"","","","","","image-keyboard-response","478","2.0.0","4255803","p6sz768hl6f","ono","seal","20","female","no","no","0","4","1222","stimuli/pictures/drop_multi_1.jpg","0","0","","true","no","sound","stimuli/sounds/motor_sound_A.wav",""
"","","","","","audio-keyboard-response","479","2.0.0","4256806","p6sz768hl6f","ono","seal","20","female","no","no","0","4","null","stimuli/sounds/bleep.wav","null","","","","","","",""
"","","","","","html-keyboard-response","480","2.0.0","4257311","p6sz768hl6f","ono","seal","20","female","no","no","0","4","403","<div style=""font-size:30px;"">Press space to start the trial</div>"," ","","","","","","",""
"","","","","","html-keyboard-response","481","2.0.0","4257563","p6sz768hl6f","ono","seal","20","female","no","no","0","4","null","<div style=""font-size:60px;"">+</div>","null","","","","","","",""
"","","","","","audio-keyboard-response","482","2.0.0","4258170","p6sz768hl6f","ono","seal","20","female","no","no","0","4","null","stimuli/sounds/cough_label_B.wav","null","","","","","","",""
"","","","","","html-keyboard-response","483","2.0.0","4259172","p6sz768hl6f","ono","seal","20","female","no","no","0","4","null","","null","","","","","","",""
"","","","","","image-keyboard-response","484","2.0.0","4259915","p6sz768hl6f","ono","seal","20","female","no","no","0","4","741","stimuli/pictures/drop_multi_1.jpg","0","0","","true","no","sound","stimuli/sounds/cough_label_B.wav",""
"","","","","","audio-keyboard-response","485","2.0.0","4260918","p6sz768hl6f","ono","seal","20","female","no","no","0","4","null","stimuli/sounds/bleep.wav","null","","","","","","",""
"","","","","","html-keyboard-response","486","2.0.0","4261687","p6sz768hl6f","ono","seal","20","female","no","no","0","4","667","<div style=""font-size:30px;"">Press space to start the trial</div>"," ","","","","","","",""
"","","","","","html-keyboard-response","487","2.0.0","4261940","p6sz768hl6f","ono","seal","20","female","no","no","0","4","null","<div style=""font-size:60px;"">+</div>","null","","","","","","",""
"","","","","","audio-keyboard-response","488","2.0.0","4262543","p6sz768hl6f","ono","seal","20","female","no","no","0","4","null","stimuli/sounds/motor_sound_A.wav","null","","","","","","",""
"","","","","","html-keyboard-response","489","2.0.0","4263546","p6sz768hl6f","ono","seal","20","female","no","no","0","4","null","","null","","","","","","",""
"","","","","","image-keyboard-response","490","2.0.0","4265387","p6sz768hl6f","ono","seal","20","female","no","no","0","4","1840","stimuli/pictures/drop_single_1.jpg","0","0","","true","no","sound","stimuli/sounds/motor_sound_A.wav",""
"","","","","","audio-keyboard-response","491","2.0.0","4266390","p6sz768hl6f","ono","seal","20","female","no","no","0","4","null","stimuli/sounds/bleep.wav","null","","","","","","",""
"","","","","","html-keyboard-response","492","2.0.0","4267312","p6sz768hl6f","ono","seal","20","female","no","no","0","4","820","<div style=""font-size:30px;"">Press space to start the trial</div>"," ","","","","","","",""
