"success","timeout","failed_images","failed_audio","failed_video","trial_type","trial_index","plugin_version","time_elapsed","random_id","condition","participant","age","gender_id","mus_exp","inst_exp","years_exp","mus_listening","rt","stimulus","response","correct_response","practice","correct","congruent","sound_type","audio","question_order"
"true","false","[]","[]","[]","preload","0","2.0.0","420","p6v1dtywj48","mus","cub","22","male","yes","yes","5","2","","","","","","","","","",""
"","","","","","html-keyboard-response","1","2.0.0","2055","p6v1dtywj48","mus","cub","22","male","yes","yes","5","2","1634","Welcome to the experiment! Press any key to begin."," ","","","","","","",""
"true","","","","","fullscreen","2","null","5663","p6v1dtywj48","mus","cub","22","male","yes","yes","5","2","2605","","","","","","","","",""
"","","","","","survey-text","3","2.0.0","12049","p6v1dtywj48","mus","cub","22","male","yes","yes","5","2","6383","","{""participant_id"":""cub""}","","","","","","",""
"","","","","","html-keyboard-response","4","2.0.0","72761","p6v1dtywj48","mus","cub","22","male","yes","yes","5","2","60710","
    <p> Please use headphones for the duration of the study.</p>
    <p> Within each trial, you will hear a sound and then be presented with an image in the center of your screen.</p>
    <p>Press the <b>'1'</b> key if what you hear <u>matches</u> what you see.</p>
    <p>Press the <b>'0'</b> key if what you hear <u>does not match</u> what you see.</p>
    <p>Try to respond as quickly and accurately as you can.</p>
    <p> Press any key to begin.</p>
    "," ","","","","","","",""
"","","","","","html-keyboard-response","5","2.0.0","80996","p6v1dtywj48","mus","cub","22","male","yes","yes","5","2","8234","
    <div style=""font-size:28px;"">
      <p>You will now complete 4 short practice trials.</p>
      <p>This is just to help you get familiar with the task.</p>
      <p>Press any key to begin.</p>
    </div>
  "," ","","","","","","",""
"","","","","","html-keyboard-response","6","2.0.0","81499","p6v1dtywj48","mus","cub","22","male","yes","yes","5","2","null","<div style=""font-size:60px;"">+</div>","null","","","","","","",""
"","","","","","audio-keyboard-response","7","2.0.0","82943","p6v1dtywj48","mus","cub","22","male","yes","yes","5","2","null","stimuli/sounds/guitar_label_A.wav","null","","","","","","",""
"","","","","","image-keyboard-response","8","2.0.0","85911","p6v1dtywj48","mus","cub","22","male","yes","yes","5","2","2964","stimuli/pictures/guitar_acoustic_1.jpg","1","1","true","true","","","",""
"","","","","","audio-keyboard-response","9","2.0.0","86714","p6v1dtywj48","mus","cub","22","male","yes","yes","5","2","null","stimuli/sounds/bleep.wav","null","","","","","","",""
"","","","","","html-keyboard-response","10","2.0.0","87418","p6v1dtywj48","mus","cub","22","male","yes","yes","5","2","null","<p style='color:green; font-size:30px;'>Correct!</p>","null","","","","","","",""
"","","","","","html-keyboard-response","11","2.0.0","87921","p6v1dtywj48","mus","cub","22","male","yes","yes","5","2","null","<div style=""font-size:60px;"">+</div>","null","","","","","","",""
"","","","","","audio-keyboard-response","12","2.0.0","88526","p6v1dtywj48","mus","cub","22","male","yes","yes","5","2","null","stimuli/sounds/guitar_sound_B.wav","null","","","","","","",""
"","","","","","image-keyboard-response","13","2.0.0","89853","p6v1dtywj48","mus","cub","22","male","yes","yes","5","2","1325","stimuli/pictures/guitar_acoustic_2.jpg","1","1","true","true","","","",""
"","","","","","audio-keyboard-response","14","2.0.0","90656","p6v1dtywj48","mus","cub","22","male","yes","yes","5","2","null","stimuli/sounds/bleep.wav","null","","","","","","",""
"","","","","","html-keyboard-response","15","2.0.0","91359","p6v1dtywj48","mus","cub","22","male","yes","yes","5","2","null","<p style='color:green; font-size:30px;'>Correct!</p>","null","","","","","","",""
"","","","","","html-keyboard-response","16","2.0.0","91862","p6v1dtywj48","mus","cub","22","male","yes","yes","5","2","null","<div style=""font-size:60px;"">+</div>","null","","","","","","",""
"","","","","","audio-keyboard-response","17","2.0.0","92462","p6v1dtywj48","mus","cub","22","male","yes","yes","5","2","null","stimuli/sounds/flute_sound_A.wav","null","","","","","","",""
"","","","","","image-keyboard-response","18","2.0.0","95186","p6v1dtywj48","mus","cub","22","male","yes","yes","5","2","2723","stimuli/pictures/guitar_electric_1.jpg","0","0","true","true","","","",""
"","","","","","audio-keyboard-response","19","2.0.0","95990","p6v1dtywj48","mus","cub","22","male","yes","yes","5","2","null","stimuli/sounds/bleep.wav","null","","","","","","",""
"","","","","","html-keyboard-response","20","2.0.0","96692","p6v1dtywj48","mus","cub","22","male","yes","yes","5","2","null","<p style='color:green; font-size:30px;'>Correct!</p>","null","","","","","","",""
"","","","","","html-keyboard-response","21","2.0.0","97196","p6v1dtywj48","mus","cub","22","male","yes","yes","5","2","null","<div style=""font-size:60px;"">+</div>","null","","","","","","",""
"","","","","","audio-keyboard-response","22","2.0.0","97800","p6v1dtywj48","mus","cub","22","male","yes","yes","5","2","null","stimuli/sounds/guitar_sound_A.wav","null","","","","","","",""
"","","","","","image-keyboard-response","23","2.0.0","98625","p6v1dtywj48","mus","cub","22","male","yes","yes","5","2","823","stimuli/pictures/guitar_acoustic_1.jpg","0","1","true","false","","","",""
"","","","","","audio-keyboard-response","24","2.0.0","99426","p6v1dtywj48","mus","cub","22","male","yes","yes","5","2","null","stimuli/sounds/buzz.wav","null","","","","","","",""
"","","","","","html-keyboard-response","25","2.0.0","100129","p6v1dtywj48","mus","cub","22","male","yes","yes","5","2","null","<p style='color:red; font-size:30px;'>Incorrect</p>","null","","","","","","",""
"","","","","","html-keyboard-response","26","2.0.0","233876","p6v1dtywj48","mus","cub","22","male","yes","yes","5","2","133746","<p>Practice complete. Press any key to begin the real experiment.</p>"," ","","","","","","",""
"","","","","","html-keyboard-response","27","2.0.0","241097","p6v1dtywj48","mus","cub","22","male","yes","yes","5","2","7219","<div style=""font-size:30px;"">Press space to start the trial</div>"," ","","","","","","",""
"","","","","","html-keyboard-response","28","2.0.0","241349","p6v1dtywj48","mus","cub","22","male","yes","yes","5","2","null","<div style=""font-size:60px;"">+</div>","null","","","","","","",""
"","","","","","audio-keyboard-response","29","2.0.0","242547","p6v1dtywj48","mus","cub","22","male","yes","yes","5","2","null","stimuli/sounds/drum_label_B.wav","null","","","","","","",""
"","","","","","html-keyboard-response","30","2.0.0","243552","p6v1dtywj48","mus","cub","22","male","yes","yes","5","2","null","","null","","","","","","",""
"","","","","","image-keyboard-response","31","2.0.0","244477","p6v1dtywj48","mus","cub","22","male","yes","yes","5","2","924","stimuli/pictures/drum_bongo_1.jpg","1","1","","true","yes","sound","stimuli/sounds/drum_label_B.wav",""
"","","","","","audio-keyboard-response","32","2.0.0","245480","p6v1dtywj48","mus","cub","22","male","yes","yes","5","2","null","stimuli/sounds/bleep.wav","null","","","","","","",""
"","","","","","html-keyboard-response","33","2.0.0","251743","p6v1dtywj48","mus","cub","22","male","yes","yes","5","2","6159","<div style=""font-size:30px;"">Press space to start the trial</div>"," ","","","","","","",""
"","","","","","html-keyboard-response","34","2.0.0","251996","p6v1dtywj48","mus","cub","22","male","yes","yes","5","2","null","<div style=""font-size:60px;"">+</div>","null","","","","","","",""
"","","","","","audio-keyboard-response","35","2.0.0","252600","p6v1dtywj48","mus","cub","22","male","yes","yes","5","2","null","stimuli/sounds/drum_sound_B.wav","null","","","","","","",""
"","","","","","html-keyboard-response","36","2.0.0","253601","p6v1dtywj48","mus","cub","22","male","yes","yes","5","2","null","","null","","","","","","",""
"","","","","","image-keyboard-response","37","2.0.0","255084","p6v1dtywj48","mus","cub","22","male","yes","yes","5","2","1482","stimuli/pictures/drum_bongo_2.jpg","1","1","","true","yes","sound","stimuli/sounds/drum_sound_B.wav",""
"","","","","","audio-keyboard-response","38","2.0.0","256087","p6v1dtywj48","mus","cub","22","male","yes","yes","5","2","null","stimuli/sounds/bleep.wav","null","","","","","","",""
"","","","","","html-keyboard-response","39","2.0.0","257654","p6v1dtywj48","mus","cub","22","male","yes","yes","5","2","1464","<div style=""font-size:30px;"">Press space to start the trial</div>"," ","","","","","","",""
"","","","","","html-keyboard-response","40","2.0.0","257907","p6v1dtywj48","mus","cub","22","male","yes","yes","5","2","null","<div style=""font-size:60px;"">+</div>","null","","","","","","",""
"","","","","","audio-keyboard-response","41","2.0.0","258509","p6v1dtywj48","mus","cub","22","male","yes","yes","5","2","null","stimuli/sounds/phone_sound_B.wav","null","","","","","","",""
"","","","","","html-keyboard-response","42","2.0.0","259511","p6v1dtywj48","mus","cub","22","male","yes","yes","5","2","null","","null","","","","","","",""
"","","","","","image-keyboard-response","43","2.0.0","260436","p6v1dtywj48","mus","cub","22","male","yes","yes","5","2","924","stimuli/pictures/piano_electric_1.jpg","0","0","","true","no","sound","stimuli/sounds/phone_sound_B.wav",""
"","","","","","audio-keyboard-response","44","2.0.0","261439","p6v1dtywj48","mus","cub","22","male","yes","yes","5","2","null","stimuli/sounds/bleep.wav","null","","","","","","",""
"","","","","","html-keyboard-response","45","2.0.0","263205","p6v1dtywj48","mus","cub","22","male","yes","yes","5","2","1664","<div style=""font-size:30px;"">Press space to start the trial</div>"," ","","","","","","",""
"","","","","","html-keyboard-response","46","2.0.0","263458","p6v1dtywj48","mus","cub","22","male","yes","yes","5","2","null","<div style=""font-size:60px;"">+</div>","null","","","","","","",""
"","","","","","audio-keyboard-response","47","2.0.0","264065","p6v1dtywj48","mus","cub","22","male","yes","yes","5","2","null","stimuli/sounds/drum_label_A.wav","null","","","","","","",""
"","","","","","html-keyboard-response","48","2.0.0","265067","p6v1dtywj48","mus","cub","22","male","yes","yes","5","2","null","","null","","","","","","",""
"","","","","","image-keyboard-response","49","2.0.0","265735","p6v1dtywj48","mus","cub","22","male","yes","yes","5","2","667","stimuli/pictures/bird_song_2.jpg","0","0","","true","no","sound","stimuli/sounds/drum_label_A.wav",""
"","","","","","audio-keyboard-response","50","2.0.0","266739","p6v1dtywj48","mus","cub","22","male","yes","yes","5","2","null","stimuli/sounds/bleep.wav","null","","","","","","",""
"","","","","","html-keyboard-response","51","2.0.0","267665","p6v1dtywj48","mus","cub","22","male","yes","yes","5","2","821","<div style=""font-size:30px;"">Press space to start the trial</div>"," ","","","","","","",""
"","","","","","html-keyboard-response","52","2.0.0","267917","p6v1dtywj48","mus","cub","22","male","yes","yes","5","2","null","<div style=""font-size:60px;"">+</div>","null","","","","","","",""
"","","","","","audio-keyboard-response","53","2.0.0","268520","p6v1dtywj48","mus","cub","22","male","yes","yes","5","2","null","stimuli/sounds/flute_sound_A.wav","null","","","","","","",""
"","","","","","html-keyboard-response","54","2.0.0","269522","p6v1dtywj48","mus","cub","22","male","yes","yes","5","2","null","","null","","","","","","",""
"","","","","","image-keyboard-response","55","2.0.0","270231","p6v1dtywj48","mus","cub","22","male","yes","yes","5","2","706","stimuli/pictures/phone_rotary_1.jpg","0","0","","true","no","sound","stimuli/sounds/flute_sound_A.wav",""
"","","","","","audio-keyboard-response","56","2.0.0","271234","p6v1dtywj48","mus","cub","22","male","yes","yes","5","2","null","stimuli/sounds/bleep.wav","null","","","","","","",""
"","","","","","html-keyboard-response","57","2.0.0","271984","p6v1dtywj48","mus","cub","22","male","yes","yes","5","2","648","<div style=""font-size:30px;"">Press space to start the trial</div>"," ","","","","","","",""
"","","","","","html-keyboard-response","58","2.0.0","272237","p6v1dtywj48","mus","cub","22","male","yes","yes","5","2","null","<div style=""font-size:60px;"">+</div>","null","","","","","","",""
"","","","","","audio-keyboard-response","59","2.0.0","272841","p6v1dtywj48","mus","cub","22","male","yes","yes","5","2","null","stimuli/sounds/phone_sound_B.wav","null","","","","","","",""
"","","","","","html-keyboard-response","60","2.0.0","273844","p6v1dtywj48","mus","cub","22","male","yes","yes","5","2","null","","null","","","","","","",""
"","","","","","image-keyboard-response","61","2.0.0","274440","p6v1dtywj48","mus","cub","22","male","yes","yes","5","2","594","stimuli/pictures/phone_rotary_2.jpg","1","1","","true","yes","sound","stimuli/sounds/phone_sound_B.wav",""
"","","","","","audio-keyboard-response","62","2.0.0","275443","p6v1dtywj48","mus","cub","22","male","yes","yes","5","2","null","stimuli/sounds/bleep.wav","null","","","","","","",""
"","","","","","html-keyboard-response","63","2.0.0","275904","p6v1dtywj48","mus","cub","22","male","yes","yes","5","2","360","<div style=""font-size:30px;"">Press space to start the trial</div>"," ","","","","","","",""
"","","","","","html-keyboard-response","64","2.0.0","276155","p6v1dtywj48","mus","cub","22","male","yes","yes","5","2","null","<div style=""font-size:60px;"">+</div>","null","","","","","","",""
"","","","","","audio-keyboard-response","65","2.0.0","276754","p6v1dtywj48","mus","cub","22","male","yes","yes","5","2","null","stimuli/sounds/phone_sound_A.wav","null","","","","","","",""
"","","","","","html-keyboard-response","66","2.0.0","277758","p6v1dtywj48","mus","cub","22","male","yes","yes","5","2","null","","null","","","","","","",""
"","","","","","image-keyboard-response","67","2.0.0","278514","p6v1dtywj48","mus","cub","22","male","yes","yes","5","2","755","stimuli/pictures/bird_hawk_1.jpg","0","0","","true","no","sound","stimuli/sounds/phone_sound_A.wav",""
"","","","","","audio-keyboard-response","68","2.0.0","279518","p6v1dtywj48","mus","cub","22","male","yes","yes","5","2","null","stimuli/sounds/bleep.wav","null","","","","","","",""
"","","","","","html-keyboard-response","69","2.0.0","279947","p6v1dtywj48","mus","cub","22","male","yes","yes","5","2","327","<div style=""font-size:30px;"">Press space to start the trial</div>"," ","","","","","","",""
"","","","","","html-keyboard-response","70","2.0.0","280199","p6v1dtywj48","mus","cub","22","male","yes","yes","5","2","null","<div style=""font-size:60px;"">+</div>","null","","","","","","",""
"","","","","","audio-keyboard-response","71","2.0.0","280803","p6v1dtywj48","mus","cub","22","male","yes","yes","5","2","null","stimuli/sounds/bird_label_A.wav","null","","","","","","",""
"","","","","","html-keyboard-response","72","2.0.0","281804","p6v1dtywj48","mus","cub","22","male","yes","yes","5","2","null","","null","","","","","","",""
"","","","","","image-keyboard-response","73","2.0.0","282382","p6v1dtywj48","mus","cub","22","male","yes","yes","5","2","576","stimuli/pictures/flute_wooden_1.jpg","0","0","","true","no","sound","stimuli/sounds/bird_label_A.wav",""
"","","","","","audio-keyboard-response","74","2.0.0","283385","p6v1dtywj48","mus","cub","22","male","yes","yes","5","2","null","stimuli/sounds/bleep.wav","null","","","","","","",""
"","","","","","html-keyboard-response","75","2.0.0","283998","p6v1dtywj48","mus","cub","22","male","yes","yes","5","2","510","<div style=""font-size:30px;"">Press space to start the trial</div>"," ","","","","","","",""
"","","","","","html-keyboard-response","76","2.0.0","284251","p6v1dtywj48","mus","cub","22","male","yes","yes","5","2","null","<div style=""font-size:60px;"">+</div>","null","","","","","","",""
"","","","","","audio-keyboard-response","77","2.0.0","284851","p6v1dtywj48","mus","cub","22","male","yes","yes","5","2","null","stimuli/sounds/phone_label_B.wav","null","","","","","","",""
"","","","","","html-keyboard-response","78","2.0.0","285854","p6v1dtywj48","mus","cub","22","male","yes","yes","5","2","null","","null","","","","","","",""
"","","","","","image-keyboard-response","79","2.0.0","287225","p6v1dtywj48","mus","cub","22","male","yes","yes","5","2","1369","stimuli/pictures/flute_metal_1.jpg","0","0","","true","no","sound","stimuli/sounds/phone_label_B.wav",""
"","","","","","audio-keyboard-response","80","2.0.0","288226","p6v1dtywj48","mus","cub","22","male","yes","yes","5","2","null","stimuli/sounds/bleep.wav","null","","","","","","",""
"","","","","","html-keyboard-response","81","2.0.0","288727","p6v1dtywj48","mus","cub","22","male","yes","yes","5","2","398","<div style=""font-size:30px;"">Press space to start the trial</div>"," ","","","","","","",""
"","","","","","html-keyboard-response","82","2.0.0","288978","p6v1dtywj48","mus","cub","22","male","yes","yes","5","2","null","<div style=""font-size:60px;"">+</div>","null","","","","","","",""
"","","","","","audio-keyboard-response","83","2.0.0","289586","p6v1dtywj48","mus","cub","22","male","yes","yes","5","2","null","stimuli/sounds/piano_sound_A.wav","null","","","","","","",""
"","","","","","html-keyboard-response","84","2.0.0","290588","p6v1dtywj48","mus","cub","22","male","yes","yes","5","2","null","","null","","","","","","",""
"","","","","","image-keyboard-response","85","2.0.0","291406","p6v1dtywj48","mus","cub","22","male","yes","yes","5","2","817","stimuli/pictures/piano_grand_1.jpg","1","1","","true","yes","sound","stimuli/sounds/piano_sound_A.wav",""
"","","","","","audio-keyboard-response","86","2.0.0","292408","p6v1dtywj48","mus","cub","22","male","yes","yes","5","2","null","stimuli/sounds/bleep.wav","null","","","","","","",""
"","","","","","html-keyboard-response","87","2.0.0","292823","p6v1dtywj48","mus","cub","22","male","yes","yes","5","2","311","<div style=""font-size:30px;"">Press space to start the trial</div>"," ","","","","","","",""
"","","","","","html-keyboard-response","88","2.0.0","293076","p6v1dtywj48","mus","cub","22","male","yes","yes","5","2","null","<div style=""font-size:60px;"">+</div>","null","","","","","","",""
"","","","","","audio-keyboard-response","89","2.0.0","293677","p6v1dtywj48","mus","cub","22","male","yes","yes","5","2","null","stimuli/sounds/flute_label_A.wav","null","","","","","","",""
"","","","","","html-keyboard-response","90","2.0.0","294679","p6v1dtywj48","mus","cub","22","male","yes","yes","5","2","null","","null","","","","","","",""
"","","","","","image-keyboard-response","91","2.0.0","295452","p6v1dtywj48","mus","cub","22","male","yes","yes","5","2","772","stimuli/pictures/flute_wooden_1.jpg","1","1","","true","yes","sound","stimuli/sounds/flute_label_A.wav",""
"","","","","","audio-keyboard-response","92","2.0.0","296297","p6v1dtywj48","mus","cub","22","male","yes","yes","5","2","843","stimuli/sounds/bleep.wav"," ","","","","","","",""
"","","","","","html-keyboard-response","93","2.0.0","297197","p6v1dtywj48","mus","cub","22","male","yes","yes","5","2","799","<div style=""font-size:30px;"">Press space to start the trial</div>"," ","","","","","","",""
"","","","","","html-keyboard-response","94","2.0.0","297450","p6v1dtywj48","mus","cub","22","male","yes","yes","5","2","null","<div style=""font-size:60px;"">+</div>","null","","","","","","",""
"","","","","","audio-keyboard-response","95","2.0.0","298050","p6v1dtywj48","mus","cub","22","male","yes","yes","5","2","null","stimuli/sounds/bird_label_B.wav","null","","","","","","",""
"","","","","","html-keyboard-response","96","2.0.0","299053","p6v1dtywj48","mus","cub","22","male","yes","yes","5","2","null","","null","","","","","","",""
"","","","","","image-keyboard-response","97","2.0.0","299757","p6v1dtywj48","mus","cub","22","male","yes","yes","5","2","702","stimuli/pictures/bird_song_1.jpg","1","1","","true","yes","sound","stimuli/sounds/bird_label_B.wav",""
"","","","","","audio-keyboard-response","98","2.0.0","300760","p6v1dtywj48","mus","cub","22","male","yes","yes","5","2","null","stimuli/sounds/bleep.wav","null","","","","","","",""
"","","","","","html-keyboard-response","99","2.0.0","301268","p6v1dtywj48","mus","cub","22","male","yes","yes","5","2","405","<div style=""font-size:30px;"">Press space to start the trial</div>"," ","","","","","","",""
"","","","","","html-keyboard-response","100","2.0.0","301521","p6v1dtywj48","mus","cub","22","male","yes","yes","5","2","null","<div style=""font-size:60px;"">+</div>","null","","","","","","",""
"","","","","","audio-keyboard-response","101","2.0.0","302130","p6v1dtywj48","mus","cub","22","male","yes","yes","5","2","null","stimuli/sounds/piano_sound_B.wav","null","","","","","","",""
"","","","","","html-keyboard-response","102","2.0.0","303133","p6v1dtywj48","mus","cub","22","male","yes","yes","5","2","null","","null","","","","","","",""
"","","","","","image-keyboard-response","103","2.0.0","304028","p6v1dtywj48","mus","cub","22","male","yes","yes","5","2","894","stimuli/pictures/piano_electric_1.jpg","1","1","","true","yes","sound","stimuli/sounds/piano_sound_B.wav",""
"","","","","","audio-keyboard-response","104","2.0.0","304709","p6v1dtywj48","mus","cub","22","male","yes","yes","5","2","677","stimuli/sounds/bleep.wav"," ","","","","","","",""
"","","","","","html-keyboard-response","105","2.0.0","305346","p6v1dtywj48","mus","cub","22","male","yes","yes","5","2","533","<div style=""font-size:30px;"">Press space to start the trial</div>"," ","","","","","","",""
"","","","","","html-keyboard-response","106","2.0.0","305597","p6v1dtywj48","mus","cub","22","male","yes","yes","5","2","null","<div style=""font-size:60px;"">+</div>","null","","","","","","",""
"","","","","","audio-keyboard-response","107","2.0.0","306199","p6v1dtywj48","mus","cub","22","male","yes","yes","5","2","null","stimuli/sounds/drum_sound_A.wav","null","","","","","","",""
"","","","","","html-keyboard-response","108","2.0.0","307200","p6v1dtywj48","mus","cub","22","male","yes","yes","5","2","null","","null","","","","","","",""
"","","","","","image-keyboard-response","109","2.0.0","308011","p6v1dtywj48","mus","cub","22","male","yes","yes","5","2","810","stimuli/pictures/drum_kit_2.jpg","1","1","","true","yes","sound","stimuli/sounds/drum_sound_A.wav",""
"","","","","","audio-keyboard-response","110","2.0.0","308464","p6v1dtywj48","mus","cub","22","male","yes","yes","5","2","453","stimuli/sounds/bleep.wav"," ","","","","","","",""
"","","","","","html-keyboard-response","111","2.0.0","309454","p6v1dtywj48","mus","cub","22","male","yes","yes","5","2","888","<div style=""font-size:30px;"">Press space to start the trial</div>"," ","","","","","","",""
"","","","","","html-keyboard-response","112","2.0.0","309707","p6v1dtywj48","mus","cub","22","male","yes","yes","5","2","null","<div style=""font-size:60px;"">+</div>","null","","","","","","",""
"","","","","","audio-keyboard-response","113","2.0.0","310311","p6v1dtywj48","mus","cub","22","male","yes","yes","5","2","null","stimuli/sounds/piano_sound_A.wav","null","","","","","","",""
"","","","","","html-keyboard-response","114","2.0.0","311314","p6v1dtywj48","mus","cub","22","male","yes","yes","5","2","null","","null","","","","","","",""
"","","","","","image-keyboard-response","115","2.0.0","311957","p6v1dtywj48","mus","cub","22","male","yes","yes","5","2","641","stimuli/pictures/drum_bongo_1.jpg","0","0","","true","no","sound","stimuli/sounds/piano_sound_A.wav",""
"","","","","","audio-keyboard-response","116","2.0.0","312960","p6v1dtywj48","mus","cub","22","male","yes","yes","5","2","null","stimuli/sounds/bleep.wav","null","","","","","","",""
"","","","","","html-keyboard-response","117","2.0.0","314473","p6v1dtywj48","mus","cub","22","male","yes","yes","5","2","1411","<div style=""font-size:30px;"">Press space to start the trial</div>"," ","","","","","","",""
"","","","","","html-keyboard-response","118","2.0.0","314727","p6v1dtywj48","mus","cub","22","male","yes","yes","5","2","null","<div style=""font-size:60px;"">+</div>","null","","","","","","",""
"","","","","","audio-keyboard-response","119","2.0.0","315330","p6v1dtywj48","mus","cub","22","male","yes","yes","5","2","null","stimuli/sounds/phone_sound_B.wav","null","","","","","","",""
"","","","","","html-keyboard-response","120","2.0.0","316333","p6v1dtywj48","mus","cub","22","male","yes","yes","5","2","null","","null","","","","","","",""
"","","","","","image-keyboard-response","121","2.0.0","317131","p6v1dtywj48","mus","cub","22","male","yes","yes","5","2","797","stimuli/pictures/phone_rotary_1.jpg","1","1","","true","yes","sound","stimuli/sounds/phone_sound_B.wav",""
"","","","","","audio-keyboard-response","122","2.0.0","318134","p6v1dtywj48","mus","cub","22","male","yes","yes","5","2","null","stimuli/sounds/bleep.wav","null","","","","","","",""
"","","","","","html-keyboard-response","123","2.0.0","318713","p6v1dtywj48","mus","cub","22","male","yes","yes","5","2","475","<div style=""font-size:30px;"">Press space to start the trial</div>"," ","","","","","","",""
"","","","","","html-keyboard-response","124","2.0.0","318966","p6v1dtywj48","mus","cub","22","male","yes","yes","5","2","null","<div style=""font-size:60px;"">+</div>","null","","","","","","",""
"","","","","","audio-keyboard-response","125","2.0.0","319575","p6v1dtywj48","mus","cub","22","male","yes","yes","5","2","null","stimuli/sounds/piano_sound_B.wav","null","","","","","","",""
"","","","","","html-keyboard-response","126","2.0.0","320576","p6v1dtywj48","mus","cub","22","male","yes","yes","5","2","null","","null","","","","","","",""
"","","","","","image-keyboard-response","127","2.0.0","321143","p6v1dtywj48","mus","cub","22","male","yes","yes","5","2","566","stimuli/pictures/piano_grand_1.jpg","0","1","","false","no","sound","stimuli/sounds/piano_sound_B.wav",""
"","","","","","audio-keyboard-response","128","2.0.0","322146","p6v1dtywj48","mus","cub","22","male","yes","yes","5","2","null","stimuli/sounds/buzz.wav","null","","","","","","",""
"","","","","","html-keyboard-response","129","2.0.0","323505","p6v1dtywj48","mus","cub","22","male","yes","yes","5","2","1258","<div style=""font-size:30px;"">Press space to start the trial</div>"," ","","","","","","",""
"","","","","","html-keyboard-response","130","2.0.0","323758","p6v1dtywj48","mus","cub","22","male","yes","yes","5","2","null","<div style=""font-size:60px;"">+</div>","null","","","","","","",""
"","","","","","audio-keyboard-response","131","2.0.0","324359","p6v1dtywj48","mus","cub","22","male","yes","yes","5","2","null","stimuli/sounds/flute_label_A.wav","null","","","","","","",""
"","","","","","html-keyboard-response","132","2.0.0","325362","p6v1dtywj48","mus","cub","22","male","yes","yes","5","2","null","","null","","","","","","",""
"","","","","","image-keyboard-response","133","2.0.0","326342","p6v1dtywj48","mus","cub","22","male","yes","yes","5","2","978","stimuli/pictures/piano_electric_1.jpg","0","0","","true","no","sound","stimuli/sounds/flute_label_A.wav",""
"","","","","","audio-keyboard-response","134","2.0.0","327345","p6v1dtywj48","mus","cub","22","male","yes","yes","5","2","null","stimuli/sounds/bleep.wav","null","","","","","","",""
"","","","","","html-keyboard-response","135","2.0.0","328605","p6v1dtywj48","mus","cub","22","male","yes","yes","5","2","1157","<div style=""font-size:30px;"">Press space to start the trial</div>"," ","","","","","","",""
"","","","","","html-keyboard-response","136","2.0.0","328857","p6v1dtywj48","mus","cub","22","male","yes","yes","5","2","null","<div style=""font-size:60px;"">+</div>","null","","","","","","",""
"","","","","","audio-keyboard-response","137","2.0.0","329458","p6v1dtywj48","mus","cub","22","male","yes","yes","5","2","null","stimuli/sounds/bird_sound_B.wav","null","","","","","","",""
"","","","","","html-keyboard-response","138","2.0.0","330460","p6v1dtywj48","mus","cub","22","male","yes","yes","5","2","null","","null","","","","","","",""
"","","","","","image-keyboard-response","139","2.0.0","331607","p6v1dtywj48","mus","cub","22","male","yes","yes","5","2","1146","stimuli/pictures/bird_song_2.jpg","1","1","","true","yes","sound","stimuli/sounds/bird_sound_B.wav",""
"","","","","","audio-keyboard-response","140","2.0.0","332610","p6v1dtywj48","mus","cub","22","male","yes","yes","5","2","null","stimuli/sounds/bleep.wav","null","","","","","","",""
"","","","","","html-keyboard-response","141","2.0.0","333626","p6v1dtywj48","mus","cub","22","male","yes","yes","5","2","914","<div style=""font-size:30px;"">Press space to start the trial</div>"," ","","","","","","",""
"","","","","","html-keyboard-response","142","2.0.0","333878","p6v1dtywj48","mus","cub","22","male","yes","yes","5","2","null","<div style=""font-size:60px;"">+</div>","null","","","","","","",""
"","","","","","audio-keyboard-response","143","2.0.0","334476","p6v1dtywj48","mus","cub","22","male","yes","yes","5","2","null","stimuli/sounds/flute_sound_A.wav","null","","","","","","",""
"","","","","","html-keyboard-response","144","2.0.0","335479","p6v1dtywj48","mus","cub","22","male","yes","yes","5","2","null","","null","","","","","","",""
"","","","","","image-keyboard-response","145","2.0.0","336122","p6v1dtywj48","mus","cub","22","male","yes","yes","5","2","641","stimuli/pictures/phone_rotary_2.jpg","0","0","","true","no","sound","stimuli/sounds/flute_sound_A.wav",""
"","","","","","audio-keyboard-response","146","2.0.0","337125","p6v1dtywj48","mus","cub","22","male","yes","yes","5","2","null","stimuli/sounds/bleep.wav","null","","","","","","",""
"","","","","","html-keyboard-response","147","2.0.0","449777","p6v1dtywj48","mus","cub","22","male","yes","yes","5","2","112548","<p>You have completed a block. Press R when you are ready to continue</p>","r","","","","","","",""
"","","","","","html-keyboard-response","148","2.0.0","451211","p6v1dtywj48","mus","cub","22","male","yes","yes","5","2","1433","<div style=""font-size:30px;"">Press space to start the trial</div>"," ","","","","","","",""
"","","","","","html-keyboard-response","149","2.0.0","451464","p6v1dtywj48","mus","cub","22","male","yes","yes","5","2","null","<div style=""font-size:60px;"">+</div>","null","","","","","","",""
"","","","","","audio-keyboard-response","150","2.0.0","452421","p6v1dtywj48","mus","cub","22","male","yes","yes","5","2","null","stimuli/sounds/phone_sound_A.wav","null","","","","","","",""
"","","","","","html-keyboard-response","151","2.0.0","453424","p6v1dtywj48","mus","cub","22","male","yes","yes","5","2","null","","null","","","","","","",""
"","","","","","image-keyboard-response","152","2.0.0","454468","p6v1dtywj48","mus","cub","22","male","yes","yes","5","2","1043","stimuli/pictures/phone_cell_1.jpg","1","1","","true","yes","sound","stimuli/sounds/phone_sound_A.wav",""
"","","","","","audio-keyboard-response","153","2.0.0","454630","p6v1dtywj48","mus","cub","22","male","yes","yes","5","2","160","stimuli/sounds/bleep.wav"," ","","","","","","",""
"","","","","","html-keyboard-response","154","2.0.0","455939","p6v1dtywj48","mus","cub","22","male","yes","yes","5","2","1205","<div style=""font-size:30px;"">Press space to start the trial</div>"," ","","","","","","",""
"","","","","","html-keyboard-response","155","2.0.0","456191","p6v1dtywj48","mus","cub","22","male","yes","yes","5","2","null","<div style=""font-size:60px;"">+</div>","null","","","","","","",""
"","","","","","audio-keyboard-response","156","2.0.0","456799","p6v1dtywj48","mus","cub","22","male","yes","yes","5","2","null","stimuli/sounds/piano_sound_B.wav","null","","","","","","",""
"","","","","","html-keyboard-response","157","2.0.0","457801","p6v1dtywj48","mus","cub","22","male","yes","yes","5","2","null","","null","","","","","","",""
"","","","","","image-keyboard-response","158","2.0.0","459032","p6v1dtywj48","mus","cub","22","male","yes","yes","5","2","1230","stimuli/pictures/flute_wooden_2.jpg","0","0","","true","no","sound","stimuli/sounds/piano_sound_B.wav",""
"","","","","","audio-keyboard-response","159","2.0.0","459498","p6v1dtywj48","mus","cub","22","male","yes","yes","5","2","469","stimuli/sounds/bleep.wav"," ","","","","","","",""
"","","","","","html-keyboard-response","160","2.0.0","460259","p6v1dtywj48","mus","cub","22","male","yes","yes","5","2","660","<div style=""font-size:30px;"">Press space to start the trial</div>"," ","","","","","","",""
"","","","","","html-keyboard-response","161","2.0.0","460512","p6v1dtywj48","mus","cub","22","male","yes","yes","5","2","null","<div style=""font-size:60px;"">+</div>","null","","","","","","",""
"","","","","","audio-keyboard-response","162","2.0.0","461141","p6v1dtywj48","mus","cub","22","male","yes","yes","5","2","null","stimuli/sounds/piano_label_A.wav","null","","","","","","",""
"","","","","","html-keyboard-response","163","2.0.0","462144","p6v1dtywj48","mus","cub","22","male","yes","yes","5","2","null","","null","","","","","","",""
"","","","","","image-keyboard-response","164","2.0.0","463016","p6v1dtywj48","mus","cub","22","male","yes","yes","5","2","870","stimuli/pictures/phone_cell_1.jpg","0","0","","true","no","sound","stimuli/sounds/piano_label_A.wav",""
"","","","","","audio-keyboard-response","165","2.0.0","464019","p6v1dtywj48","mus","cub","22","male","yes","yes","5","2","null","stimuli/sounds/bleep.wav","null","","","","","","",""
"","","","","","html-keyboard-response","166","2.0.0","465345","p6v1dtywj48","mus","cub","22","male","yes","yes","5","2","1223","<div style=""font-size:30px;"">Press space to start the trial</div>"," ","","","","","","",""
"","","","","","html-keyboard-response","167","2.0.0","465597","p6v1dtywj48","mus","cub","22","male","yes","yes","5","2","null","<div style=""font-size:60px;"">+</div>","null","","","","","","",""
"","","","","","audio-keyboard-response","168","2.0.0","466223","p6v1dtywj48","mus","cub","22","male","yes","yes","5","2","null","stimuli/sounds/piano_label_A.wav","null","","","","","","",""
"","","","","","html-keyboard-response","169","2.0.0","467226","p6v1dtywj48","mus","cub","22","male","yes","yes","5","2","null","","null","","","","","","",""
"","","","","","image-keyboard-response","170","2.0.0","468542","p6v1dtywj48","mus","cub","22","male","yes","yes","5","2","1315","stimuli/pictures/piano_electric_1.jpg","1","1","","true","yes","sound","stimuli/sounds/piano_label_A.wav",""
"","","","","","audio-keyboard-response","171","2.0.0","469545","p6v1dtywj48","mus","cub","22","male","yes","yes","5","2","null","stimuli/sounds/bleep.wav","null","","","","","","",""
"","","","","","html-keyboard-response","172","2.0.0","470120","p6v1dtywj48","mus","cub","22","male","yes","yes","5","2","472","<div style=""font-size:30px;"">Press space to start the trial</div>"," ","","","","","","",""
"","","","","","html-keyboard-response","173","2.0.0","470372","p6v1dtywj48","mus","cub","22","male","yes","yes","5","2","null","<div style=""font-size:60px;"">+</div>","null","","","","","","",""
"","","","","","audio-keyboard-response","174","2.0.0","470975","p6v1dtywj48","mus","cub","22","male","yes","yes","5","2","null","stimuli/sounds/phone_label_B.wav","null","","","","","","",""
"","","","","","html-keyboard-response","175","2.0.0","471977","p6v1dtywj48","mus","cub","22","male","yes","yes","5","2","null","","null","","","","","","",""
"","","","","","image-keyboard-response","176","2.0.0","473000","p6v1dtywj48","mus","cub","22","male","yes","yes","5","2","1022","stimuli/pictures/phone_rotary_1.jpg","1","1","","true","yes","sound","stimuli/sounds/phone_label_B.wav",""
"","","","","","audio-keyboard-response","177","2.0.0","474002","p6v1dtywj48","mus","cub","22","male","yes","yes","5","2","null","stimuli/sounds/bleep.wav","null","","","","","","",""
"","","","","","html-keyboard-response","178","2.0.0","475122","p6v1dtywj48","mus","cub","22","male","yes","yes","5","2","1019","<div style=""font-size:30px;"">Press space to start the trial</div>"," ","","","","","","",""
"","","","","","html-keyboard-response","179","2.0.0","475375","p6v1dtywj48","mus","cub","22","male","yes","yes","5","2","null","<div style=""font-size:60px;"">+</div>","null","","","","","","",""
"","","","","","audio-keyboard-response","180","2.0.0","475978","p6v1dtywj48","mus","cub","22","male","yes","yes","5","2","null","stimuli/sounds/drum_label_B.wav","null","","","","","","",""
"","","","","","html-keyboard-response","181","2.0.0","476981","p6v1dtywj48","mus","cub","22","male","yes","yes","5","2","null","","null","","","","","","",""
"","","","","","image-keyboard-response","182","2.0.0","477798","p6v1dtywj48","mus","cub","22","male","yes","yes","5","2","817","stimuli/pictures/drum_bongo_2.jpg","1","1","","true","yes","sound","stimuli/sounds/drum_label_B.wav",""
"","","","","","audio-keyboard-response","183","2.0.0","478800","p6v1dtywj48","mus","cub","22","male","yes","yes","5","2","null","stimuli/sounds/bleep.wav","null","","","","","","",""
"","","","","","html-keyboard-response","184","2.0.0","479613","p6v1dtywj48","mus","cub","22","male","yes","yes","5","2","710","<div style=""font-size:30px;"">Press space to start the trial</div>"," ","","","","","","",""
"","","","","","html-keyboard-response","185","2.0.0","479865","p6v1dtywj48","mus","cub","22","male","yes","yes","5","2","null","<div style=""font-size:60px;"">+</div>","null","","","","","","",""
"","","","","","audio-keyboard-response","186","2.0.0","480468","p6v1dtywj48","mus","cub","22","male","yes","yes","5","2","null","stimuli/sounds/phone_label_A.wav","null","","","","","","",""
"","","","","","html-keyboard-response","187","2.0.0","481470","p6v1dtywj48","mus","cub","22","male","yes","yes","5","2","null","","null","","","","","","",""
"","","","","","image-keyboard-response","188","2.0.0","482252","p6v1dtywj48","mus","cub","22","male","yes","yes","5","2","781","stimuli/pictures/phone_cell_2.jpg","1","1","","true","yes","sound","stimuli/sounds/phone_label_A.wav",""
"","","","","","audio-keyboard-response","189","2.0.0","483255","p6v1dtywj48","mus","cub","22","male","yes","yes","5","2","null","stimuli/sounds/bleep.wav","null","","","","","","",""
"","","","","","html-keyboard-response","190","2.0.0","484020","p6v1dtywj48","mus","cub","22","male","yes","yes","5","2","663","<div style=""font-size:30px;"">Press space to start the trial</div>"," ","","","","","","",""
"","","","","","html-keyboard-response","191","2.0.0","484271","p6v1dtywj48","mus","cub","22","male","yes","yes","5","2","null","<div style=""font-size:60px;"">+</div>","null","","","","","","",""
"","","","","","audio-keyboard-response","192","2.0.0","484874","p6v1dtywj48","mus","cub","22","male","yes","yes","5","2","null","stimuli/sounds/phone_sound_B.wav","null","","","","","","",""
"","","","","","html-keyboard-response","193","2.0.0","485877","p6v1dtywj48","mus","cub","22","male","yes","yes","5","2","null","","null","","","","","","",""
"","","","","","image-keyboard-response","194","2.0.0","486729","p6v1dtywj48","mus","cub","22","male","yes","yes","5","2","850","stimuli/pictures/piano_grand_1.jpg","0","0","","true","no","sound","stimuli/sounds/phone_sound_B.wav",""
"","","","","","audio-keyboard-response","195","2.0.0","487732","p6v1dtywj48","mus","cub","22","male","yes","yes","5","2","null","stimuli/sounds/bleep.wav","null","","","","","","",""
"","","","","","html-keyboard-response","196","2.0.0","488448","p6v1dtywj48","mus","cub","22","male","yes","yes","5","2","612","<div style=""font-size:30px;"">Press space to start the trial</div>"," ","","","","","","",""
"","","","","","html-keyboard-response","197","2.0.0","488700","p6v1dtywj48","mus","cub","22","male","yes","yes","5","2","null","<div style=""font-size:60px;"">+</div>","null","","","","","","",""
"","","","","","audio-keyboard-response","198","2.0.0","489301","p6v1dtywj48","mus","cub","22","male","yes","yes","5","2","null","stimuli/sounds/bird_sound_B.wav","null","","","","","","",""
"","","","","","html-keyboard-response","199","2.0.0","490303","p6v1dtywj48","mus","cub","22","male","yes","yes","5","2","null","","null","","","","","","",""
"","","","","","image-keyboard-response","200","2.0.0","491632","p6v1dtywj48","mus","cub","22","male","yes","yes","5","2","1328","stimuli/pictures/bird_hawk_1.jpg","1","1","","true","no","sound","stimuli/sounds/bird_sound_B.wav",""
"","","","","","audio-keyboard-response","201","2.0.0","492635","p6v1dtywj48","mus","cub","22","male","yes","yes","5","2","null","stimuli/sounds/bleep.wav","null","","","","","","",""
"","","","","","html-keyboard-response","202","2.0.0","493404","p6v1dtywj48","mus","cub","22","male","yes","yes","5","2","666","<div style=""font-size:30px;"">Press space to start the trial</div>"," ","","","","","","",""
"","","","","","html-keyboard-response","203","2.0.0","493657","p6v1dtywj48","mus","cub","22","male","yes","yes","5","2","null","<div style=""font-size:60px;"">+</div>","null","","","","","","",""
"","","","","","audio-keyboard-response","204","2.0.0","494266","p6v1dtywj48","mus","cub","22","male","yes","yes","5","2","null","stimuli/sounds/piano_sound_A.wav","null","","","","","","",""
"","","","","","html-keyboard-response","205","2.0.0","495268","p6v1dtywj48","mus","cub","22","male","yes","yes","5","2","null","","null","","","","","","",""
"","","","","","image-keyboard-response","206","2.0.0","495910","p6v1dtywj48","mus","cub","22","male","yes","yes","5","2","639","stimuli/pictures/drum_bongo_2.jpg","0","0","","true","no","sound","stimuli/sounds/piano_sound_A.wav",""
"","","","","","audio-keyboard-response","207","2.0.0","496913","p6v1dtywj48","mus","cub","22","male","yes","yes","5","2","null","stimuli/sounds/bleep.wav","null","","","","","","",""
"","","","","","html-keyboard-response","208","2.0.0","497571","p6v1dtywj48","mus","cub","22","male","yes","yes","5","2","554","<div style=""font-size:30px;"">Press space to start the trial</div>"," ","","","","","","",""
"","","","","","html-keyboard-response","209","2.0.0","497823","p6v1dtywj48","mus","cub","22","male","yes","yes","5","2","null","<div style=""font-size:60px;"">+</div>","null","","","","","","",""
"","","","","","audio-keyboard-response","210","2.0.0","498426","p6v1dtywj48","mus","cub","22","male","yes","yes","5","2","null","stimuli/sounds/bird_label_A.wav","null","","","","","","",""
"","","","","","html-keyboard-response","211","2.0.0","499428","p6v1dtywj48","mus","cub","22","male","yes","yes","5","2","null","","null","","","","","","",""
"","","","","","image-keyboard-response","212","2.0.0","500265","p6v1dtywj48","mus","cub","22","male","yes","yes","5","2","835","stimuli/pictures/bird_hawk_1.jpg","1","1","","true","yes","sound","stimuli/sounds/bird_label_A.wav",""
"","","","","","audio-keyboard-response","213","2.0.0","501268","p6v1dtywj48","mus","cub","22","male","yes","yes","5","2","null","stimuli/sounds/bleep.wav","null","","","","","","",""
"","","","","","html-keyboard-response","214","2.0.0","501838","p6v1dtywj48","mus","cub","22","male","yes","yes","5","2","466","<div style=""font-size:30px;"">Press space to start the trial</div>"," ","","","","","","",""
"","","","","","html-keyboard-response","215","2.0.0","502090","p6v1dtywj48","mus","cub","22","male","yes","yes","5","2","null","<div style=""font-size:60px;"">+</div>","null","","","","","","",""
"","","","","","audio-keyboard-response","216","2.0.0","502692","p6v1dtywj48","mus","cub","22","male","yes","yes","5","2","null","stimuli/sounds/bird_sound_B.wav","null","","","","","","",""
"","","","","","html-keyboard-response","217","2.0.0","503695","p6v1dtywj48","mus","cub","22","male","yes","yes","5","2","null","","null","","","","","","",""
"","","","","","image-keyboard-response","218","2.0.0","506688","p6v1dtywj48","mus","cub","22","male","yes","yes","5","2","2991","stimuli/pictures/drum_bongo_1.jpg","0","0","","true","no","sound","stimuli/sounds/bird_sound_B.wav",""
"","","","","","audio-keyboard-response","219","2.0.0","507691","p6v1dtywj48","mus","cub","22","male","yes","yes","5","2","null","stimuli/sounds/bleep.wav","null","","","","","","",""
"","","","","","html-keyboard-response","220","2.0.0","508252","p6v1dtywj48","mus","cub","22","male","yes","yes","5","2","458","<div style=""font-size:30px;"">Press space to start the trial</div>"," ","","","","","","",""
"","","","","","html-keyboard-response","221","2.0.0","508504","p6v1dtywj48","mus","cub","22","male","yes","yes","5","2","null","<div style=""font-size:60px;"">+</div>","null","","","","","","",""
"","","","","","audio-keyboard-response","222","2.0.0","509108","p6v1dtywj48","mus","cub","22","male","yes","yes","5","2","null","stimuli/sounds/phone_label_B.wav","null","","","","","","",""
"","","","","","html-keyboard-response","223","2.0.0","510111","p6v1dtywj48","mus","cub","22","male","yes","yes","5","2","null","","null","","","","","","",""
"","","","","","image-keyboard-response","224","2.0.0","511001","p6v1dtywj48","mus","cub","22","male","yes","yes","5","2","888","stimuli/pictures/phone_rotary_2.jpg","1","1","","true","yes","sound","stimuli/sounds/phone_label_B.wav",""
"","","","","","audio-keyboard-response","225","2.0.0","512004","p6v1dtywj48","mus","cub","22","male","yes","yes","5","2","null","stimuli/sounds/bleep.wav","null","","","","","","",""
"","","","","","html-keyboard-response","226","2.0.0","512521","p6v1dtywj48","mus","cub","22","male","yes","yes","5","2","415","<div style=""font-size:30px;"">Press space to start the trial</div>"," ","","","","","","",""
"","","","","","html-keyboard-response","227","2.0.0","512773","p6v1dtywj48","mus","cub","22","male","yes","yes","5","2","null","<div style=""font-size:60px;"">+</div>","null","","","","","","",""
"","","","","","audio-keyboard-response","228","2.0.0","513375","p6v1dtywj48","mus","cub","22","male","yes","yes","5","2","null","stimuli/sounds/drum_sound_B.wav","null","","","","","","",""
"","","","","","html-keyboard-response","229","2.0.0","514377","p6v1dtywj48","mus","cub","22","male","yes","yes","5","2","null","","null","","","","","","",""
"","","","","","image-keyboard-response","230","2.0.0","515452","p6v1dtywj48","mus","cub","22","male","yes","yes","5","2","1074","stimuli/pictures/drum_kit_2.jpg","1","1","","true","no","sound","stimuli/sounds/drum_sound_B.wav",""
"","","","","","audio-keyboard-response","231","2.0.0","516455","p6v1dtywj48","mus","cub","22","male","yes","yes","5","2","null","stimuli/sounds/bleep.wav","null","","","","","","",""
"","","","","","html-keyboard-response","232","2.0.0","517043","p6v1dtywj48","mus","cub","22","male","yes","yes","5","2","486","<div style=""font-size:30px;"">Press space to start the trial</div>"," ","","","","","","",""
"","","","","","html-keyboard-response","233","2.0.0","517296","p6v1dtywj48","mus","cub","22","male","yes","yes","5","2","null","<div style=""font-size:60px;"">+</div>","null","","","","","","",""
"","","","","","audio-keyboard-response","234","2.0.0","517903","p6v1dtywj48","mus","cub","22","male","yes","yes","5","2","null","stimuli/sounds/piano_sound_B.wav","null","","","","","","",""
"","","","","","html-keyboard-response","235","2.0.0","518906","p6v1dtywj48","mus","cub","22","male","yes","yes","5","2","null","","null","","","","","","",""
"","","","","","image-keyboard-response","236","2.0.0","519781","p6v1dtywj48","mus","cub","22","male","yes","yes","5","2","874","stimuli/pictures/piano_grand_2.jpg","0","1","","false","no","sound","stimuli/sounds/piano_sound_B.wav",""
"","","","","","audio-keyboard-response","237","2.0.0","520783","p6v1dtywj48","mus","cub","22","male","yes","yes","5","2","null","stimuli/sounds/buzz.wav","null","","","","","","",""
"","","","","","html-keyboard-response","238","2.0.0","521627","p6v1dtywj48","mus","cub","22","male","yes","yes","5","2","741","<div style=""font-size:30px;"">Press space to start the trial</div>"," ","","","","","","",""
"","","","","","html-keyboard-response","239","2.0.0","521879","p6v1dtywj48","mus","cub","22","male","yes","yes","5","2","null","<div style=""font-size:60px;"">+</div>","null","","","","","","",""
"","","","","","audio-keyboard-response","240","2.0.0","522479","p6v1dtywj48","mus","cub","22","male","yes","yes","5","2","null","stimuli/sounds/drum_label_A.wav","null","","","","","","",""
"","","","","","html-keyboard-response","241","2.0.0","523481","p6v1dtywj48","mus","cub","22","male","yes","yes","5","2","null","","null","","","","","","",""
"","","","","","image-keyboard-response","242","2.0.0","524170","p6v1dtywj48","mus","cub","22","male","yes","yes","5","2","687","stimuli/pictures/drum_kit_1.jpg","1","1","","true","yes","sound","stimuli/sounds/drum_label_A.wav",""
"","","","","","audio-keyboard-response","243","2.0.0","525173","p6v1dtywj48","mus","cub","22","male","yes","yes","5","2","null","stimuli/sounds/bleep.wav","null","","","","","","",""
"","","","","","html-keyboard-response","244","2.0.0","525761","p6v1dtywj48","mus","cub","22","male","yes","yes","5","2","485","<div style=""font-size:30px;"">Press space to start the trial</div>"," ","","","","","","",""
"","","","","","html-keyboard-response","245","2.0.0","526014","p6v1dtywj48","mus","cub","22","male","yes","yes","5","2","null","<div style=""font-size:60px;"">+</div>","null","","","","","","",""
"","","","","","audio-keyboard-response","246","2.0.0","526617","p6v1dtywj48","mus","cub","22","male","yes","yes","5","2","null","stimuli/sounds/drum_label_B.wav","null","","","","","","",""
"","","","","","html-keyboard-response","247","2.0.0","527619","p6v1dtywj48","mus","cub","22","male","yes","yes","5","2","null","","null","","","","","","",""
"","","","","","image-keyboard-response","248","2.0.0","528298","p6v1dtywj48","mus","cub","22","male","yes","yes","5","2","679","stimuli/pictures/piano_grand_1.jpg","0","0","","true","no","sound","stimuli/sounds/drum_label_B.wav",""
"","","","","","audio-keyboard-response","249","2.0.0","529302","p6v1dtywj48","mus","cub","22","male","yes","yes","5","2","null","stimuli/sounds/bleep.wav","null","","","","","","",""
"","","","","","html-keyboard-response","250","2.0.0","529727","p6v1dtywj48","mus","cub","22","male","yes","yes","5","2","320","<div style=""font-size:30px;"">Press space to start the trial</div>"," ","","","","","","",""
"","","","","","html-keyboard-response","251","2.0.0","529981","p6v1dtywj48","mus","cub","22","male","yes","yes","5","2","null","<div style=""font-size:60px;"">+</div>","null","","","","","","",""
"","","","","","audio-keyboard-response","252","2.0.0","530585","p6v1dtywj48","mus","cub","22","male","yes","yes","5","2","null","stimuli/sounds/drum_label_A.wav","null","","","","","","",""
"","","","","","html-keyboard-response","253","2.0.0","531587","p6v1dtywj48","mus","cub","22","male","yes","yes","5","2","null","","null","","","","","","",""
"","","","","","image-keyboard-response","254","2.0.0","532244","p6v1dtywj48","mus","cub","22","male","yes","yes","5","2","655","stimuli/pictures/drum_bongo_2.jpg","1","1","","true","yes","sound","stimuli/sounds/drum_label_A.wav",""
"","","","","","audio-keyboard-response","255","2.0.0","533247","p6v1dtywj48","mus","cub","22","male","yes","yes","5","2","null","stimuli/sounds/bleep.wav","null","","","","","","",""
"","","","","","html-keyboard-response","256","2.0.0","533802","p6v1dtywj48","mus","cub","22","male","yes","yes","5","2","453","<div style=""font-size:30px;"">Press space to start the trial</div>"," ","","","","","","",""
"","","","","","html-keyboard-response","257","2.0.0","534054","p6v1dtywj48","mus","cub","22","male","yes","yes","5","2","null","<div style=""font-size:60px;"">+</div>","null","","","","","","",""
"","","","","","audio-keyboard-response","258","2.0.0","534654","p6v1dtywj48","mus","cub","22","male","yes","yes","5","2","null","stimuli/sounds/bird_sound_B.wav","null","","","","","","",""
"","","","","","html-keyboard-response","259","2.0.0","535657","p6v1dtywj48","mus","cub","22","male","yes","yes","5","2","null","","null","","","","","","",""
"","","","","","image-keyboard-response","260","2.0.0","536378","p6v1dtywj48","mus","cub","22","male","yes","yes","5","2","719","stimuli/pictures/drum_kit_2.jpg","0","0","","true","no","sound","stimuli/sounds/bird_sound_B.wav",""
"","","","","","audio-keyboard-response","261","2.0.0","537382","p6v1dtywj48","mus","cub","22","male","yes","yes","5","2","null","stimuli/sounds/bleep.wav","null","","","","","","",""
"","","","","","html-keyboard-response","262","2.0.0","538016","p6v1dtywj48","mus","cub","22","male","yes","yes","5","2","532","<div style=""font-size:30px;"">Press space to start the trial</div>"," ","","","","","","",""
"","","","","","html-keyboard-response","263","2.0.0","538269","p6v1dtywj48","mus","cub","22","male","yes","yes","5","2","null","<div style=""font-size:60px;"">+</div>","null","","","","","","",""
"","","","","","audio-keyboard-response","264","2.0.0","538873","p6v1dtywj48","mus","cub","22","male","yes","yes","5","2","null","stimuli/sounds/piano_label_B.wav","null","","","","","","",""
"","","","","","html-keyboard-response","265","2.0.0","539876","p6v1dtywj48","mus","cub","22","male","yes","yes","5","2","null","","null","","","","","","",""
"","","","","","image-keyboard-response","266","2.0.0","540438","p6v1dtywj48","mus","cub","22","male","yes","yes","5","2","560","stimuli/pictures/piano_electric_2.jpg","1","1","","true","yes","sound","stimuli/sounds/piano_label_B.wav",""
"","","","","","audio-keyboard-response","267","2.0.0","541440","p6v1dtywj48","mus","cub","22","male","yes","yes","5","2","null","stimuli/sounds/bleep.wav","null","","","","","","",""
"","","","","","html-keyboard-response","268","2.0.0","543509","p6v1dtywj48","mus","cub","22","male","yes","yes","5","2","1966","<p>You have completed a block. Press R when you are ready to continue</p>","r","","","","","","",""
"","","","","","html-keyboard-response","269","2.0.0","544393","p6v1dtywj48","mus","cub","22","male","yes","yes","5","2","883","<div style=""font-size:30px;"">Press space to start the trial</div>"," ","","","","","","",""
"","","","","","html-keyboard-response","270","2.0.0","544646","p6v1dtywj48","mus","cub","22","male","yes","yes","5","2","null","<div style=""font-size:60px;"">+</div>","null","","","","","","",""
"","","","","","audio-keyboard-response","271","2.0.0","545273","p6v1dtywj48","mus","cub","22","male","yes","yes","5","2","null","stimuli/sounds/piano_label_A.wav","null","","","","","","",""
"","","","","","html-keyboard-response","272","2.0.0","546276","p6v1dtywj48","mus","cub","22","male","yes","yes","5","2","null","","null","","","","","","",""
"","","","","","image-keyboard-response","273","2.0.0","546896","p6v1dtywj48","mus","cub","22","male","yes","yes","5","2","616","stimuli/pictures/piano_grand_2.jpg","1","1","","true","yes","sound","stimuli/sounds/piano_label_A.wav",""
"","","","","","audio-keyboard-response","274","2.0.0","547898","p6v1dtywj48","mus","cub","22","male","yes","yes","5","2","null","stimuli/sounds/bleep.wav","null","","","","","","",""
"","","","","","html-keyboard-response","275","2.0.0","548568","p6v1dtywj48","mus","cub","22","male","yes","yes","5","2","567","<div style=""font-size:30px;"">Press space to start the trial</div>"," ","","","","","","",""
"","","","","","html-keyboard-response","276","2.0.0","548821","p6v1dtywj48","mus","cub","22","male","yes","yes","5","2","null","<div style=""font-size:60px;"">+</div>","null","","","","","","",""
"","","","","","audio-keyboard-response","277","2.0.0","549422","p6v1dtywj48","mus","cub","22","male","yes","yes","5","2","null","stimuli/sounds/bird_sound_B.wav","null","","","","","","",""
"","","","","","html-keyboard-response","278","2.0.0","550425","p6v1dtywj48","mus","cub","22","male","yes","yes","5","2","null","","null","","","","","","",""
"","","","","","image-keyboard-response","279","2.0.0","551358","p6v1dtywj48","mus","cub","22","male","yes","yes","5","2","932","stimuli/pictures/drum_bongo_2.jpg","0","0","","true","no","sound","stimuli/sounds/bird_sound_B.wav",""
"","","","","","audio-keyboard-response","280","2.0.0","552361","p6v1dtywj48","mus","cub","22","male","yes","yes","5","2","null","stimuli/sounds/bleep.wav","null","","","","","","",""
"","","","","","html-keyboard-response","281","2.0.0","552897","p6v1dtywj48","mus","cub","22","male","yes","yes","5","2","434","<div style=""font-size:30px;"">Press space to start the trial</div>"," ","","","","","","",""
"","","","","","html-keyboard-response","282","2.0.0","553149","p6v1dtywj48","mus","cub","22","male","yes","yes","5","2","null","<div style=""font-size:60px;"">+</div>","null","","","","","","",""
"","","","","","audio-keyboard-response","283","2.0.0","553758","p6v1dtywj48","mus","cub","22","male","yes","yes","5","2","null","stimuli/sounds/flute_label_B.wav","null","","","","","","",""
"","","","","","html-keyboard-response","284","2.0.0","554762","p6v1dtywj48","mus","cub","22","male","yes","yes","5","2","null","","null","","","","","","",""
"","","","","","image-keyboard-response","285","2.0.0","555514","p6v1dtywj48","mus","cub","22","male","yes","yes","5","2","751","stimuli/pictures/flute_metal_1.jpg","1","1","","true","yes","sound","stimuli/sounds/flute_label_B.wav",""
"","","","","","audio-keyboard-response","286","2.0.0","556517","p6v1dtywj48","mus","cub","22","male","yes","yes","5","2","null","stimuli/sounds/bleep.wav","null","","","","","","",""
"","","","","","html-keyboard-response","287","2.0.0","556884","p6v1dtywj48","mus","cub","22","male","yes","yes","5","2","264","<div style=""font-size:30px;"">Press space to start the trial</div>"," ","","","","","","",""
"","","","","","html-keyboard-response","288","2.0.0","557137","p6v1dtywj48","mus","cub","22","male","yes","yes","5","2","null","<div style=""font-size:60px;"">+</div>","null","","","","","","",""
"","","","","","audio-keyboard-response","289","2.0.0","557737","p6v1dtywj48","mus","cub","22","male","yes","yes","5","2","null","stimuli/sounds/phone_sound_A.wav","null","","","","","","",""
"","","","","","html-keyboard-response","290","2.0.0","558739","p6v1dtywj48","mus","cub","22","male","yes","yes","5","2","null","","null","","","","","","",""
"","","","","","image-keyboard-response","291","2.0.0","559252","p6v1dtywj48","mus","cub","22","male","yes","yes","5","2","512","stimuli/pictures/bird_song_2.jpg","0","0","","true","no","sound","stimuli/sounds/phone_sound_A.wav",""
"","","","","","audio-keyboard-response","292","2.0.0","560254","p6v1dtywj48","mus","cub","22","male","yes","yes","5","2","null","stimuli/sounds/bleep.wav","null","","","","","","",""
"","","","","","html-keyboard-response","293","2.0.0","560672","p6v1dtywj48","mus","cub","22","male","yes","yes","5","2","316","<div style=""font-size:30px;"">Press space to start the trial</div>"," ","","","","","","",""
"","","","","","html-keyboard-response","294","2.0.0","560925","p6v1dtywj48","mus","cub","22","male","yes","yes","5","2","null","<div style=""font-size:60px;"">+</div>","null","","","","","","",""
"","","","","","audio-keyboard-response","295","2.0.0","561529","p6v1dtywj48","mus","cub","22","male","yes","yes","5","2","null","stimuli/sounds/phone_sound_A.wav","null","","","","","","",""
"","","","","","html-keyboard-response","296","2.0.0","562532","p6v1dtywj48","mus","cub","22","male","yes","yes","5","2","null","","null","","","","","","",""
"","","","","","image-keyboard-response","297","2.0.0","563522","p6v1dtywj48","mus","cub","22","male","yes","yes","5","2","989","stimuli/pictures/phone_rotary_1.jpg","1","1","","true","no","sound","stimuli/sounds/phone_sound_A.wav",""
"","","","","","audio-keyboard-response","298","2.0.0","564525","p6v1dtywj48","mus","cub","22","male","yes","yes","5","2","null","stimuli/sounds/bleep.wav","null","","","","","","",""
"","","","","","html-keyboard-response","299","2.0.0","565002","p6v1dtywj48","mus","cub","22","male","yes","yes","5","2","375","<div style=""font-size:30px;"">Press space to start the trial</div>"," ","","","","","","",""
"","","","","","html-keyboard-response","300","2.0.0","565253","p6v1dtywj48","mus","cub","22","male","yes","yes","5","2","null","<div style=""font-size:60px;"">+</div>","null","","","","","","",""
"","","","","","audio-keyboard-response","301","2.0.0","565860","p6v1dtywj48","mus","cub","22","male","yes","yes","5","2","null","stimuli/sounds/piano_sound_A.wav","null","","","","","","",""
"","","","","","html-keyboard-response","302","2.0.0","566862","p6v1dtywj48","mus","cub","22","male","yes","yes","5","2","null","","null","","","","","","",""
"","","","","","image-keyboard-response","303","2.0.0","567436","p6v1dtywj48","mus","cub","22","male","yes","yes","5","2","572","stimuli/pictures/piano_electric_1.jpg","1","1","","true","no","sound","stimuli/sounds/piano_sound_A.wav",""
"","","","","","audio-keyboard-response","304","2.0.0","568439","p6v1dtywj48","mus","cub","22","male","yes","yes","5","2","null","stimuli/sounds/bleep.wav","null","","","","","","",""
"","","","","","html-keyboard-response","305","2.0.0","569126","p6v1dtywj48","mus","cub","22","male","yes","yes","5","2","584","<div style=""font-size:30px;"">Press space to start the trial</div>"," ","","","","","","",""
"","","","","","html-keyboard-response","306","2.0.0","569379","p6v1dtywj48","mus","cub","22","male","yes","yes","5","2","null","<div style=""font-size:60px;"">+</div>","null","","","","","","",""
"","","","","","audio-keyboard-response","307","2.0.0","569982","p6v1dtywj48","mus","cub","22","male","yes","yes","5","2","null","stimuli/sounds/bird_label_A.wav","null","","","","","","",""
"","","","","","html-keyboard-response","308","2.0.0","570985","p6v1dtywj48","mus","cub","22","male","yes","yes","5","2","null","","null","","","","","","",""
"","","","","","image-keyboard-response","309","2.0.0","571728","p6v1dtywj48","mus","cub","22","male","yes","yes","5","2","741","stimuli/pictures/flute_metal_1.jpg","0","0","","true","no","sound","stimuli/sounds/bird_label_A.wav",""
"","","","","","audio-keyboard-response","310","2.0.0","572731","p6v1dtywj48","mus","cub","22","male","yes","yes","5","2","null","stimuli/sounds/bleep.wav","null","","","","","","",""
"","","","","","html-keyboard-response","311","2.0.0","573850","p6v1dtywj48","mus","cub","22","male","yes","yes","5","2","1016","<div style=""font-size:30px;"">Press space to start the trial</div>"," ","","","","","","",""
"","","","","","html-keyboard-response","312","2.0.0","574101","p6v1dtywj48","mus","cub","22","male","yes","yes","5","2","null","<div style=""font-size:60px;"">+</div>","null","","","","","","",""
"","","","","","audio-keyboard-response","313","2.0.0","574702","p6v1dtywj48","mus","cub","22","male","yes","yes","5","2","null","stimuli/sounds/phone_label_A.wav","null","","","","","","",""
"","","","","","html-keyboard-response","314","2.0.0","575705","p6v1dtywj48","mus","cub","22","male","yes","yes","5","2","null","","null","","","","","","",""
"","","","","","image-keyboard-response","315","2.0.0","576522","p6v1dtywj48","mus","cub","22","male","yes","yes","5","2","815","stimuli/pictures/drum_bongo_2.jpg","0","0","","true","no","sound","stimuli/sounds/phone_label_A.wav",""
"","","","","","audio-keyboard-response","316","2.0.0","577524","p6v1dtywj48","mus","cub","22","male","yes","yes","5","2","null","stimuli/sounds/bleep.wav","null","","","","","","",""
"","","","","","html-keyboard-response","317","2.0.0","580981","p6v1dtywj48","mus","cub","22","male","yes","yes","5","2","3355","<div style=""font-size:30px;"">Press space to start the trial</div>"," ","","","","","","",""
"","","","","","html-keyboard-response","318","2.0.0","581234","p6v1dtywj48","mus","cub","22","male","yes","yes","5","2","null","<div style=""font-size:60px;"">+</div>","null","","","","","","",""
"","","","","","audio-keyboard-response","319","2.0.0","581838","p6v1dtywj48","mus","cub","22","male","yes","yes","5","2","null","stimuli/sounds/bird_label_B.wav","null","","","","","","",""
"","","","","","html-keyboard-response","320","2.0.0","582840","p6v1dtywj48","mus","cub","22","male","yes","yes","5","2","null","","null","","","","","","",""
"","","","","","image-keyboard-response","321","2.0.0","583687","p6v1dtywj48","mus","cub","22","male","yes","yes","5","2","845","stimuli/pictures/bird_hawk_1.jpg","1","1","","true","yes","sound","stimuli/sounds/bird_label_B.wav",""
"","","","","","audio-keyboard-response","322","2.0.0","584691","p6v1dtywj48","mus","cub","22","male","yes","yes","5","2","null","stimuli/sounds/bleep.wav","null","","","","","","",""
"","","","","","html-keyboard-response","323","2.0.0","585155","p6v1dtywj48","mus","cub","22","male","yes","yes","5","2","361","<div style=""font-size:30px;"">Press space to start the trial</div>"," ","","","","","","",""
"","","","","","html-keyboard-response","324","2.0.0","585407","p6v1dtywj48","mus","cub","22","male","yes","yes","5","2","null","<div style=""font-size:60px;"">+</div>","null","","","","","","",""
"","","","","","audio-keyboard-response","325","2.0.0","586014","p6v1dtywj48","mus","cub","22","male","yes","yes","5","2","null","stimuli/sounds/piano_sound_A.wav","null","","","","","","",""
"","","","","","html-keyboard-response","326","2.0.0","587021","p6v1dtywj48","mus","cub","22","male","yes","yes","5","2","null","","null","","","","","","",""
"","","","","","image-keyboard-response","327","2.0.0","587886","p6v1dtywj48","mus","cub","22","male","yes","yes","5","2","864","stimuli/pictures/piano_electric_2.jpg","1","1","","true","no","sound","stimuli/sounds/piano_sound_A.wav",""
"","","","","","audio-keyboard-response","328","2.0.0","588888","p6v1dtywj48","mus","cub","22","male","yes","yes","5","2","null","stimuli/sounds/bleep.wav","null","","","","","","",""
"","","","","","html-keyboard-response","329","2.0.0","589917","p6v1dtywj48","mus","cub","22","male","yes","yes","5","2","927","<div style=""font-size:30px;"">Press space to start the trial</div>"," ","","","","","","",""
"","","","","","html-keyboard-response","330","2.0.0","590170","p6v1dtywj48","mus","cub","22","male","yes","yes","5","2","null","<div style=""font-size:60px;"">+</div>","null","","","","","","",""
"","","","","","audio-keyboard-response","331","2.0.0","590771","p6v1dtywj48","mus","cub","22","male","yes","yes","5","2","null","stimuli/sounds/piano_label_B.wav","null","","","","","","",""
"","","","","","html-keyboard-response","332","2.0.0","591774","p6v1dtywj48","mus","cub","22","male","yes","yes","5","2","null","","null","","","","","","",""
"","","","","","image-keyboard-response","333","2.0.0","592417","p6v1dtywj48","mus","cub","22","male","yes","yes","5","2","640","stimuli/pictures/piano_grand_1.jpg","1","1","","true","yes","sound","stimuli/sounds/piano_label_B.wav",""
"","","","","","audio-keyboard-response","334","2.0.0","593420","p6v1dtywj48","mus","cub","22","male","yes","yes","5","2","null","stimuli/sounds/bleep.wav","null","","","","","","",""
"","","","","","html-keyboard-response","335","2.0.0","593991","p6v1dtywj48","mus","cub","22","male","yes","yes","5","2","468","<div style=""font-size:30px;"">Press space to start the trial</div>"," ","","","","","","",""
"","","","","","html-keyboard-response","336","2.0.0","594244","p6v1dtywj48","mus","cub","22","male","yes","yes","5","2","null","<div style=""font-size:60px;"">+</div>","null","","","","","","",""
"","","","","","audio-keyboard-response","337","2.0.0","594846","p6v1dtywj48","mus","cub","22","male","yes","yes","5","2","null","stimuli/sounds/bird_sound_A.wav","null","","","","","","",""
"","","","","","html-keyboard-response","338","2.0.0","595848","p6v1dtywj48","mus","cub","22","male","yes","yes","5","2","null","","null","","","","","","",""
"","","","","","image-keyboard-response","339","2.0.0","596418","p6v1dtywj48","mus","cub","22","male","yes","yes","5","2","568","stimuli/pictures/piano_grand_2.jpg","0","0","","true","no","sound","stimuli/sounds/bird_sound_A.wav",""
"","","","","","audio-keyboard-response","340","2.0.0","597420","p6v1dtywj48","mus","cub","22","male","yes","yes","5","2","null","stimuli/sounds/bleep.wav","null","","","","","","",""
"","","","","","html-keyboard-response","341","2.0.0","600194","p6v1dtywj48","mus","cub","22","male","yes","yes","5","2","2671","<div style=""font-size:30px;"">Press space to start the trial</div>"," ","","","","","","",""
"","","","","","html-keyboard-response","342","2.0.0","600446","p6v1dtywj48","mus","cub","22","male","yes","yes","5","2","null","<div style=""font-size:60px;"">+</div>","null","","","","","","",""
"","","","","","audio-keyboard-response","343","2.0.0","601049","p6v1dtywj48","mus","cub","22","male","yes","yes","5","2","null","stimuli/sounds/flute_label_A.wav","null","","","","","","",""
"","","","","","html-keyboard-response","344","2.0.0","602051","p6v1dtywj48","mus","cub","22","male","yes","yes","5","2","null","","null","","","","","","",""
"","","","","","image-keyboard-response","345","2.0.0","602749","p6v1dtywj48","mus","cub","22","male","yes","yes","5","2","696","stimuli/pictures/flute_wooden_2.jpg","1","1","","true","yes","sound","stimuli/sounds/flute_label_A.wav",""
"","","","","","audio-keyboard-response","346","2.0.0","603751","p6v1dtywj48","mus","cub","22","male","yes","yes","5","2","null","stimuli/sounds/bleep.wav","null","","","","","","",""
"","","","","","html-keyboard-response","347","2.0.0","604456","p6v1dtywj48","mus","cub","22","male","yes","yes","5","2","603","<div style=""font-size:30px;"">Press space to start the trial</div>"," ","","","","","","",""
"","","","","","html-keyboard-response","348","2.0.0","604708","p6v1dtywj48","mus","cub","22","male","yes","yes","5","2","null","<div style=""font-size:60px;"">+</div>","null","","","","","","",""
"","","","","","audio-keyboard-response","349","2.0.0","605315","p6v1dtywj48","mus","cub","22","male","yes","yes","5","2","null","stimuli/sounds/piano_sound_B.wav","null","","","","","","",""
"","","","","","html-keyboard-response","350","2.0.0","606319","p6v1dtywj48","mus","cub","22","male","yes","yes","5","2","null","","null","","","","","","",""
"","","","","","image-keyboard-response","351","2.0.0","607264","p6v1dtywj48","mus","cub","22","male","yes","yes","5","2","943","stimuli/pictures/flute_metal_1.jpg","0","0","","true","no","sound","stimuli/sounds/piano_sound_B.wav",""
"","","","","","audio-keyboard-response","352","2.0.0","608266","p6v1dtywj48","mus","cub","22","male","yes","yes","5","2","null","stimuli/sounds/bleep.wav","null","","","","","","",""
"","","","","","html-keyboard-response","353","2.0.0","608833","p6v1dtywj48","mus","cub","22","male","yes","yes","5","2","465","<div style=""font-size:30px;"">Press space to start the trial</div>"," ","","","","","","",""
"","","","","","html-keyboard-response","354","2.0.0","609085","p6v1dtywj48","mus","cub","22","male","yes","yes","5","2","null","<div style=""font-size:60px;"">+</div>","null","","","","","","",""
"","","","","","audio-keyboard-response","355","2.0.0","609688","p6v1dtywj48","mus","cub","22","male","yes","yes","5","2","null","stimuli/sounds/phone_label_B.wav","null","","","","","","",""
"","","","","","html-keyboard-response","356","2.0.0","610691","p6v1dtywj48","mus","cub","22","male","yes","yes","5","2","null","","null","","","","","","",""
"","","","","","image-keyboard-response","357","2.0.0","611410","p6v1dtywj48","mus","cub","22","male","yes","yes","5","2","717","stimuli/pictures/phone_cell_1.jpg","1","1","","true","yes","sound","stimuli/sounds/phone_label_B.wav",""
"","","","","","audio-keyboard-response","358","2.0.0","612413","p6v1dtywj48","mus","cub","22","male","yes","yes","5","2","null","stimuli/sounds/bleep.wav","null","","","","","","",""
"","","","","","html-keyboard-response","359","2.0.0","613593","p6v1dtywj48","mus","cub","22","male","yes","yes","5","2","1078","<div style=""font-size:30px;"">Press space to start the trial</div>"," ","","","","","","",""
"","","","","","html-keyboard-response","360","2.0.0","613846","p6v1dtywj48","mus","cub","22","male","yes","yes","5","2","null","<div style=""font-size:60px;"">+</div>","null","","","","","","",""
"","","","","","audio-keyboard-response","361","2.0.0","614451","p6v1dtywj48","mus","cub","22","male","yes","yes","5","2","null","stimuli/sounds/flute_label_B.wav","null","","","","","","",""
"","","","","","html-keyboard-response","362","2.0.0","615454","p6v1dtywj48","mus","cub","22","male","yes","yes","5","2","null","","null","","","","","","",""
"","","","","","image-keyboard-response","363","2.0.0","616086","p6v1dtywj48","mus","cub","22","male","yes","yes","5","2","631","stimuli/pictures/drum_bongo_1.jpg","0","0","","true","no","sound","stimuli/sounds/flute_label_B.wav",""
"","","","","","audio-keyboard-response","364","2.0.0","617090","p6v1dtywj48","mus","cub","22","male","yes","yes","5","2","null","stimuli/sounds/bleep.wav","null","","","","","","",""
"","","","","","html-keyboard-response","365","2.0.0","617982","p6v1dtywj48","mus","cub","22","male","yes","yes","5","2","790","<div style=""font-size:30px;"">Press space to start the trial</div>"," ","","","","","","",""
"","","","","","html-keyboard-response","366","2.0.0","618234","p6v1dtywj48","mus","cub","22","male","yes","yes","5","2","null","<div style=""font-size:60px;"">+</div>","null","","","","","","",""
"","","","","","audio-keyboard-response","367","2.0.0","618834","p6v1dtywj48","mus","cub","22","male","yes","yes","5","2","null","stimuli/sounds/phone_label_A.wav","null","","","","","","",""
"","","","","","html-keyboard-response","368","2.0.0","619837","p6v1dtywj48","mus","cub","22","male","yes","yes","5","2","null","","null","","","","","","",""
"","","","","","image-keyboard-response","369","2.0.0","620558","p6v1dtywj48","mus","cub","22","male","yes","yes","5","2","719","stimuli/pictures/drum_bongo_1.jpg","0","0","","true","no","sound","stimuli/sounds/phone_label_A.wav",""
"","","","","","audio-keyboard-response","370","2.0.0","621559","p6v1dtywj48","mus","cub","22","male","yes","yes","5","2","null","stimuli/sounds/bleep.wav","null","","","","","","",""
"","","","","","html-keyboard-response","371","2.0.0","623983","p6v1dtywj48","mus","cub","22","male","yes","yes","5","2","2321","<div style=""font-size:30px;"">Press space to start the trial</div>"," ","","","","","","",""
"","","","","","html-keyboard-response","372","2.0.0","624236","p6v1dtywj48","mus","cub","22","male","yes","yes","5","2","null","<div style=""font-size:60px;"">+</div>","null","","","","","","",""
"","","","","","audio-keyboard-response","373","2.0.0","624835","p6v1dtywj48","mus","cub","22","male","yes","yes","5","2","null","stimuli/sounds/bird_label_B.wav","null","","","","","","",""
"","","","","","html-keyboard-response","374","2.0.0","625838","p6v1dtywj48","mus","cub","22","male","yes","yes","5","2","null","","null","","","","","","",""
"","","","","","image-keyboard-response","375","2.0.0","626989","p6v1dtywj48","mus","cub","22","male","yes","yes","5","2","1150","stimuli/pictures/bird_hawk_1.jpg","0","1","","false","yes","sound","stimuli/sounds/bird_label_B.wav",""
"","","","","","audio-keyboard-response","376","2.0.0","627995","p6v1dtywj48","mus","cub","22","male","yes","yes","5","2","null","stimuli/sounds/buzz.wav","null","","","","","","",""
"","","","","","html-keyboard-response","377","2.0.0","630416","p6v1dtywj48","mus","cub","22","male","yes","yes","5","2","2318","<div style=""font-size:30px;"">Press space to start the trial</div>"," ","","","","","","",""
"","","","","","html-keyboard-response","378","2.0.0","630668","p6v1dtywj48","mus","cub","22","male","yes","yes","5","2","null","<div style=""font-size:60px;"">+</div>","null","","","","","","",""
"","","","","","audio-keyboard-response","379","2.0.0","631272","p6v1dtywj48","mus","cub","22","male","yes","yes","5","2","null","stimuli/sounds/flute_label_B.wav","null","","","","","","",""
"","","","","","html-keyboard-response","380","2.0.0","632275","p6v1dtywj48","mus","cub","22","male","yes","yes","5","2","null","","null","","","","","","",""
"","","","","","image-keyboard-response","381","2.0.0","633052","p6v1dtywj48","mus","cub","22","male","yes","yes","5","2","775","stimuli/pictures/drum_bongo_2.jpg","0","0","","true","no","sound","stimuli/sounds/flute_label_B.wav",""
"","","","","","audio-keyboard-response","382","2.0.0","634054","p6v1dtywj48","mus","cub","22","male","yes","yes","5","2","null","stimuli/sounds/bleep.wav","null","","","","","","",""
"","","","","","html-keyboard-response","383","2.0.0","634717","p6v1dtywj48","mus","cub","22","male","yes","yes","5","2","561","<div style=""font-size:30px;"">Press space to start the trial</div>"," ","","","","","","",""
"","","","","","html-keyboard-response","384","2.0.0","634969","p6v1dtywj48","mus","cub","22","male","yes","yes","5","2","null","<div style=""font-size:60px;"">+</div>","null","","","","","","",""
"","","","","","audio-keyboard-response","385","2.0.0","635571","p6v1dtywj48","mus","cub","22","male","yes","yes","5","2","null","stimuli/sounds/drum_label_A.wav","null","","","","","","",""
"","","","","","html-keyboard-response","386","2.0.0","636573","p6v1dtywj48","mus","cub","22","male","yes","yes","5","2","null","","null","","","","","","",""
"","","","","","image-keyboard-response","387","2.0.0","637137","p6v1dtywj48","mus","cub","22","male","yes","yes","5","2","563","stimuli/pictures/bird_hawk_1.jpg","0","0","","true","no","sound","stimuli/sounds/drum_label_A.wav",""
"","","","","","audio-keyboard-response","388","2.0.0","638139","p6v1dtywj48","mus","cub","22","male","yes","yes","5","2","null","stimuli/sounds/bleep.wav","null","","","","","","",""
"","","","","","html-keyboard-response","389","2.0.0","640295","p6v1dtywj48","mus","cub","22","male","yes","yes","5","2","2052","<p>You have completed a block. Press R when you are ready to continue</p>","r","","","","","","",""
"","","","","","html-keyboard-response","390","2.0.0","641012","p6v1dtywj48","mus","cub","22","male","yes","yes","5","2","716","<div style=""font-size:30px;"">Press space to start the trial</div>"," ","","","","","","",""
"","","","","","html-keyboard-response","391","2.0.0","641264","p6v1dtywj48","mus","cub","22","male","yes","yes","5","2","null","<div style=""font-size:60px;"">+</div>","null","","","","","","",""
"","","","","","audio-keyboard-response","392","2.0.0","641864","p6v1dtywj48","mus","cub","22","male","yes","yes","5","2","null","stimuli/sounds/bird_label_A.wav","null","","","","","","",""
"","","","","","html-keyboard-response","393","2.0.0","642867","p6v1dtywj48","mus","cub","22","male","yes","yes","5","2","null","","null","","","","","","",""
"","","","","","image-keyboard-response","394","2.0.0","643551","p6v1dtywj48","mus","cub","22","male","yes","yes","5","2","683","stimuli/pictures/flute_wooden_2.jpg","0","0","","true","no","sound","stimuli/sounds/bird_label_A.wav",""
"","","","","","audio-keyboard-response","395","2.0.0","644554","p6v1dtywj48","mus","cub","22","male","yes","yes","5","2","null","stimuli/sounds/bleep.wav","null","","","","","","",""
"","","","","","html-keyboard-response","396","2.0.0","645119","p6v1dtywj48","mus","cub","22","male","yes","yes","5","2","462","<div style=""font-size:30px;"">Press space to start the trial</div>"," ","","","","","","",""
"","","","","","html-keyboard-response","397","2.0.0","645372","p6v1dtywj48","mus","cub","22","male","yes","yes","5","2","null","<div style=""font-size:60px;"">+</div>","null","","","","","","",""
"","","","","","audio-keyboard-response","398","2.0.0","645971","p6v1dtywj48","mus","cub","22","male","yes","yes","5","2","null","stimuli/sounds/phone_label_B.wav","null","","","","","","",""
"","","","","","html-keyboard-response","399","2.0.0","646974","p6v1dtywj48","mus","cub","22","male","yes","yes","5","2","null","","null","","","","","","",""
"","","","","","image-keyboard-response","400","2.0.0","647670","p6v1dtywj48","mus","cub","22","male","yes","yes","5","2","694","stimuli/pictures/phone_cell_2.jpg","1","1","","true","yes","sound","stimuli/sounds/phone_label_B.wav",""
"","","","","","audio-keyboard-response","401","2.0.0","648672","p6v1dtywj48","mus","cub","22","male","yes","yes","5","2","null","stimuli/sounds/bleep.wav","null","","","","","","",""
"","","","","","html-keyboard-response","402","2.0.0","649321","p6v1dtywj48","mus","cub","22","male","yes","yes","5","2","547","<div style=""font-size:30px;"">Press space to start the trial</div>"," ","","","","","","",""
"","","","","","html-keyboard-response","403","2.0.0","649573","p6v1dtywj48","mus","cub","22","male","yes","yes","5","2","null","<div style=""font-size:60px;"">+</div>","null","","","","","","",""
"","","","","","audio-keyboard-response","404","2.0.0","650173","p6v1dtywj48","mus","cub","22","male","yes","yes","5","2","null","stimuli/sounds/phone_sound_B.wav","null","","","","","","",""
"","","","","","html-keyboard-response","405","2.0.0","651175","p6v1dtywj48","mus","cub","22","male","yes","yes","5","2","null","","null","","","","","","",""
"","","","","","image-keyboard-response","406","2.0.0","651751","p6v1dtywj48","mus","cub","22","male","yes","yes","5","2","574","stimuli/pictures/phone_cell_1.jpg","1","1","","true","no","sound","stimuli/sounds/phone_sound_B.wav",""
"","","","","","audio-keyboard-response","407","2.0.0","652754","p6v1dtywj48","mus","cub","22","male","yes","yes","5","2","null","stimuli/sounds/bleep.wav","null","","","","","","",""
"","","","","","html-keyboard-response","408","2.0.0","653453","p6v1dtywj48","mus","cub","22","male","yes","yes","5","2","596","<div style=""font-size:30px;"">Press space to start the trial</div>"," ","","","","","","",""
"","","","","","html-keyboard-response","409","2.0.0","653705","p6v1dtywj48","mus","cub","22","male","yes","yes","5","2","null","<div style=""font-size:60px;"">+</div>","null","","","","","","",""
"","","","","","audio-keyboard-response","410","2.0.0","654307","p6v1dtywj48","mus","cub","22","male","yes","yes","5","2","null","stimuli/sounds/drum_sound_B.wav","null","","","","","","",""
"","","","","","html-keyboard-response","411","2.0.0","655309","p6v1dtywj48","mus","cub","22","male","yes","yes","5","2","null","","null","","","","","","",""
"","","","","","image-keyboard-response","412","2.0.0","656753","p6v1dtywj48","mus","cub","22","male","yes","yes","5","2","1443","stimuli/pictures/phone_rotary_2.jpg","0","0","","true","no","sound","stimuli/sounds/drum_sound_B.wav",""
"","","","","","audio-keyboard-response","413","2.0.0","657756","p6v1dtywj48","mus","cub","22","male","yes","yes","5","2","null","stimuli/sounds/bleep.wav","null","","","","","","",""
"","","","","","html-keyboard-response","414","2.0.0","658249","p6v1dtywj48","mus","cub","22","male","yes","yes","5","2","390","<div style=""font-size:30px;"">Press space to start the trial</div>"," ","","","","","","",""
"","","","","","html-keyboard-response","415","2.0.0","658501","p6v1dtywj48","mus","cub","22","male","yes","yes","5","2","null","<div style=""font-size:60px;"">+</div>","null","","","","","","",""
"","","","","","audio-keyboard-response","416","2.0.0","659101","p6v1dtywj48","mus","cub","22","male","yes","yes","5","2","null","stimuli/sounds/drum_label_A.wav","null","","","","","","",""
"","","","","","html-keyboard-response","417","2.0.0","660104","p6v1dtywj48","mus","cub","22","male","yes","yes","5","2","null","","null","","","","","","",""
"","","","","","image-keyboard-response","418","2.0.0","660744","p6v1dtywj48","mus","cub","22","male","yes","yes","5","2","639","stimuli/pictures/bird_hawk_1.jpg","0","0","","true","no","sound","stimuli/sounds/drum_label_A.wav",""
"","","","","","audio-keyboard-response","419","2.0.0","661747","p6v1dtywj48","mus","cub","22","male","yes","yes","5","2","null","stimuli/sounds/bleep.wav","null","","","","","","",""
"","","","","","html-keyboard-response","420","2.0.0","662874","p6v1dtywj48","mus","cub","22","male","yes","yes","5","2","1024","<div style=""font-size:30px;"">Press space to start the trial</div>"," ","","","","","","",""
"","","","","","html-keyboard-response","421","2.0.0","663127","p6v1dtywj48","mus","cub","22","male","yes","yes","5","2","null","<div style=""font-size:60px;"">+</div>","null","","","","","","",""
"","","","","","audio-keyboard-response","422","2.0.0","663730","p6v1dtywj48","mus","cub","22","male","yes","yes","5","2","null","stimuli/sounds/drum_sound_A.wav","null","","","","","","",""
"","","","","","html-keyboard-response","423","2.0.0","664733","p6v1dtywj48","mus","cub","22","male","yes","yes","5","2","null","","null","","","","","","",""
"","","","","","image-keyboard-response","424","2.0.0","665297","p6v1dtywj48","mus","cub","22","male","yes","yes","5","2","563","stimuli/pictures/flute_wooden_2.jpg","0","0","","true","no","sound","stimuli/sounds/drum_sound_A.wav",""
"","","","","","audio-keyboard-response","425","2.0.0","666299","p6v1dtywj48","mus","cub","22","male","yes","yes","5","2","null","stimuli/sounds/bleep.wav","null","","","","","","",""
"","","","","","html-keyboard-response","426","2.0.0","666916","p6v1dtywj48","mus","cub","22","male","yes","yes","5","2","513","<div style=""font-size:30px;"">Press space to start the trial</div>"," ","","","","","","",""
"","","","","","html-keyboard-response","427","2.0.0","667169","p6v1dtywj48","mus","cub","22","male","yes","yes","5","2","null","<div style=""font-size:60px;"">+</div>","null","","","","","","",""
"","","","","","audio-keyboard-response","428","2.0.0","667773","p6v1dtywj48","mus","cub","22","male","yes","yes","5","2","null","stimuli/sounds/phone_sound_A.wav","null","","","","","","",""
"","","","","","html-keyboard-response","429","2.0.0","668776","p6v1dtywj48","mus","cub","22","male","yes","yes","5","2","null","","null","","","","","","",""
"","","","","","image-keyboard-response","430","2.0.0","669411","p6v1dtywj48","mus","cub","22","male","yes","yes","5","2","634","stimuli/pictures/phone_cell_2.jpg","1","1","","true","yes","sound","stimuli/sounds/phone_sound_A.wav",""
"","","","","","audio-keyboard-response","431","2.0.0","669861","p6v1dtywj48","mus","cub","22","male","yes","yes","5","2","448","stimuli/sounds/bleep.wav"," ","","","","","","",""
"","","","","","html-keyboard-response","432","2.0.0","670364","p6v1dtywj48","mus","cub","22","male","yes","yes","5","2","400","<div style=""font-size:30px;"">Press space to start the trial</div>"," ","","","","","","",""
"","","","","","html-keyboard-response","433","2.0.0","670617","p6v1dtywj48","mus","cub","22","male","yes","yes","5","2","null","<div style=""font-size:60px;"">+</div>","null","","","","","","",""
"","","","","","audio-keyboard-response","434","2.0.0","671218","p6v1dtywj48","mus","cub","22","male","yes","yes","5","2","null","stimuli/sounds/drum_label_B.wav","null","","","","","","",""
"","","","","","html-keyboard-response","435","2.0.0","672221","p6v1dtywj48","mus","cub","22","male","yes","yes","5","2","null","","null","","","","","","",""
"","","","","","image-keyboard-response","436","2.0.0","673084","p6v1dtywj48","mus","cub","22","male","yes","yes","5","2","861","stimuli/pictures/piano_electric_1.jpg","0","0","","true","no","sound","stimuli/sounds/drum_label_B.wav",""
"","","","","","audio-keyboard-response","437","2.0.0","674087","p6v1dtywj48","mus","cub","22","male","yes","yes","5","2","null","stimuli/sounds/bleep.wav","null","","","","","","",""
"","","","","","html-keyboard-response","438","2.0.0","674451","p6v1dtywj48","mus","cub","22","male","yes","yes","5","2","261","<div style=""font-size:30px;"">Press space to start the trial</div>"," ","","","","","","",""
"","","","","","html-keyboard-response","439","2.0.0","674703","p6v1dtywj48","mus","cub","22","male","yes","yes","5","2","null","<div style=""font-size:60px;"">+</div>","null","","","","","","",""
"","","","","","audio-keyboard-response","440","2.0.0","675309","p6v1dtywj48","mus","cub","22","male","yes","yes","5","2","null","stimuli/sounds/piano_sound_A.wav","null","","","","","","",""
"","","","","","html-keyboard-response","441","2.0.0","676312","p6v1dtywj48","mus","cub","22","male","yes","yes","5","2","null","","null","","","","","","",""
"","","","","","image-keyboard-response","442","2.0.0","677185","p6v1dtywj48","mus","cub","22","male","yes","yes","5","2","872","stimuli/pictures/drum_kit_1.jpg","0","0","","true","no","sound","stimuli/sounds/piano_sound_A.wav",""
"","","","","","audio-keyboard-response","443","2.0.0","678188","p6v1dtywj48","mus","cub","22","male","yes","yes","5","2","null","stimuli/sounds/bleep.wav","null","","","","","","",""
"","","","","","html-keyboard-response","444","2.0.0","678573","p6v1dtywj48","mus","cub","22","male","yes","yes","5","2","283","<div style=""font-size:30px;"">Press space to start the trial</div>"," ","","","","","","",""
"","","","","","html-keyboard-response","445","2.0.0","678825","p6v1dtywj48","mus","cub","22","male","yes","yes","5","2","null","<div style=""font-size:60px;"">+</div>","null","","","","","","",""
"","","","","","audio-keyboard-response","446","2.0.0","679426","p6v1dtywj48","mus","cub","22","male","yes","yes","5","2","null","stimuli/sounds/piano_label_B.wav","null","","","","","","",""
"","","","","","html-keyboard-response","447","2.0.0","680428","p6v1dtywj48","mus","cub","22","male","yes","yes","5","2","null","","null","","","","","","",""
"","","","","","image-keyboard-response","448","2.0.0","680905","p6v1dtywj48","mus","cub","22","male","yes","yes","5","2","475","stimuli/pictures/piano_electric_1.jpg","1","1","","true","yes","sound","stimuli/sounds/piano_label_B.wav",""
"","","","","","audio-keyboard-response","449","2.0.0","681907","p6v1dtywj48","mus","cub","22","male","yes","yes","5","2","null","stimuli/sounds/bleep.wav","null","","","","","","",""
"","","","","","html-keyboard-response","450","2.0.0","682298","p6v1dtywj48","mus","cub","22","male","yes","yes","5","2","289","<div style=""font-size:30px;"">Press space to start the trial</div>"," ","","","","","","",""
"","","","","","html-keyboard-response","451","2.0.0","682552","p6v1dtywj48","mus","cub","22","male","yes","yes","5","2","null","<div style=""font-size:60px;"">+</div>","null","","","","","","",""
"","","","","","audio-keyboard-response","452","2.0.0","683154","p6v1dtywj48","mus","cub","22","male","yes","yes","5","2","null","stimuli/sounds/flute_label_A.wav","null","","","","","","",""
"","","","","","html-keyboard-response","453","2.0.0","684157","p6v1dtywj48","mus","cub","22","male","yes","yes","5","2","null","","null","","","","","","",""
"","","","","","image-keyboard-response","454","2.0.0","684880","p6v1dtywj48","mus","cub","22","male","yes","yes","5","2","722","stimuli/pictures/piano_grand_1.jpg","0","0","","true","no","sound","stimuli/sounds/flute_label_A.wav",""
"","","","","","audio-keyboard-response","455","2.0.0","685883","p6v1dtywj48","mus","cub","22","male","yes","yes","5","2","null","stimuli/sounds/bleep.wav","null","","","","","","",""
"","","","","","html-keyboard-response","456","2.0.0","686299","p6v1dtywj48","mus","cub","22","male","yes","yes","5","2","313","<div style=""font-size:30px;"">Press space to start the trial</div>"," ","","","","","","",""
"","","","","","html-keyboard-response","457","2.0.0","686550","p6v1dtywj48","mus","cub","22","male","yes","yes","5","2","null","<div style=""font-size:60px;"">+</div>","null","","","","","","",""
"","","","","","audio-keyboard-response","458","2.0.0","687160","p6v1dtywj48","mus","cub","22","male","yes","yes","5","2","null","stimuli/sounds/flute_label_B.wav","null","","","","","","",""
"","","","","","html-keyboard-response","459","2.0.0","688163","p6v1dtywj48","mus","cub","22","male","yes","yes","5","2","null","","null","","","","","","",""
"","","","","","image-keyboard-response","460","2.0.0","688909","p6v1dtywj48","mus","cub","22","male","yes","yes","5","2","745","stimuli/pictures/flute_wooden_2.jpg","1","1","","true","yes","sound","stimuli/sounds/flute_label_B.wav",""
"","","","","","audio-keyboard-response","461","2.0.0","689912","p6v1dtywj48","mus","cub","22","male","yes","yes","5","2","null","stimuli/sounds/bleep.wav","null","","","","","","",""
"","","","","","html-keyboard-response","462","2.0.0","690515","p6v1dtywj48","mus","cub","22","male","yes","yes","5","2","500","<div style=""font-size:30px;"">Press space to start the trial</div>"," ","","","","","","",""
"","","","","","html-keyboard-response","463","2.0.0","690768","p6v1dtywj48","mus","cub","22","male","yes","yes","5","2","null","<div style=""font-size:60px;"">+</div>","null","","","","","","",""
"","","","","","audio-keyboard-response","464","2.0.0","691368","p6v1dtywj48","mus","cub","22","male","yes","yes","5","2","null","stimuli/sounds/flute_sound_A.wav","null","","","","","","",""
"","","","","","html-keyboard-response","465","2.0.0","692370","p6v1dtywj48","mus","cub","22","male","yes","yes","5","2","null","","null","","","","","","",""
"","","","","","image-keyboard-response","466","2.0.0","693137","p6v1dtywj48","mus","cub","22","male","yes","yes","5","2","765","stimuli/pictures/phone_cell_2.jpg","0","0","","true","no","sound","stimuli/sounds/flute_sound_A.wav",""
"","","","","","audio-keyboard-response","467","2.0.0","694139","p6v1dtywj48","mus","cub","22","male","yes","yes","5","2","null","stimuli/sounds/bleep.wav","null","","","","","","",""
"","","","","","html-keyboard-response","468","2.0.0","694810","p6v1dtywj48","mus","cub","22","male","yes","yes","5","2","568","<div style=""font-size:30px;"">Press space to start the trial</div>"," ","","","","","","",""
"","","","","","html-keyboard-response","469","2.0.0","695062","p6v1dtywj48","mus","cub","22","male","yes","yes","5","2","null","<div style=""font-size:60px;"">+</div>","null","","","","","","",""
"","","","","","audio-keyboard-response","470","2.0.0","695666","p6v1dtywj48","mus","cub","22","male","yes","yes","5","2","null","stimuli/sounds/phone_label_A.wav","null","","","","","","",""
"","","","","","html-keyboard-response","471","2.0.0","696669","p6v1dtywj48","mus","cub","22","male","yes","yes","5","2","null","","null","","","","","","",""
"","","","","","image-keyboard-response","472","2.0.0","697496","p6v1dtywj48","mus","cub","22","male","yes","yes","5","2","826","stimuli/pictures/phone_cell_1.jpg","1","1","","true","yes","sound","stimuli/sounds/phone_label_A.wav",""
"","","","","","audio-keyboard-response","473","2.0.0","698498","p6v1dtywj48","mus","cub","22","male","yes","yes","5","2","null","stimuli/sounds/bleep.wav","null","","","","","","",""
"","","","","","html-keyboard-response","474","2.0.0","699018","p6v1dtywj48","mus","cub","22","male","yes","yes","5","2","418","<div style=""font-size:30px;"">Press space to start the trial</div>"," ","","","","","","",""
"","","","","","html-keyboard-response","475","2.0.0","699271","p6v1dtywj48","mus","cub","22","male","yes","yes","5","2","null","<div style=""font-size:60px;"">+</div>","null","","","","","","",""
"","","","","","audio-keyboard-response","476","2.0.0","699874","p6v1dtywj48","mus","cub","22","male","yes","yes","5","2","null","stimuli/sounds/bird_sound_A.wav","null","","","","","","",""
"","","","","","html-keyboard-response","477","2.0.0","700878","p6v1dtywj48","mus","cub","22","male","yes","yes","5","2","null","","null","","","","","","",""
"","","","","","image-keyboard-response","478","2.0.0","701415","p6v1dtywj48","mus","cub","22","male","yes","yes","5","2","536","stimuli/pictures/bird_song_2.jpg","1","1","","true","no","sound","stimuli/sounds/bird_sound_A.wav",""
"","","","","","audio-keyboard-response","479","2.0.0","702418","p6v1dtywj48","mus","cub","22","male","yes","yes","5","2","null","stimuli/sounds/bleep.wav","null","","","","","","",""
"","","","","","html-keyboard-response","480","2.0.0","703050","p6v1dtywj48","mus","cub","22","male","yes","yes","5","2","530","<div style=""font-size:30px;"">Press space to start the trial</div>"," ","","","","","","",""
"","","","","","html-keyboard-response","481","2.0.0","703303","p6v1dtywj48","mus","cub","22","male","yes","yes","5","2","null","<div style=""font-size:60px;"">+</div>","null","","","","","","",""
"","","","","","audio-keyboard-response","482","2.0.0","703906","p6v1dtywj48","mus","cub","22","male","yes","yes","5","2","null","stimuli/sounds/phone_label_A.wav","null","","","","","","",""
"","","","","","html-keyboard-response","483","2.0.0","704909","p6v1dtywj48","mus","cub","22","male","yes","yes","5","2","null","","null","","","","","","",""
"","","","","","image-keyboard-response","484","2.0.0","705533","p6v1dtywj48","mus","cub","22","male","yes","yes","5","2","623","stimuli/pictures/drum_kit_1.jpg","0","0","","true","no","sound","stimuli/sounds/phone_label_A.wav",""
"","","","","","audio-keyboard-response","485","2.0.0","706536","p6v1dtywj48","mus","cub","22","male","yes","yes","5","2","null","stimuli/sounds/bleep.wav","null","","","","","","",""
"","","","","","html-keyboard-response","486","2.0.0","707819","p6v1dtywj48","mus","cub","22","male","yes","yes","5","2","1179","<div style=""font-size:30px;"">Press space to start the trial</div>"," ","","","","","","",""
"","","","","","html-keyboard-response","487","2.0.0","708072","p6v1dtywj48","mus","cub","22","male","yes","yes","5","2","null","<div style=""font-size:60px;"">+</div>","null","","","","","","",""
"","","","","","audio-keyboard-response","488","2.0.0","708674","p6v1dtywj48","mus","cub","22","male","yes","yes","5","2","null","stimuli/sounds/flute_sound_A.wav","null","","","","","","",""
"","","","","","html-keyboard-response","489","2.0.0","709676","p6v1dtywj48","mus","cub","22","male","yes","yes","5","2","null","","null","","","","","","",""
"","","","","","image-keyboard-response","490","2.0.0","710119","p6v1dtywj48","mus","cub","22","male","yes","yes","5","2","443","stimuli/pictures/flute_wooden_2.jpg","1","1","","true","no","sound","stimuli/sounds/flute_sound_A.wav",""
"","","","","","audio-keyboard-response","491","2.0.0","711122","p6v1dtywj48","mus","cub","22","male","yes","yes","5","2","null","stimuli/sounds/bleep.wav","null","","","","","","",""
"","","","","","html-keyboard-response","492","2.0.0","711717","p6v1dtywj48","mus","cub","22","male","yes","yes","5","2","492","<div style=""font-size:30px;"">Press space to start the trial</div>"," ","","","","","","",""
"","","","","","html-keyboard-response","493","2.0.0","711969","p6v1dtywj48","mus","cub","22","male","yes","yes","5","2","null","<div style=""font-size:60px;"">+</div>","null","","","","","","",""
"","","","","","audio-keyboard-response","494","2.0.0","712572","p6v1dtywj48","mus","cub","22","male","yes","yes","5","2","null","stimuli/sounds/bird_sound_A.wav","null","","","","","","",""
"","","","","","html-keyboard-response","495","2.0.0","713573","p6v1dtywj48","mus","cub","22","male","yes","yes","5","2","null","","null","","","","","","",""
"","","","","","image-keyboard-response","496","2.0.0","714251","p6v1dtywj48","mus","cub","22","male","yes","yes","5","2","676","stimuli/pictures/piano_grand_1.jpg","0","0","","true","no","sound","stimuli/sounds/bird_sound_A.wav",""
"","","","","","audio-keyboard-response","497","2.0.0","715254","p6v1dtywj48","mus","cub","22","male","yes","yes","5","2","null","stimuli/sounds/bleep.wav","null","","","","","","",""
