"success","timeout","failed_images","failed_audio","failed_video","trial_type","trial_index","plugin_version","time_elapsed","random_id","condition","participant","age","gender_id","mus_exp","inst_exp","years_exp","mus_listening","rt","stimulus","response","correct_response","practice","correct","congruent","sound_type","audio","question_order"
"true","false","[]","[]","[]","preload","0","2.0.0","640","p7hgsjfsstb","ono","lynx","22","male","no","yes","0","4-5","","","","","","","","","",""
"","","","","","html-keyboard-response","1","2.0.0","2049","p7hgsjfsstb","ono","lynx","22","male","no","yes","0","4-5","1408","Welcome to the experiment! Press any key to begin."," ","","","","","","",""
"true","","","","","fullscreen","2","null","18571","p7hgsjfsstb","ono","lynx","22","male","no","yes","0","4-5","15518","","","","","","","","",""
"","","","","","survey-text","3","2.0.0","22376","p7hgsjfsstb","ono","lynx","22","male","no","yes","0","4-5","3798","","{""participant_id"":""lynx""}","","","","","","",""
"","","","","","html-keyboard-response","4","2.0.0","50097","p7hgsjfsstb","ono","lynx","22","male","no","yes","0","4-5","27718","
    <p> Please use headphones for the duration of the study.</p>
    <p> Within each trial, you will hear a sound and then be presented with an image in the center of your screen.</p>
    <p>Press the <b>'1'</b> key if what you hear <u>matches</u> what you see.</p>
    <p>Press the <b>'0'</b> key if what you hear <u>does not match</u> what you see.</p>
    <p>Try to respond as quickly and accurately as you can.</p>
    <p> Press any key to begin.</p>
    "," ","","","","","","",""
"","","","","","html-keyboard-response","5","2.0.0","54960","p7hgsjfsstb","ono","lynx","22","male","no","yes","0","4-5","4862","
    <div style=""font-size:28px;"">
      <p>You will now complete 4 short practice trials.</p>
      <p>This is just to help you get familiar with the task.</p>
      <p>Press any key to begin.</p>
    </div>
  "," ","","","","","","",""
"","","","","","html-keyboard-response","6","2.0.0","55462","p7hgsjfsstb","ono","lynx","22","male","no","yes","0","4-5","null","<div style=""font-size:60px;"">+</div>","null","","","","","","",""
"","","","","","audio-keyboard-response","7","2.0.0","56394","p7hgsjfsstb","ono","lynx","22","male","no","yes","0","4-5","null","stimuli/sounds/guitar_label_A.wav","null","","","","","","",""
"","","","","","image-keyboard-response","8","2.0.0","56948","p7hgsjfsstb","ono","lynx","22","male","no","yes","0","4-5","551","stimuli/pictures/guitar_acoustic_1.jpg","1","1","true","true","","","",""
"","","","","","audio-keyboard-response","9","2.0.0","57751","p7hgsjfsstb","ono","lynx","22","male","no","yes","0","4-5","null","stimuli/sounds/bleep.wav","null","","","","","","",""
"","","","","","html-keyboard-response","10","2.0.0","58455","p7hgsjfsstb","ono","lynx","22","male","no","yes","0","4-5","null","<p style='color:green; font-size:30px;'>Correct!</p>","null","","","","","","",""
"","","","","","html-keyboard-response","11","2.0.0","58958","p7hgsjfsstb","ono","lynx","22","male","no","yes","0","4-5","null","<div style=""font-size:60px;"">+</div>","null","","","","","","",""
"","","","","","audio-keyboard-response","12","2.0.0","59563","p7hgsjfsstb","ono","lynx","22","male","no","yes","0","4-5","null","stimuli/sounds/guitar_sound_B.wav","null","","","","","","",""
"","","","","","image-keyboard-response","13","2.0.0","60152","p7hgsjfsstb","ono","lynx","22","male","no","yes","0","4-5","588","stimuli/pictures/guitar_acoustic_2.jpg","1","1","true","true","","","",""
"","","","","","audio-keyboard-response","14","2.0.0","60955","p7hgsjfsstb","ono","lynx","22","male","no","yes","0","4-5","null","stimuli/sounds/bleep.wav","null","","","","","","",""
"","","","","","html-keyboard-response","15","2.0.0","61658","p7hgsjfsstb","ono","lynx","22","male","no","yes","0","4-5","null","<p style='color:green; font-size:30px;'>Correct!</p>","null","","","","","","",""
"","","","","","html-keyboard-response","16","2.0.0","62161","p7hgsjfsstb","ono","lynx","22","male","no","yes","0","4-5","null","<div style=""font-size:60px;"">+</div>","null","","","","","","",""
"","","","","","audio-keyboard-response","17","2.0.0","62763","p7hgsjfsstb","ono","lynx","22","male","no","yes","0","4-5","null","stimuli/sounds/flute_sound_A.wav","null","","","","","","",""
"","","","","","image-keyboard-response","18","2.0.0","63601","p7hgsjfsstb","ono","lynx","22","male","no","yes","0","4-5","837","stimuli/pictures/guitar_electric_1.jpg","1","0","true","false","","","",""
"","","","","","audio-keyboard-response","19","2.0.0","64405","p7hgsjfsstb","ono","lynx","22","male","no","yes","0","4-5","null","stimuli/sounds/buzz.wav","null","","","","","","",""
"","","","","","html-keyboard-response","20","2.0.0","65108","p7hgsjfsstb","ono","lynx","22","male","no","yes","0","4-5","null","<p style='color:red; font-size:30px;'>Incorrect</p>","null","","","","","","",""
"","","","","","html-keyboard-response","21","2.0.0","65611","p7hgsjfsstb","ono","lynx","22","male","no","yes","0","4-5","null","<div style=""font-size:60px;"">+</div>","null","","","","","","",""
"","","","","","audio-keyboard-response","22","2.0.0","66213","p7hgsjfsstb","ono","lynx","22","male","no","yes","0","4-5","null","stimuli/sounds/guitar_sound_A.wav","null","","","","","","",""
"","","","","","image-keyboard-response","23","2.0.0","66984","p7hgsjfsstb","ono","lynx","22","male","no","yes","0","4-5","768","stimuli/pictures/guitar_acoustic_1.jpg","1","1","true","true","","","",""
"","","","","","audio-keyboard-response","24","2.0.0","67787","p7hgsjfsstb","ono","lynx","22","male","no","yes","0","4-5","null","stimuli/sounds/bleep.wav","null","","","","","","",""
"","","","","","html-keyboard-response","25","2.0.0","68490","p7hgsjfsstb","ono","lynx","22","male","no","yes","0","4-5","null","<p style='color:green; font-size:30px;'>Correct!</p>","null","","","","","","",""
"","","","","","html-keyboard-response","26","2.0.0","76310","p7hgsjfsstb","ono","lynx","22","male","no","yes","0","4-5","7818","<p>Practice complete. Press any key to begin the real experiment.</p>","0","","","","","","",""
"","","","","","html-keyboard-response","27","2.0.0","80360","p7hgsjfsstb","ono","lynx","22","male","no","yes","0","4-5","4049","<div style=""font-size:30px;"">Press space to start the trial</div>"," ","","","","","","",""
"","","","","","html-keyboard-response","28","2.0.0","80613","p7hgsjfsstb","ono","lynx","22","male","no","yes","0","4-5","null","<div style=""font-size:60px;"">+</div>","null","","","","","","",""
"","","","","","audio-keyboard-response","29","2.0.0","81216","p7hgsjfsstb","ono","lynx","22","male","no","yes","0","4-5","null","stimuli/sounds/dog_label_A.wav","null","","","","","","",""
"","","","","","html-keyboard-response","30","2.0.0","82219","p7hgsjfsstb","ono","lynx","22","male","no","yes","0","4-5","null","","null","","","","","","",""
"","","","","","image-keyboard-response","31","2.0.0","83034","p7hgsjfsstb","ono","lynx","22","male","no","yes","0","4-5","813","stimuli/pictures/drop_multi_1.jpg","0","0","","true","no","sound","stimuli/sounds/dog_label_A.wav",""
"","","","","","audio-keyboard-response","32","2.0.0","84037","p7hgsjfsstb","ono","lynx","22","male","no","yes","0","4-5","null","stimuli/sounds/bleep.wav","null","","","","","","",""
"","","","","","html-keyboard-response","33","2.0.0","86725","p7hgsjfsstb","ono","lynx","22","male","no","yes","0","4-5","2585","<div style=""font-size:30px;"">Press space to start the trial</div>"," ","","","","","","",""
"","","","","","html-keyboard-response","34","2.0.0","86977","p7hgsjfsstb","ono","lynx","22","male","no","yes","0","4-5","null","<div style=""font-size:60px;"">+</div>","null","","","","","","",""
"","","","","","audio-keyboard-response","35","2.0.0","87579","p7hgsjfsstb","ono","lynx","22","male","no","yes","0","4-5","null","stimuli/sounds/dog_label_A.wav","null","","","","","","",""
"","","","","","html-keyboard-response","36","2.0.0","88581","p7hgsjfsstb","ono","lynx","22","male","no","yes","0","4-5","null","","null","","","","","","",""
"","","","","","image-keyboard-response","37","2.0.0","89143","p7hgsjfsstb","ono","lynx","22","male","no","yes","0","4-5","560","stimuli/pictures/dog_rott_1.jpg","1","1","","true","yes","sound","stimuli/sounds/dog_label_A.wav",""
"","","","","","audio-keyboard-response","38","2.0.0","90146","p7hgsjfsstb","ono","lynx","22","male","no","yes","0","4-5","null","stimuli/sounds/bleep.wav","null","","","","","","",""
"","","","","","html-keyboard-response","39","2.0.0","91163","p7hgsjfsstb","ono","lynx","22","male","no","yes","0","4-5","915","<div style=""font-size:30px;"">Press space to start the trial</div>"," ","","","","","","",""
"","","","","","html-keyboard-response","40","2.0.0","91415","p7hgsjfsstb","ono","lynx","22","male","no","yes","0","4-5","null","<div style=""font-size:60px;"">+</div>","null","","","","","","",""
"","","","","","audio-keyboard-response","41","2.0.0","92027","p7hgsjfsstb","ono","lynx","22","male","no","yes","0","4-5","null","stimuli/sounds/drop_label_B.wav","null","","","","","","",""
"","","","","","html-keyboard-response","42","2.0.0","93029","p7hgsjfsstb","ono","lynx","22","male","no","yes","0","4-5","null","","null","","","","","","",""
"","","","","","image-keyboard-response","43","2.0.0","94514","p7hgsjfsstb","ono","lynx","22","male","no","yes","0","4-5","1483","stimuli/pictures/motor_harley_2.jpg","0","0","","true","no","sound","stimuli/sounds/drop_label_B.wav",""
"","","","","","audio-keyboard-response","44","2.0.0","95517","p7hgsjfsstb","ono","lynx","22","male","no","yes","0","4-5","null","stimuli/sounds/bleep.wav","null","","","","","","",""
"","","","","","html-keyboard-response","45","2.0.0","96337","p7hgsjfsstb","ono","lynx","22","male","no","yes","0","4-5","716","<div style=""font-size:30px;"">Press space to start the trial</div>"," ","","","","","","",""
"","","","","","html-keyboard-response","46","2.0.0","96589","p7hgsjfsstb","ono","lynx","22","male","no","yes","0","4-5","null","<div style=""font-size:60px;"">+</div>","null","","","","","","",""
"","","","","","audio-keyboard-response","47","2.0.0","97253","p7hgsjfsstb","ono","lynx","22","male","no","yes","0","4-5","null","stimuli/sounds/cough_sound_A.wav","null","","","","","","",""
"","","","","","html-keyboard-response","48","2.0.0","98256","p7hgsjfsstb","ono","lynx","22","male","no","yes","0","4-5","null","","null","","","","","","",""
"","","","","","image-keyboard-response","49","2.0.0","99176","p7hgsjfsstb","ono","lynx","22","male","no","yes","0","4-5","918","stimuli/pictures/dog_rott_1.jpg","0","0","","true","no","sound","stimuli/sounds/cough_sound_A.wav",""
"","","","","","audio-keyboard-response","50","2.0.0","100179","p7hgsjfsstb","ono","lynx","22","male","no","yes","0","4-5","null","stimuli/sounds/bleep.wav","null","","","","","","",""
"","","","","","html-keyboard-response","51","2.0.0","101682","p7hgsjfsstb","ono","lynx","22","male","no","yes","0","4-5","1400","<div style=""font-size:30px;"">Press space to start the trial</div>"," ","","","","","","",""
"","","","","","html-keyboard-response","52","2.0.0","101934","p7hgsjfsstb","ono","lynx","22","male","no","yes","0","4-5","null","<div style=""font-size:60px;"">+</div>","null","","","","","","",""
"","","","","","audio-keyboard-response","53","2.0.0","102539","p7hgsjfsstb","ono","lynx","22","male","no","yes","0","4-5","null","stimuli/sounds/motor_label_A.wav","null","","","","","","",""
"","","","","","html-keyboard-response","54","2.0.0","103542","p7hgsjfsstb","ono","lynx","22","male","no","yes","0","4-5","null","","null","","","","","","",""
"","","","","","image-keyboard-response","55","2.0.0","104271","p7hgsjfsstb","ono","lynx","22","male","no","yes","0","4-5","727","stimuli/pictures/motor_dirt_1.jpg","1","1","","true","yes","sound","stimuli/sounds/motor_label_A.wav",""
"","","","","","audio-keyboard-response","56","2.0.0","105274","p7hgsjfsstb","ono","lynx","22","male","no","yes","0","4-5","null","stimuli/sounds/bleep.wav","null","","","","","","",""
"","","","","","html-keyboard-response","57","2.0.0","106151","p7hgsjfsstb","ono","lynx","22","male","no","yes","0","4-5","774","<div style=""font-size:30px;"">Press space to start the trial</div>"," ","","","","","","",""
"","","","","","html-keyboard-response","58","2.0.0","106404","p7hgsjfsstb","ono","lynx","22","male","no","yes","0","4-5","null","<div style=""font-size:60px;"">+</div>","null","","","","","","",""
"","","","","","audio-keyboard-response","59","2.0.0","107008","p7hgsjfsstb","ono","lynx","22","male","no","yes","0","4-5","null","stimuli/sounds/dog_sound_B.wav","null","","","","","","",""
"","","","","","html-keyboard-response","60","2.0.0","108011","p7hgsjfsstb","ono","lynx","22","male","no","yes","0","4-5","null","","null","","","","","","",""
"","","","","","image-keyboard-response","61","2.0.0","108922","p7hgsjfsstb","ono","lynx","22","male","no","yes","0","4-5","909","stimuli/pictures/motor_harley_1.jpg","0","0","","true","no","sound","stimuli/sounds/dog_sound_B.wav",""
"","","","","","audio-keyboard-response","62","2.0.0","109925","p7hgsjfsstb","ono","lynx","22","male","no","yes","0","4-5","null","stimuli/sounds/bleep.wav","null","","","","","","",""
"","","","","","html-keyboard-response","63","2.0.0","111255","p7hgsjfsstb","ono","lynx","22","male","no","yes","0","4-5","1228","<div style=""font-size:30px;"">Press space to start the trial</div>"," ","","","","","","",""
"","","","","","html-keyboard-response","64","2.0.0","111508","p7hgsjfsstb","ono","lynx","22","male","no","yes","0","4-5","null","<div style=""font-size:60px;"">+</div>","null","","","","","","",""
"","","","","","audio-keyboard-response","65","2.0.0","112112","p7hgsjfsstb","ono","lynx","22","male","no","yes","0","4-5","null","stimuli/sounds/motor_sound_B.wav","null","","","","","","",""
"","","","","","html-keyboard-response","66","2.0.0","113114","p7hgsjfsstb","ono","lynx","22","male","no","yes","0","4-5","null","","null","","","","","","",""
"","","","","","image-keyboard-response","67","2.0.0","114024","p7hgsjfsstb","ono","lynx","22","male","no","yes","0","4-5","909","stimuli/pictures/cough_wom_1.jpg","0","0","","true","no","sound","stimuli/sounds/motor_sound_B.wav",""
"","","","","","audio-keyboard-response","68","2.0.0","115027","p7hgsjfsstb","ono","lynx","22","male","no","yes","0","4-5","null","stimuli/sounds/bleep.wav","null","","","","","","",""
"","","","","","html-keyboard-response","69","2.0.0","116188","p7hgsjfsstb","ono","lynx","22","male","no","yes","0","4-5","1059","<div style=""font-size:30px;"">Press space to start the trial</div>"," ","","","","","","",""
"","","","","","html-keyboard-response","70","2.0.0","116441","p7hgsjfsstb","ono","lynx","22","male","no","yes","0","4-5","null","<div style=""font-size:60px;"">+</div>","null","","","","","","",""
"","","","","","audio-keyboard-response","71","2.0.0","117077","p7hgsjfsstb","ono","lynx","22","male","no","yes","0","4-5","null","stimuli/sounds/cough_label_A.wav","null","","","","","","",""
"","","","","","html-keyboard-response","72","2.0.0","118079","p7hgsjfsstb","ono","lynx","22","male","no","yes","0","4-5","null","","null","","","","","","",""
"","","","","","image-keyboard-response","73","2.0.0","119218","p7hgsjfsstb","ono","lynx","22","male","no","yes","0","4-5","1137","stimuli/pictures/motor_harley_2.jpg","0","0","","true","no","sound","stimuli/sounds/cough_label_A.wav",""
"","","","","","audio-keyboard-response","74","2.0.0","120221","p7hgsjfsstb","ono","lynx","22","male","no","yes","0","4-5","null","stimuli/sounds/bleep.wav","null","","","","","","",""
"","","","","","html-keyboard-response","75","2.0.0","120949","p7hgsjfsstb","ono","lynx","22","male","no","yes","0","4-5","625","<div style=""font-size:30px;"">Press space to start the trial</div>"," ","","","","","","",""
"","","","","","html-keyboard-response","76","2.0.0","121201","p7hgsjfsstb","ono","lynx","22","male","no","yes","0","4-5","null","<div style=""font-size:60px;"">+</div>","null","","","","","","",""
"","","","","","audio-keyboard-response","77","2.0.0","121802","p7hgsjfsstb","ono","lynx","22","male","no","yes","0","4-5","null","stimuli/sounds/hiccup_sound_B.wav","null","","","","","","",""
"","","","","","html-keyboard-response","78","2.0.0","122805","p7hgsjfsstb","ono","lynx","22","male","no","yes","0","4-5","null","","null","","","","","","",""
"","","","","","image-keyboard-response","79","2.0.0","123747","p7hgsjfsstb","ono","lynx","22","male","no","yes","0","4-5","941","stimuli/pictures/drop_multi_2.jpg","0","0","","true","no","sound","stimuli/sounds/hiccup_sound_B.wav",""
"","","","","","audio-keyboard-response","80","2.0.0","124749","p7hgsjfsstb","ono","lynx","22","male","no","yes","0","4-5","null","stimuli/sounds/bleep.wav","null","","","","","","",""
"","","","","","html-keyboard-response","81","2.0.0","125706","p7hgsjfsstb","ono","lynx","22","male","no","yes","0","4-5","854","<div style=""font-size:30px;"">Press space to start the trial</div>"," ","","","","","","",""
"","","","","","html-keyboard-response","82","2.0.0","125958","p7hgsjfsstb","ono","lynx","22","male","no","yes","0","4-5","null","<div style=""font-size:60px;"">+</div>","null","","","","","","",""
"","","","","","audio-keyboard-response","83","2.0.0","126560","p7hgsjfsstb","ono","lynx","22","male","no","yes","0","4-5","null","stimuli/sounds/dog_label_B.wav","null","","","","","","",""
"","","","","","html-keyboard-response","84","2.0.0","127563","p7hgsjfsstb","ono","lynx","22","male","no","yes","0","4-5","null","","null","","","","","","",""
"","","","","","image-keyboard-response","85","2.0.0","128447","p7hgsjfsstb","ono","lynx","22","male","no","yes","0","4-5","882","stimuli/pictures/cough_wom_1.jpg","0","0","","true","no","sound","stimuli/sounds/dog_label_B.wav",""
"","","","","","audio-keyboard-response","86","2.0.0","129450","p7hgsjfsstb","ono","lynx","22","male","no","yes","0","4-5","null","stimuli/sounds/bleep.wav","null","","","","","","",""
"","","","","","html-keyboard-response","87","2.0.0","130264","p7hgsjfsstb","ono","lynx","22","male","no","yes","0","4-5","711","<div style=""font-size:30px;"">Press space to start the trial</div>"," ","","","","","","",""
"","","","","","html-keyboard-response","88","2.0.0","130516","p7hgsjfsstb","ono","lynx","22","male","no","yes","0","4-5","null","<div style=""font-size:60px;"">+</div>","null","","","","","","",""
"","","","","","audio-keyboard-response","89","2.0.0","131152","p7hgsjfsstb","ono","lynx","22","male","no","yes","0","4-5","null","stimuli/sounds/cough_label_A.wav","null","","","","","","",""
"","","","","","html-keyboard-response","90","2.0.0","132155","p7hgsjfsstb","ono","lynx","22","male","no","yes","0","4-5","null","","null","","","","","","",""
"","","","","","image-keyboard-response","91","2.0.0","132746","p7hgsjfsstb","ono","lynx","22","male","no","yes","0","4-5","590","stimuli/pictures/cough_wom_2.jpg","1","1","","true","yes","sound","stimuli/sounds/cough_label_A.wav",""
"","","","","","audio-keyboard-response","92","2.0.0","133749","p7hgsjfsstb","ono","lynx","22","male","no","yes","0","4-5","null","stimuli/sounds/bleep.wav","null","","","","","","",""
"","","","","","html-keyboard-response","93","2.0.0","134606","p7hgsjfsstb","ono","lynx","22","male","no","yes","0","4-5","754","<div style=""font-size:30px;"">Press space to start the trial</div>"," ","","","","","","",""
"","","","","","html-keyboard-response","94","2.0.0","134858","p7hgsjfsstb","ono","lynx","22","male","no","yes","0","4-5","null","<div style=""font-size:60px;"">+</div>","null","","","","","","",""
"","","","","","audio-keyboard-response","95","2.0.0","135525","p7hgsjfsstb","ono","lynx","22","male","no","yes","0","4-5","null","stimuli/sounds/cough_sound_A.wav","null","","","","","","",""
"","","","","","html-keyboard-response","96","2.0.0","136528","p7hgsjfsstb","ono","lynx","22","male","no","yes","0","4-5","null","","null","","","","","","",""
"","","","","","image-keyboard-response","97","2.0.0","137814","p7hgsjfsstb","ono","lynx","22","male","no","yes","0","4-5","1282","stimuli/pictures/cough_wom_1.jpg","1","1","","true","yes","sound","stimuli/sounds/cough_sound_A.wav",""
"","","","","","audio-keyboard-response","98","2.0.0","138817","p7hgsjfsstb","ono","lynx","22","male","no","yes","0","4-5","null","stimuli/sounds/bleep.wav","null","","","","","","",""
"","","","","","html-keyboard-response","99","2.0.0","139568","p7hgsjfsstb","ono","lynx","22","male","no","yes","0","4-5","647","<div style=""font-size:30px;"">Press space to start the trial</div>"," ","","","","","","",""
"","","","","","html-keyboard-response","100","2.0.0","139821","p7hgsjfsstb","ono","lynx","22","male","no","yes","0","4-5","null","<div style=""font-size:60px;"">+</div>","null","","","","","","",""
"","","","","","audio-keyboard-response","101","2.0.0","140421","p7hgsjfsstb","ono","lynx","22","male","no","yes","0","4-5","null","stimuli/sounds/motor_sound_A.wav","null","","","","","","",""
"","","","","","html-keyboard-response","102","2.0.0","141424","p7hgsjfsstb","ono","lynx","22","male","no","yes","0","4-5","null","","null","","","","","","",""
"","","","","","image-keyboard-response","103","2.0.0","142013","p7hgsjfsstb","ono","lynx","22","male","no","yes","0","4-5","586","stimuli/pictures/motor_harley_2.jpg","0","1","","false","no","sound","stimuli/sounds/motor_sound_A.wav",""
"","","","","","audio-keyboard-response","104","2.0.0","143017","p7hgsjfsstb","ono","lynx","22","male","no","yes","0","4-5","null","stimuli/sounds/buzz.wav","null","","","","","","",""
"","","","","","html-keyboard-response","105","2.0.0","143764","p7hgsjfsstb","ono","lynx","22","male","no","yes","0","4-5","644","<div style=""font-size:30px;"">Press space to start the trial</div>"," ","","","","","","",""
"","","","","","html-keyboard-response","106","2.0.0","144017","p7hgsjfsstb","ono","lynx","22","male","no","yes","0","4-5","null","<div style=""font-size:60px;"">+</div>","null","","","","","","",""
"","","","","","audio-keyboard-response","107","2.0.0","144619","p7hgsjfsstb","ono","lynx","22","male","no","yes","0","4-5","null","stimuli/sounds/motor_label_B.wav","null","","","","","","",""
"","","","","","html-keyboard-response","108","2.0.0","145621","p7hgsjfsstb","ono","lynx","22","male","no","yes","0","4-5","null","","null","","","","","","",""
"","","","","","image-keyboard-response","109","2.0.0","146115","p7hgsjfsstb","ono","lynx","22","male","no","yes","0","4-5","491","stimuli/pictures/motor_harley_2.jpg","1","1","","true","yes","sound","stimuli/sounds/motor_label_B.wav",""
"","","","","","audio-keyboard-response","110","2.0.0","147119","p7hgsjfsstb","ono","lynx","22","male","no","yes","0","4-5","null","stimuli/sounds/bleep.wav","null","","","","","","",""
"","","","","","html-keyboard-response","111","2.0.0","147796","p7hgsjfsstb","ono","lynx","22","male","no","yes","0","4-5","574","<div style=""font-size:30px;"">Press space to start the trial</div>"," ","","","","","","",""
"","","","","","html-keyboard-response","112","2.0.0","148048","p7hgsjfsstb","ono","lynx","22","male","no","yes","0","4-5","null","<div style=""font-size:60px;"">+</div>","null","","","","","","",""
"","","","","","audio-keyboard-response","113","2.0.0","148587","p7hgsjfsstb","ono","lynx","22","male","no","yes","0","4-5","null","stimuli/sounds/hiccup_label_A.wav","null","","","","","","",""
"","","","","","html-keyboard-response","114","2.0.0","149589","p7hgsjfsstb","ono","lynx","22","male","no","yes","0","4-5","null","","null","","","","","","",""
"","","","","","image-keyboard-response","115","2.0.0","150907","p7hgsjfsstb","ono","lynx","22","male","no","yes","0","4-5","1316","stimuli/pictures/hiccup_man_2.jpg","1","1","","true","yes","sound","stimuli/sounds/hiccup_label_A.wav",""
"","","","","","audio-keyboard-response","116","2.0.0","151910","p7hgsjfsstb","ono","lynx","22","male","no","yes","0","4-5","null","stimuli/sounds/bleep.wav","null","","","","","","",""
"","","","","","html-keyboard-response","117","2.0.0","152619","p7hgsjfsstb","ono","lynx","22","male","no","yes","0","4-5","606","<div style=""font-size:30px;"">Press space to start the trial</div>"," ","","","","","","",""
"","","","","","html-keyboard-response","118","2.0.0","152872","p7hgsjfsstb","ono","lynx","22","male","no","yes","0","4-5","null","<div style=""font-size:60px;"">+</div>","null","","","","","","",""
"","","","","","audio-keyboard-response","119","2.0.0","153504","p7hgsjfsstb","ono","lynx","22","male","no","yes","0","4-5","null","stimuli/sounds/cough_label_A.wav","null","","","","","","",""
"","","","","","html-keyboard-response","120","2.0.0","154506","p7hgsjfsstb","ono","lynx","22","male","no","yes","0","4-5","null","","null","","","","","","",""
"","","","","","image-keyboard-response","121","2.0.0","155125","p7hgsjfsstb","ono","lynx","22","male","no","yes","0","4-5","618","stimuli/pictures/cough_man_2.jpg","1","1","","true","yes","sound","stimuli/sounds/cough_label_A.wav",""
"","","","","","audio-keyboard-response","122","2.0.0","156129","p7hgsjfsstb","ono","lynx","22","male","no","yes","0","4-5","null","stimuli/sounds/bleep.wav","null","","","","","","",""
"","","","","","html-keyboard-response","123","2.0.0","156751","p7hgsjfsstb","ono","lynx","22","male","no","yes","0","4-5","519","<div style=""font-size:30px;"">Press space to start the trial</div>"," ","","","","","","",""
"","","","","","html-keyboard-response","124","2.0.0","157004","p7hgsjfsstb","ono","lynx","22","male","no","yes","0","4-5","null","<div style=""font-size:60px;"">+</div>","null","","","","","","",""
"","","","","","audio-keyboard-response","125","2.0.0","157610","p7hgsjfsstb","ono","lynx","22","male","no","yes","0","4-5","null","stimuli/sounds/drop_sound_B.wav","null","","","","","","",""
"","","","","","html-keyboard-response","126","2.0.0","158613","p7hgsjfsstb","ono","lynx","22","male","no","yes","0","4-5","null","","null","","","","","","",""
"","","","","","image-keyboard-response","127","2.0.0","159667","p7hgsjfsstb","ono","lynx","22","male","no","yes","0","4-5","1052","stimuli/pictures/dog_york_1.jpg","0","0","","true","no","sound","stimuli/sounds/drop_sound_B.wav",""
"","","","","","audio-keyboard-response","128","2.0.0","160670","p7hgsjfsstb","ono","lynx","22","male","no","yes","0","4-5","null","stimuli/sounds/bleep.wav","null","","","","","","",""
"","","","","","html-keyboard-response","129","2.0.0","161763","p7hgsjfsstb","ono","lynx","22","male","no","yes","0","4-5","989","<div style=""font-size:30px;"">Press space to start the trial</div>"," ","","","","","","",""
"","","","","","html-keyboard-response","130","2.0.0","162015","p7hgsjfsstb","ono","lynx","22","male","no","yes","0","4-5","null","<div style=""font-size:60px;"">+</div>","null","","","","","","",""
"","","","","","audio-keyboard-response","131","2.0.0","162619","p7hgsjfsstb","ono","lynx","22","male","no","yes","0","4-5","null","stimuli/sounds/dog_label_B.wav","null","","","","","","",""
"","","","","","html-keyboard-response","132","2.0.0","163621","p7hgsjfsstb","ono","lynx","22","male","no","yes","0","4-5","null","","null","","","","","","",""
"","","","","","image-keyboard-response","133","2.0.0","164459","p7hgsjfsstb","ono","lynx","22","male","no","yes","0","4-5","835","stimuli/pictures/cough_man_2.jpg","0","0","","true","no","sound","stimuli/sounds/dog_label_B.wav",""
"","","","","","audio-keyboard-response","134","2.0.0","165462","p7hgsjfsstb","ono","lynx","22","male","no","yes","0","4-5","null","stimuli/sounds/bleep.wav","null","","","","","","",""
"","","","","","html-keyboard-response","135","2.0.0","166564","p7hgsjfsstb","ono","lynx","22","male","no","yes","0","4-5","998","<div style=""font-size:30px;"">Press space to start the trial</div>"," ","","","","","","",""
"","","","","","html-keyboard-response","136","2.0.0","166816","p7hgsjfsstb","ono","lynx","22","male","no","yes","0","4-5","null","<div style=""font-size:60px;"">+</div>","null","","","","","","",""
"","","","","","audio-keyboard-response","137","2.0.0","167419","p7hgsjfsstb","ono","lynx","22","male","no","yes","0","4-5","null","stimuli/sounds/motor_label_A.wav","null","","","","","","",""
"","","","","","html-keyboard-response","138","2.0.0","168421","p7hgsjfsstb","ono","lynx","22","male","no","yes","0","4-5","null","","null","","","","","","",""
"","","","","","image-keyboard-response","139","2.0.0","168907","p7hgsjfsstb","ono","lynx","22","male","no","yes","0","4-5","484","stimuli/pictures/motor_harley_2.jpg","1","1","","true","yes","sound","stimuli/sounds/motor_label_A.wav",""
"","","","","","audio-keyboard-response","140","2.0.0","169909","p7hgsjfsstb","ono","lynx","22","male","no","yes","0","4-5","null","stimuli/sounds/bleep.wav","null","","","","","","",""
"","","","","","html-keyboard-response","141","2.0.0","170880","p7hgsjfsstb","ono","lynx","22","male","no","yes","0","4-5","868","<div style=""font-size:30px;"">Press space to start the trial</div>"," ","","","","","","",""
"","","","","","html-keyboard-response","142","2.0.0","171133","p7hgsjfsstb","ono","lynx","22","male","no","yes","0","4-5","null","<div style=""font-size:60px;"">+</div>","null","","","","","","",""
"","","","","","audio-keyboard-response","143","2.0.0","171765","p7hgsjfsstb","ono","lynx","22","male","no","yes","0","4-5","null","stimuli/sounds/cough_label_A.wav","null","","","","","","",""
"","","","","","html-keyboard-response","144","2.0.0","172768","p7hgsjfsstb","ono","lynx","22","male","no","yes","0","4-5","null","","null","","","","","","",""
"","","","","","image-keyboard-response","145","2.0.0","173460","p7hgsjfsstb","ono","lynx","22","male","no","yes","0","4-5","690","stimuli/pictures/motor_dirt_1.jpg","0","0","","true","no","sound","stimuli/sounds/cough_label_A.wav",""
"","","","","","audio-keyboard-response","146","2.0.0","174462","p7hgsjfsstb","ono","lynx","22","male","no","yes","0","4-5","null","stimuli/sounds/bleep.wav","null","","","","","","",""
"","","","","","html-keyboard-response","147","2.0.0","178809","p7hgsjfsstb","ono","lynx","22","male","no","yes","0","4-5","4245","<p>You have completed a block. Press R when you are ready to continue</p>","r","","","","","","",""
"","","","","","html-keyboard-response","148","2.0.0","179443","p7hgsjfsstb","ono","lynx","22","male","no","yes","0","4-5","633","<div style=""font-size:30px;"">Press space to start the trial</div>"," ","","","","","","",""
"","","","","","html-keyboard-response","149","2.0.0","179696","p7hgsjfsstb","ono","lynx","22","male","no","yes","0","4-5","null","<div style=""font-size:60px;"">+</div>","null","","","","","","",""
"","","","","","audio-keyboard-response","150","2.0.0","180304","p7hgsjfsstb","ono","lynx","22","male","no","yes","0","4-5","null","stimuli/sounds/hiccup_label_B.wav","null","","","","","","",""
"","","","","","html-keyboard-response","151","2.0.0","181307","p7hgsjfsstb","ono","lynx","22","male","no","yes","0","4-5","null","","null","","","","","","",""
"","","","","","image-keyboard-response","152","2.0.0","181997","p7hgsjfsstb","ono","lynx","22","male","no","yes","0","4-5","689","stimuli/pictures/dog_rott_1.jpg","0","0","","true","no","sound","stimuli/sounds/hiccup_label_B.wav",""
"","","","","","audio-keyboard-response","153","2.0.0","183001","p7hgsjfsstb","ono","lynx","22","male","no","yes","0","4-5","null","stimuli/sounds/bleep.wav","null","","","","","","",""
"","","","","","html-keyboard-response","154","2.0.0","183799","p7hgsjfsstb","ono","lynx","22","male","no","yes","0","4-5","696","<div style=""font-size:30px;"">Press space to start the trial</div>"," ","","","","","","",""
"","","","","","html-keyboard-response","155","2.0.0","184052","p7hgsjfsstb","ono","lynx","22","male","no","yes","0","4-5","null","<div style=""font-size:60px;"">+</div>","null","","","","","","",""
"","","","","","audio-keyboard-response","156","2.0.0","184736","p7hgsjfsstb","ono","lynx","22","male","no","yes","0","4-5","null","stimuli/sounds/cough_sound_B.wav","null","","","","","","",""
"","","","","","html-keyboard-response","157","2.0.0","185739","p7hgsjfsstb","ono","lynx","22","male","no","yes","0","4-5","null","","null","","","","","","",""
"","","","","","image-keyboard-response","158","2.0.0","186952","p7hgsjfsstb","ono","lynx","22","male","no","yes","0","4-5","1212","stimuli/pictures/hiccup_wom_2.jpg","1","0","","false","no","sound","stimuli/sounds/cough_sound_B.wav",""
"","","","","","audio-keyboard-response","159","2.0.0","187955","p7hgsjfsstb","ono","lynx","22","male","no","yes","0","4-5","null","stimuli/sounds/buzz.wav","null","","","","","","",""
"","","","","","html-keyboard-response","160","2.0.0","189311","p7hgsjfsstb","ono","lynx","22","male","no","yes","0","4-5","1252","<div style=""font-size:30px;"">Press space to start the trial</div>"," ","","","","","","",""
"","","","","","html-keyboard-response","161","2.0.0","189563","p7hgsjfsstb","ono","lynx","22","male","no","yes","0","4-5","null","<div style=""font-size:60px;"">+</div>","null","","","","","","",""
"","","","","","audio-keyboard-response","162","2.0.0","190165","p7hgsjfsstb","ono","lynx","22","male","no","yes","0","4-5","null","stimuli/sounds/motor_label_B.wav","null","","","","","","",""
"","","","","","html-keyboard-response","163","2.0.0","191169","p7hgsjfsstb","ono","lynx","22","male","no","yes","0","4-5","null","","null","","","","","","",""
"","","","","","image-keyboard-response","164","2.0.0","191925","p7hgsjfsstb","ono","lynx","22","male","no","yes","0","4-5","755","stimuli/pictures/hiccup_man_2.jpg","0","0","","true","no","sound","stimuli/sounds/motor_label_B.wav",""
"","","","","","audio-keyboard-response","165","2.0.0","192928","p7hgsjfsstb","ono","lynx","22","male","no","yes","0","4-5","null","stimuli/sounds/bleep.wav","null","","","","","","",""
"","","","","","html-keyboard-response","166","2.0.0","193624","p7hgsjfsstb","ono","lynx","22","male","no","yes","0","4-5","594","<div style=""font-size:30px;"">Press space to start the trial</div>"," ","","","","","","",""
"","","","","","html-keyboard-response","167","2.0.0","193877","p7hgsjfsstb","ono","lynx","22","male","no","yes","0","4-5","null","<div style=""font-size:60px;"">+</div>","null","","","","","","",""
"","","","","","audio-keyboard-response","168","2.0.0","194480","p7hgsjfsstb","ono","lynx","22","male","no","yes","0","4-5","null","stimuli/sounds/motor_sound_B.wav","null","","","","","","",""
"","","","","","html-keyboard-response","169","2.0.0","195483","p7hgsjfsstb","ono","lynx","22","male","no","yes","0","4-5","null","","null","","","","","","",""
"","","","","","image-keyboard-response","170","2.0.0","196749","p7hgsjfsstb","ono","lynx","22","male","no","yes","0","4-5","1264","stimuli/pictures/cough_man_1.jpg","0","0","","true","no","sound","stimuli/sounds/motor_sound_B.wav",""
"","","","","","audio-keyboard-response","171","2.0.0","197752","p7hgsjfsstb","ono","lynx","22","male","no","yes","0","4-5","null","stimuli/sounds/bleep.wav","null","","","","","","",""
"","","","","","html-keyboard-response","172","2.0.0","198444","p7hgsjfsstb","ono","lynx","22","male","no","yes","0","4-5","589","<div style=""font-size:30px;"">Press space to start the trial</div>"," ","","","","","","",""
"","","","","","html-keyboard-response","173","2.0.0","198697","p7hgsjfsstb","ono","lynx","22","male","no","yes","0","4-5","null","<div style=""font-size:60px;"">+</div>","null","","","","","","",""
"","","","","","audio-keyboard-response","174","2.0.0","199301","p7hgsjfsstb","ono","lynx","22","male","no","yes","0","4-5","null","stimuli/sounds/drop_sound_B.wav","null","","","","","","",""
"","","","","","html-keyboard-response","175","2.0.0","200304","p7hgsjfsstb","ono","lynx","22","male","no","yes","0","4-5","null","","null","","","","","","",""
"","","","","","image-keyboard-response","176","2.0.0","200956","p7hgsjfsstb","ono","lynx","22","male","no","yes","0","4-5","651","stimuli/pictures/dog_york_2.jpg","0","0","","true","no","sound","stimuli/sounds/drop_sound_B.wav",""
"","","","","","audio-keyboard-response","177","2.0.0","201959","p7hgsjfsstb","ono","lynx","22","male","no","yes","0","4-5","null","stimuli/sounds/bleep.wav","null","","","","","","",""
"","","","","","html-keyboard-response","178","2.0.0","202613","p7hgsjfsstb","ono","lynx","22","male","no","yes","0","4-5","552","<div style=""font-size:30px;"">Press space to start the trial</div>"," ","","","","","","",""
"","","","","","html-keyboard-response","179","2.0.0","202865","p7hgsjfsstb","ono","lynx","22","male","no","yes","0","4-5","null","<div style=""font-size:60px;"">+</div>","null","","","","","","",""
"","","","","","audio-keyboard-response","180","2.0.0","203472","p7hgsjfsstb","ono","lynx","22","male","no","yes","0","4-5","null","stimuli/sounds/drop_sound_B.wav","null","","","","","","",""
"","","","","","html-keyboard-response","181","2.0.0","204475","p7hgsjfsstb","ono","lynx","22","male","no","yes","0","4-5","null","","null","","","","","","",""
"","","","","","image-keyboard-response","182","2.0.0","205096","p7hgsjfsstb","ono","lynx","22","male","no","yes","0","4-5","619","stimuli/pictures/drop_single_1.jpg","1","1","","true","no","sound","stimuli/sounds/drop_sound_B.wav",""
"","","","","","audio-keyboard-response","183","2.0.0","206099","p7hgsjfsstb","ono","lynx","22","male","no","yes","0","4-5","null","stimuli/sounds/bleep.wav","null","","","","","","",""
"","","","","","html-keyboard-response","184","2.0.0","206697","p7hgsjfsstb","ono","lynx","22","male","no","yes","0","4-5","496","<div style=""font-size:30px;"">Press space to start the trial</div>"," ","","","","","","",""
"","","","","","html-keyboard-response","185","2.0.0","206950","p7hgsjfsstb","ono","lynx","22","male","no","yes","0","4-5","null","<div style=""font-size:60px;"">+</div>","null","","","","","","",""
"","","","","","audio-keyboard-response","186","2.0.0","207557","p7hgsjfsstb","ono","lynx","22","male","no","yes","0","4-5","null","stimuli/sounds/hiccup_label_B.wav","null","","","","","","",""
"","","","","","html-keyboard-response","187","2.0.0","208558","p7hgsjfsstb","ono","lynx","22","male","no","yes","0","4-5","null","","null","","","","","","",""
"","","","","","image-keyboard-response","188","2.0.0","209191","p7hgsjfsstb","ono","lynx","22","male","no","yes","0","4-5","631","stimuli/pictures/hiccup_man_2.jpg","0","1","","false","yes","sound","stimuli/sounds/hiccup_label_B.wav",""
"","","","","","audio-keyboard-response","189","2.0.0","210194","p7hgsjfsstb","ono","lynx","22","male","no","yes","0","4-5","null","stimuli/sounds/buzz.wav","null","","","","","","",""
"","","","","","html-keyboard-response","190","2.0.0","212028","p7hgsjfsstb","ono","lynx","22","male","no","yes","0","4-5","1731","<div style=""font-size:30px;"">Press space to start the trial</div>"," ","","","","","","",""
"","","","","","html-keyboard-response","191","2.0.0","212279","p7hgsjfsstb","ono","lynx","22","male","no","yes","0","4-5","null","<div style=""font-size:60px;"">+</div>","null","","","","","","",""
"","","","","","audio-keyboard-response","192","2.0.0","212891","p7hgsjfsstb","ono","lynx","22","male","no","yes","0","4-5","null","stimuli/sounds/drop_label_B.wav","null","","","","","","",""
"","","","","","html-keyboard-response","193","2.0.0","213894","p7hgsjfsstb","ono","lynx","22","male","no","yes","0","4-5","null","","null","","","","","","",""
"","","","","","image-keyboard-response","194","2.0.0","214697","p7hgsjfsstb","ono","lynx","22","male","no","yes","0","4-5","801","stimuli/pictures/drop_single_2.jpg","1","1","","true","yes","sound","stimuli/sounds/drop_label_B.wav",""
"","","","","","audio-keyboard-response","195","2.0.0","215701","p7hgsjfsstb","ono","lynx","22","male","no","yes","0","4-5","null","stimuli/sounds/bleep.wav","null","","","","","","",""
"","","","","","html-keyboard-response","196","2.0.0","216987","p7hgsjfsstb","ono","lynx","22","male","no","yes","0","4-5","1183","<div style=""font-size:30px;"">Press space to start the trial</div>"," ","","","","","","",""
"","","","","","html-keyboard-response","197","2.0.0","217240","p7hgsjfsstb","ono","lynx","22","male","no","yes","0","4-5","null","<div style=""font-size:60px;"">+</div>","null","","","","","","",""
"","","","","","audio-keyboard-response","198","2.0.0","217840","p7hgsjfsstb","ono","lynx","22","male","no","yes","0","4-5","null","stimuli/sounds/motor_label_A.wav","null","","","","","","",""
"","","","","","html-keyboard-response","199","2.0.0","218843","p7hgsjfsstb","ono","lynx","22","male","no","yes","0","4-5","null","","null","","","","","","",""
"","","","","","image-keyboard-response","200","2.0.0","219840","p7hgsjfsstb","ono","lynx","22","male","no","yes","0","4-5","996","stimuli/pictures/motor_harley_1.jpg","1","1","","true","yes","sound","stimuli/sounds/motor_label_A.wav",""
"","","","","","audio-keyboard-response","201","2.0.0","220844","p7hgsjfsstb","ono","lynx","22","male","no","yes","0","4-5","null","stimuli/sounds/bleep.wav","null","","","","","","",""
"","","","","","html-keyboard-response","202","2.0.0","221699","p7hgsjfsstb","ono","lynx","22","male","no","yes","0","4-5","752","<div style=""font-size:30px;"">Press space to start the trial</div>"," ","","","","","","",""
"","","","","","html-keyboard-response","203","2.0.0","221952","p7hgsjfsstb","ono","lynx","22","male","no","yes","0","4-5","null","<div style=""font-size:60px;"">+</div>","null","","","","","","",""
"","","","","","audio-keyboard-response","204","2.0.0","222560","p7hgsjfsstb","ono","lynx","22","male","no","yes","0","4-5","null","stimuli/sounds/cough_label_B.wav","null","","","","","","",""
"","","","","","html-keyboard-response","205","2.0.0","223563","p7hgsjfsstb","ono","lynx","22","male","no","yes","0","4-5","null","","null","","","","","","",""
"","","","","","image-keyboard-response","206","2.0.0","224419","p7hgsjfsstb","ono","lynx","22","male","no","yes","0","4-5","854","stimuli/pictures/drop_single_2.jpg","0","0","","true","no","sound","stimuli/sounds/cough_label_B.wav",""
"","","","","","audio-keyboard-response","207","2.0.0","225423","p7hgsjfsstb","ono","lynx","22","male","no","yes","0","4-5","null","stimuli/sounds/bleep.wav","null","","","","","","",""
"","","","","","html-keyboard-response","208","2.0.0","226034","p7hgsjfsstb","ono","lynx","22","male","no","yes","0","4-5","509","<div style=""font-size:30px;"">Press space to start the trial</div>"," ","","","","","","",""
"","","","","","html-keyboard-response","209","2.0.0","226287","p7hgsjfsstb","ono","lynx","22","male","no","yes","0","4-5","null","<div style=""font-size:60px;"">+</div>","null","","","","","","",""
"","","","","","audio-keyboard-response","210","2.0.0","226891","p7hgsjfsstb","ono","lynx","22","male","no","yes","0","4-5","null","stimuli/sounds/motor_label_B.wav","null","","","","","","",""
"","","","","","html-keyboard-response","211","2.0.0","227894","p7hgsjfsstb","ono","lynx","22","male","no","yes","0","4-5","null","","null","","","","","","",""
"","","","","","image-keyboard-response","212","2.0.0","228683","p7hgsjfsstb","ono","lynx","22","male","no","yes","0","4-5","788","stimuli/pictures/motor_dirt_2.jpg","1","1","","true","yes","sound","stimuli/sounds/motor_label_B.wav",""
"","","","","","audio-keyboard-response","213","2.0.0","229686","p7hgsjfsstb","ono","lynx","22","male","no","yes","0","4-5","null","stimuli/sounds/bleep.wav","null","","","","","","",""
"","","","","","html-keyboard-response","214","2.0.0","230280","p7hgsjfsstb","ono","lynx","22","male","no","yes","0","4-5","490","<div style=""font-size:30px;"">Press space to start the trial</div>"," ","","","","","","",""
"","","","","","html-keyboard-response","215","2.0.0","230532","p7hgsjfsstb","ono","lynx","22","male","no","yes","0","4-5","null","<div style=""font-size:60px;"">+</div>","null","","","","","","",""
"","","","","","audio-keyboard-response","216","2.0.0","231141","p7hgsjfsstb","ono","lynx","22","male","no","yes","0","4-5","null","stimuli/sounds/hiccup_sound_A.wav","null","","","","","","",""
"","","","","","html-keyboard-response","217","2.0.0","232144","p7hgsjfsstb","ono","lynx","22","male","no","yes","0","4-5","null","","null","","","","","","",""
"","","","","","image-keyboard-response","218","2.0.0","233182","p7hgsjfsstb","ono","lynx","22","male","no","yes","0","4-5","1037","stimuli/pictures/hiccup_wom_2.jpg","0","1","","false","yes","sound","stimuli/sounds/hiccup_sound_A.wav",""
"","","","","","audio-keyboard-response","219","2.0.0","234185","p7hgsjfsstb","ono","lynx","22","male","no","yes","0","4-5","null","stimuli/sounds/buzz.wav","null","","","","","","",""
"","","","","","html-keyboard-response","220","2.0.0","235116","p7hgsjfsstb","ono","lynx","22","male","no","yes","0","4-5","828","<div style=""font-size:30px;"">Press space to start the trial</div>"," ","","","","","","",""
"","","","","","html-keyboard-response","221","2.0.0","235368","p7hgsjfsstb","ono","lynx","22","male","no","yes","0","4-5","null","<div style=""font-size:60px;"">+</div>","null","","","","","","",""
"","","","","","audio-keyboard-response","222","2.0.0","235968","p7hgsjfsstb","ono","lynx","22","male","no","yes","0","4-5","null","stimuli/sounds/dog_sound_B.wav","null","","","","","","",""
"","","","","","html-keyboard-response","223","2.0.0","236971","p7hgsjfsstb","ono","lynx","22","male","no","yes","0","4-5","null","","null","","","","","","",""
"","","","","","image-keyboard-response","224","2.0.0","237934","p7hgsjfsstb","ono","lynx","22","male","no","yes","0","4-5","962","stimuli/pictures/dog_rott_2.jpg","1","1","","true","no","sound","stimuli/sounds/dog_sound_B.wav",""
"","","","","","audio-keyboard-response","225","2.0.0","238937","p7hgsjfsstb","ono","lynx","22","male","no","yes","0","4-5","null","stimuli/sounds/bleep.wav","null","","","","","","",""
"","","","","","html-keyboard-response","226","2.0.0","239569","p7hgsjfsstb","ono","lynx","22","male","no","yes","0","4-5","528","<div style=""font-size:30px;"">Press space to start the trial</div>"," ","","","","","","",""
"","","","","","html-keyboard-response","227","2.0.0","239821","p7hgsjfsstb","ono","lynx","22","male","no","yes","0","4-5","null","<div style=""font-size:60px;"">+</div>","null","","","","","","",""
"","","","","","audio-keyboard-response","228","2.0.0","240421","p7hgsjfsstb","ono","lynx","22","male","no","yes","0","4-5","null","stimuli/sounds/dog_label_A.wav","null","","","","","","",""
"","","","","","html-keyboard-response","229","2.0.0","241425","p7hgsjfsstb","ono","lynx","22","male","no","yes","0","4-5","null","","null","","","","","","",""
"","","","","","image-keyboard-response","230","2.0.0","241927","p7hgsjfsstb","ono","lynx","22","male","no","yes","0","4-5","500","stimuli/pictures/dog_york_2.jpg","1","1","","true","yes","sound","stimuli/sounds/dog_label_A.wav",""
"","","","","","audio-keyboard-response","231","2.0.0","242929","p7hgsjfsstb","ono","lynx","22","male","no","yes","0","4-5","null","stimuli/sounds/bleep.wav","null","","","","","","",""
"","","","","","html-keyboard-response","232","2.0.0","243447","p7hgsjfsstb","ono","lynx","22","male","no","yes","0","4-5","415","<div style=""font-size:30px;"">Press space to start the trial</div>"," ","","","","","","",""
"","","","","","html-keyboard-response","233","2.0.0","243700","p7hgsjfsstb","ono","lynx","22","male","no","yes","0","4-5","null","<div style=""font-size:60px;"">+</div>","null","","","","","","",""
"","","","","","audio-keyboard-response","234","2.0.0","244304","p7hgsjfsstb","ono","lynx","22","male","no","yes","0","4-5","null","stimuli/sounds/dog_sound_B.wav","null","","","","","","",""
"","","","","","html-keyboard-response","235","2.0.0","245306","p7hgsjfsstb","ono","lynx","22","male","no","yes","0","4-5","null","","null","","","","","","",""
"","","","","","image-keyboard-response","236","2.0.0","245820","p7hgsjfsstb","ono","lynx","22","male","no","yes","0","4-5","511","stimuli/pictures/motor_dirt_2.jpg","0","0","","true","no","sound","stimuli/sounds/dog_sound_B.wav",""
"","","","","","audio-keyboard-response","237","2.0.0","246567","p7hgsjfsstb","ono","lynx","22","male","no","yes","0","4-5","747","stimuli/sounds/bleep.wav"," ","","","","","","",""
"","","","","","html-keyboard-response","238","2.0.0","247207","p7hgsjfsstb","ono","lynx","22","male","no","yes","0","4-5","538","<div style=""font-size:30px;"">Press space to start the trial</div>"," ","","","","","","",""
"","","","","","html-keyboard-response","239","2.0.0","247459","p7hgsjfsstb","ono","lynx","22","male","no","yes","0","4-5","null","<div style=""font-size:60px;"">+</div>","null","","","","","","",""
"","","","","","audio-keyboard-response","240","2.0.0","248059","p7hgsjfsstb","ono","lynx","22","male","no","yes","0","4-5","null","stimuli/sounds/motor_sound_A.wav","null","","","","","","",""
"","","","","","html-keyboard-response","241","2.0.0","249061","p7hgsjfsstb","ono","lynx","22","male","no","yes","0","4-5","null","","null","","","","","","",""
"","","","","","image-keyboard-response","242","2.0.0","249487","p7hgsjfsstb","ono","lynx","22","male","no","yes","0","4-5","425","stimuli/pictures/motor_harley_1.jpg","1","1","","true","no","sound","stimuli/sounds/motor_sound_A.wav",""
"","","","","","audio-keyboard-response","243","2.0.0","250490","p7hgsjfsstb","ono","lynx","22","male","no","yes","0","4-5","null","stimuli/sounds/bleep.wav","null","","","","","","",""
"","","","","","html-keyboard-response","244","2.0.0","251068","p7hgsjfsstb","ono","lynx","22","male","no","yes","0","4-5","475","<div style=""font-size:30px;"">Press space to start the trial</div>"," ","","","","","","",""
"","","","","","html-keyboard-response","245","2.0.0","251320","p7hgsjfsstb","ono","lynx","22","male","no","yes","0","4-5","null","<div style=""font-size:60px;"">+</div>","null","","","","","","",""
"","","","","","audio-keyboard-response","246","2.0.0","251920","p7hgsjfsstb","ono","lynx","22","male","no","yes","0","4-5","null","stimuli/sounds/motor_sound_A.wav","null","","","","","","",""
"","","","","","html-keyboard-response","247","2.0.0","252923","p7hgsjfsstb","ono","lynx","22","male","no","yes","0","4-5","null","","null","","","","","","",""
"","","","","","image-keyboard-response","248","2.0.0","253456","p7hgsjfsstb","ono","lynx","22","male","no","yes","0","4-5","532","stimuli/pictures/drop_multi_1.jpg","0","0","","true","no","sound","stimuli/sounds/motor_sound_A.wav",""
"","","","","","audio-keyboard-response","249","2.0.0","254459","p7hgsjfsstb","ono","lynx","22","male","no","yes","0","4-5","null","stimuli/sounds/bleep.wav","null","","","","","","",""
"","","","","","html-keyboard-response","250","2.0.0","255293","p7hgsjfsstb","ono","lynx","22","male","no","yes","0","4-5","731","<div style=""font-size:30px;"">Press space to start the trial</div>"," ","","","","","","",""
"","","","","","html-keyboard-response","251","2.0.0","255546","p7hgsjfsstb","ono","lynx","22","male","no","yes","0","4-5","null","<div style=""font-size:60px;"">+</div>","null","","","","","","",""
"","","","","","audio-keyboard-response","252","2.0.0","256149","p7hgsjfsstb","ono","lynx","22","male","no","yes","0","4-5","null","stimuli/sounds/motor_sound_A.wav","null","","","","","","",""
"","","","","","html-keyboard-response","253","2.0.0","257152","p7hgsjfsstb","ono","lynx","22","male","no","yes","0","4-5","null","","null","","","","","","",""
"","","","","","image-keyboard-response","254","2.0.0","257775","p7hgsjfsstb","ono","lynx","22","male","no","yes","0","4-5","622","stimuli/pictures/drop_multi_2.jpg","0","0","","true","no","sound","stimuli/sounds/motor_sound_A.wav",""
"","","","","","audio-keyboard-response","255","2.0.0","258778","p7hgsjfsstb","ono","lynx","22","male","no","yes","0","4-5","null","stimuli/sounds/bleep.wav","null","","","","","","",""
"","","","","","html-keyboard-response","256","2.0.0","259492","p7hgsjfsstb","ono","lynx","22","male","no","yes","0","4-5","611","<div style=""font-size:30px;"">Press space to start the trial</div>"," ","","","","","","",""
"","","","","","html-keyboard-response","257","2.0.0","259743","p7hgsjfsstb","ono","lynx","22","male","no","yes","0","4-5","null","<div style=""font-size:60px;"">+</div>","null","","","","","","",""
"","","","","","audio-keyboard-response","258","2.0.0","260347","p7hgsjfsstb","ono","lynx","22","male","no","yes","0","4-5","null","stimuli/sounds/motor_label_B.wav","null","","","","","","",""
"","","","","","html-keyboard-response","259","2.0.0","261348","p7hgsjfsstb","ono","lynx","22","male","no","yes","0","4-5","null","","null","","","","","","",""
"","","","","","image-keyboard-response","260","2.0.0","261880","p7hgsjfsstb","ono","lynx","22","male","no","yes","0","4-5","531","stimuli/pictures/hiccup_wom_1.jpg","0","0","","true","no","sound","stimuli/sounds/motor_label_B.wav",""
"","","","","","audio-keyboard-response","261","2.0.0","262883","p7hgsjfsstb","ono","lynx","22","male","no","yes","0","4-5","null","stimuli/sounds/bleep.wav","null","","","","","","",""
"","","","","","html-keyboard-response","262","2.0.0","263391","p7hgsjfsstb","ono","lynx","22","male","no","yes","0","4-5","406","<div style=""font-size:30px;"">Press space to start the trial</div>"," ","","","","","","",""
"","","","","","html-keyboard-response","263","2.0.0","263644","p7hgsjfsstb","ono","lynx","22","male","no","yes","0","4-5","null","<div style=""font-size:60px;"">+</div>","null","","","","","","",""
"","","","","","audio-keyboard-response","264","2.0.0","264309","p7hgsjfsstb","ono","lynx","22","male","no","yes","0","4-5","null","stimuli/sounds/cough_sound_A.wav","null","","","","","","",""
"","","","","","html-keyboard-response","265","2.0.0","265312","p7hgsjfsstb","ono","lynx","22","male","no","yes","0","4-5","null","","null","","","","","","",""
"","","","","","image-keyboard-response","266","2.0.0","265756","p7hgsjfsstb","ono","lynx","22","male","no","yes","0","4-5","443","stimuli/pictures/cough_man_1.jpg","1","1","","true","no","sound","stimuli/sounds/cough_sound_A.wav",""
"","","","","","audio-keyboard-response","267","2.0.0","266378","p7hgsjfsstb","ono","lynx","22","male","no","yes","0","4-5","624","stimuli/sounds/bleep.wav"," ","","","","","","",""
"","","","","","html-keyboard-response","268","2.0.0","268412","p7hgsjfsstb","ono","lynx","22","male","no","yes","0","4-5","1931","<p>You have completed a block. Press R when you are ready to continue</p>","r","","","","","","",""
"","","","","","html-keyboard-response","269","2.0.0","269247","p7hgsjfsstb","ono","lynx","22","male","no","yes","0","4-5","835","<div style=""font-size:30px;"">Press space to start the trial</div>"," ","","","","","","",""
"","","","","","html-keyboard-response","270","2.0.0","269498","p7hgsjfsstb","ono","lynx","22","male","no","yes","0","4-5","null","<div style=""font-size:60px;"">+</div>","null","","","","","","",""
"","","","","","audio-keyboard-response","271","2.0.0","270107","p7hgsjfsstb","ono","lynx","22","male","no","yes","0","4-5","null","stimuli/sounds/cough_label_B.wav","null","","","","","","",""
"","","","","","html-keyboard-response","272","2.0.0","271109","p7hgsjfsstb","ono","lynx","22","male","no","yes","0","4-5","null","","null","","","","","","",""
"","","","","","image-keyboard-response","273","2.0.0","271746","p7hgsjfsstb","ono","lynx","22","male","no","yes","0","4-5","634","stimuli/pictures/drop_multi_2.jpg","0","0","","true","no","sound","stimuli/sounds/cough_label_B.wav",""
"","","","","","audio-keyboard-response","274","2.0.0","272749","p7hgsjfsstb","ono","lynx","22","male","no","yes","0","4-5","null","stimuli/sounds/bleep.wav","null","","","","","","",""
"","","","","","html-keyboard-response","275","2.0.0","273425","p7hgsjfsstb","ono","lynx","22","male","no","yes","0","4-5","573","<div style=""font-size:30px;"">Press space to start the trial</div>"," ","","","","","","",""
"","","","","","html-keyboard-response","276","2.0.0","273676","p7hgsjfsstb","ono","lynx","22","male","no","yes","0","4-5","null","<div style=""font-size:60px;"">+</div>","null","","","","","","",""
"","","","","","audio-keyboard-response","277","2.0.0","274283","p7hgsjfsstb","ono","lynx","22","male","no","yes","0","4-5","null","stimuli/sounds/drop_sound_B.wav","null","","","","","","",""
"","","","","","html-keyboard-response","278","2.0.0","275285","p7hgsjfsstb","ono","lynx","22","male","no","yes","0","4-5","null","","null","","","","","","",""
"","","","","","image-keyboard-response","279","2.0.0","275646","p7hgsjfsstb","ono","lynx","22","male","no","yes","0","4-5","359","stimuli/pictures/drop_single_2.jpg","1","1","","true","no","sound","stimuli/sounds/drop_sound_B.wav",""
"","","","","","audio-keyboard-response","280","2.0.0","276649","p7hgsjfsstb","ono","lynx","22","male","no","yes","0","4-5","null","stimuli/sounds/bleep.wav","null","","","","","","",""
"","","","","","html-keyboard-response","281","2.0.0","277192","p7hgsjfsstb","ono","lynx","22","male","no","yes","0","4-5","440","<div style=""font-size:30px;"">Press space to start the trial</div>"," ","","","","","","",""
"","","","","","html-keyboard-response","282","2.0.0","277446","p7hgsjfsstb","ono","lynx","22","male","no","yes","0","4-5","null","<div style=""font-size:60px;"">+</div>","null","","","","","","",""
"","","","","","audio-keyboard-response","283","2.0.0","278048","p7hgsjfsstb","ono","lynx","22","male","no","yes","0","4-5","null","stimuli/sounds/dog_sound_A.wav","null","","","","","","",""
"","","","","","html-keyboard-response","284","2.0.0","279051","p7hgsjfsstb","ono","lynx","22","male","no","yes","0","4-5","null","","null","","","","","","",""
"","","","","","image-keyboard-response","285","2.0.0","279864","p7hgsjfsstb","ono","lynx","22","male","no","yes","0","4-5","810","stimuli/pictures/dog_york_2.jpg","1","1","","true","no","sound","stimuli/sounds/dog_sound_A.wav",""
"","","","","","audio-keyboard-response","286","2.0.0","280867","p7hgsjfsstb","ono","lynx","22","male","no","yes","0","4-5","null","stimuli/sounds/bleep.wav","null","","","","","","",""
"","","","","","html-keyboard-response","287","2.0.0","281447","p7hgsjfsstb","ono","lynx","22","male","no","yes","0","4-5","477","<div style=""font-size:30px;"">Press space to start the trial</div>"," ","","","","","","",""
"","","","","","html-keyboard-response","288","2.0.0","281700","p7hgsjfsstb","ono","lynx","22","male","no","yes","0","4-5","null","<div style=""font-size:60px;"">+</div>","null","","","","","","",""
"","","","","","audio-keyboard-response","289","2.0.0","282304","p7hgsjfsstb","ono","lynx","22","male","no","yes","0","4-5","null","stimuli/sounds/motor_label_B.wav","null","","","","","","",""
"","","","","","html-keyboard-response","290","2.0.0","283306","p7hgsjfsstb","ono","lynx","22","male","no","yes","0","4-5","null","","null","","","","","","",""
"","","","","","image-keyboard-response","291","2.0.0","283740","p7hgsjfsstb","ono","lynx","22","male","no","yes","0","4-5","433","stimuli/pictures/motor_harley_1.jpg","1","1","","true","yes","sound","stimuli/sounds/motor_label_B.wav",""
"","","","","","audio-keyboard-response","292","2.0.0","284743","p7hgsjfsstb","ono","lynx","22","male","no","yes","0","4-5","null","stimuli/sounds/bleep.wav","null","","","","","","",""
"","","","","","html-keyboard-response","293","2.0.0","285149","p7hgsjfsstb","ono","lynx","22","male","no","yes","0","4-5","303","<div style=""font-size:30px;"">Press space to start the trial</div>"," ","","","","","","",""
"","","","","","html-keyboard-response","294","2.0.0","285402","p7hgsjfsstb","ono","lynx","22","male","no","yes","0","4-5","null","<div style=""font-size:60px;"">+</div>","null","","","","","","",""
"","","","","","audio-keyboard-response","295","2.0.0","286069","p7hgsjfsstb","ono","lynx","22","male","no","yes","0","4-5","null","stimuli/sounds/cough_sound_A.wav","null","","","","","","",""
"","","","","","html-keyboard-response","296","2.0.0","287072","p7hgsjfsstb","ono","lynx","22","male","no","yes","0","4-5","null","","null","","","","","","",""
"","","","","","image-keyboard-response","297","2.0.0","287523","p7hgsjfsstb","ono","lynx","22","male","no","yes","0","4-5","450","stimuli/pictures/dog_rott_1.jpg","0","0","","true","no","sound","stimuli/sounds/cough_sound_A.wav",""
"","","","","","audio-keyboard-response","298","2.0.0","288526","p7hgsjfsstb","ono","lynx","22","male","no","yes","0","4-5","null","stimuli/sounds/bleep.wav","null","","","","","","",""
"","","","","","html-keyboard-response","299","2.0.0","289172","p7hgsjfsstb","ono","lynx","22","male","no","yes","0","4-5","542","<div style=""font-size:30px;"">Press space to start the trial</div>"," ","","","","","","",""
"","","","","","html-keyboard-response","300","2.0.0","289425","p7hgsjfsstb","ono","lynx","22","male","no","yes","0","4-5","null","<div style=""font-size:60px;"">+</div>","null","","","","","","",""
"","","","","","audio-keyboard-response","301","2.0.0","290037","p7hgsjfsstb","ono","lynx","22","male","no","yes","0","4-5","null","stimuli/sounds/drop_label_B.wav","null","","","","","","",""
"","","","","","html-keyboard-response","302","2.0.0","291041","p7hgsjfsstb","ono","lynx","22","male","no","yes","0","4-5","null","","null","","","","","","",""
"","","","","","image-keyboard-response","303","2.0.0","291667","p7hgsjfsstb","ono","lynx","22","male","no","yes","0","4-5","623","stimuli/pictures/motor_harley_1.jpg","0","0","","true","no","sound","stimuli/sounds/drop_label_B.wav",""
"","","","","","audio-keyboard-response","304","2.0.0","292670","p7hgsjfsstb","ono","lynx","22","male","no","yes","0","4-5","null","stimuli/sounds/bleep.wav","null","","","","","","",""
"","","","","","html-keyboard-response","305","2.0.0","293214","p7hgsjfsstb","ono","lynx","22","male","no","yes","0","4-5","441","<div style=""font-size:30px;"">Press space to start the trial</div>"," ","","","","","","",""
"","","","","","html-keyboard-response","306","2.0.0","293465","p7hgsjfsstb","ono","lynx","22","male","no","yes","0","4-5","null","<div style=""font-size:60px;"">+</div>","null","","","","","","",""
"","","","","","audio-keyboard-response","307","2.0.0","294075","p7hgsjfsstb","ono","lynx","22","male","no","yes","0","4-5","null","stimuli/sounds/hiccup_sound_A.wav","null","","","","","","",""
"","","","","","html-keyboard-response","308","2.0.0","295076","p7hgsjfsstb","ono","lynx","22","male","no","yes","0","4-5","null","","null","","","","","","",""
"","","","","","image-keyboard-response","309","2.0.0","295637","p7hgsjfsstb","ono","lynx","22","male","no","yes","0","4-5","560","stimuli/pictures/hiccup_wom_1.jpg","1","1","","true","yes","sound","stimuli/sounds/hiccup_sound_A.wav",""
"","","","","","audio-keyboard-response","310","2.0.0","296641","p7hgsjfsstb","ono","lynx","22","male","no","yes","0","4-5","null","stimuli/sounds/bleep.wav","null","","","","","","",""
"","","","","","html-keyboard-response","311","2.0.0","297310","p7hgsjfsstb","ono","lynx","22","male","no","yes","0","4-5","568","<div style=""font-size:30px;"">Press space to start the trial</div>"," ","","","","","","",""
"","","","","","html-keyboard-response","312","2.0.0","297562","p7hgsjfsstb","ono","lynx","22","male","no","yes","0","4-5","null","<div style=""font-size:60px;"">+</div>","null","","","","","","",""
"","","","","","audio-keyboard-response","313","2.0.0","298171","p7hgsjfsstb","ono","lynx","22","male","no","yes","0","4-5","null","stimuli/sounds/hiccup_sound_A.wav","null","","","","","","",""
"","","","","","html-keyboard-response","314","2.0.0","299173","p7hgsjfsstb","ono","lynx","22","male","no","yes","0","4-5","null","","null","","","","","","",""
"","","","","","image-keyboard-response","315","2.0.0","299713","p7hgsjfsstb","ono","lynx","22","male","no","yes","0","4-5","539","stimuli/pictures/motor_dirt_1.jpg","0","0","","true","no","sound","stimuli/sounds/hiccup_sound_A.wav",""
"","","","","","audio-keyboard-response","316","2.0.0","300716","p7hgsjfsstb","ono","lynx","22","male","no","yes","0","4-5","null","stimuli/sounds/bleep.wav","null","","","","","","",""
"","","","","","html-keyboard-response","317","2.0.0","302463","p7hgsjfsstb","ono","lynx","22","male","no","yes","0","4-5","1645","<div style=""font-size:30px;"">Press space to start the trial</div>"," ","","","","","","",""
"","","","","","html-keyboard-response","318","2.0.0","302716","p7hgsjfsstb","ono","lynx","22","male","no","yes","0","4-5","null","<div style=""font-size:60px;"">+</div>","null","","","","","","",""
"","","","","","audio-keyboard-response","319","2.0.0","303317","p7hgsjfsstb","ono","lynx","22","male","no","yes","0","4-5","null","stimuli/sounds/motor_sound_B.wav","null","","","","","","",""
"","","","","","html-keyboard-response","320","2.0.0","304320","p7hgsjfsstb","ono","lynx","22","male","no","yes","0","4-5","null","","null","","","","","","",""
"","","","","","image-keyboard-response","321","2.0.0","305293","p7hgsjfsstb","ono","lynx","22","male","no","yes","0","4-5","971","stimuli/pictures/motor_harley_1.jpg","1","1","","true","yes","sound","stimuli/sounds/motor_sound_B.wav",""
"","","","","","audio-keyboard-response","322","2.0.0","306295","p7hgsjfsstb","ono","lynx","22","male","no","yes","0","4-5","null","stimuli/sounds/bleep.wav","null","","","","","","",""
"","","","","","html-keyboard-response","323","2.0.0","307216","p7hgsjfsstb","ono","lynx","22","male","no","yes","0","4-5","819","<div style=""font-size:30px;"">Press space to start the trial</div>"," ","","","","","","",""
"","","","","","html-keyboard-response","324","2.0.0","307470","p7hgsjfsstb","ono","lynx","22","male","no","yes","0","4-5","null","<div style=""font-size:60px;"">+</div>","null","","","","","","",""
"","","","","","audio-keyboard-response","325","2.0.0","308075","p7hgsjfsstb","ono","lynx","22","male","no","yes","0","4-5","null","stimuli/sounds/drop_sound_B.wav","null","","","","","","",""
"","","","","","html-keyboard-response","326","2.0.0","309077","p7hgsjfsstb","ono","lynx","22","male","no","yes","0","4-5","null","","null","","","","","","",""
"","","","","","image-keyboard-response","327","2.0.0","309708","p7hgsjfsstb","ono","lynx","22","male","no","yes","0","4-5","629","stimuli/pictures/drop_multi_1.jpg","1","1","","true","yes","sound","stimuli/sounds/drop_sound_B.wav",""
"","","","","","audio-keyboard-response","328","2.0.0","310711","p7hgsjfsstb","ono","lynx","22","male","no","yes","0","4-5","null","stimuli/sounds/bleep.wav","null","","","","","","",""
"","","","","","html-keyboard-response","329","2.0.0","311546","p7hgsjfsstb","ono","lynx","22","male","no","yes","0","4-5","732","<div style=""font-size:30px;"">Press space to start the trial</div>"," ","","","","","","",""
"","","","","","html-keyboard-response","330","2.0.0","311799","p7hgsjfsstb","ono","lynx","22","male","no","yes","0","4-5","null","<div style=""font-size:60px;"">+</div>","null","","","","","","",""
"","","","","","audio-keyboard-response","331","2.0.0","312336","p7hgsjfsstb","ono","lynx","22","male","no","yes","0","4-5","null","stimuli/sounds/hiccup_label_A.wav","null","","","","","","",""
"","","","","","html-keyboard-response","332","2.0.0","313338","p7hgsjfsstb","ono","lynx","22","male","no","yes","0","4-5","null","","null","","","","","","",""
"","","","","","image-keyboard-response","333","2.0.0","314152","p7hgsjfsstb","ono","lynx","22","male","no","yes","0","4-5","811","stimuli/pictures/hiccup_wom_1.jpg","1","1","","true","yes","sound","stimuli/sounds/hiccup_label_A.wav",""
"","","","","","audio-keyboard-response","334","2.0.0","315155","p7hgsjfsstb","ono","lynx","22","male","no","yes","0","4-5","null","stimuli/sounds/bleep.wav","null","","","","","","",""
"","","","","","html-keyboard-response","335","2.0.0","316253","p7hgsjfsstb","ono","lynx","22","male","no","yes","0","4-5","995","<div style=""font-size:30px;"">Press space to start the trial</div>"," ","","","","","","",""
"","","","","","html-keyboard-response","336","2.0.0","316505","p7hgsjfsstb","ono","lynx","22","male","no","yes","0","4-5","null","<div style=""font-size:60px;"">+</div>","null","","","","","","",""
"","","","","","audio-keyboard-response","337","2.0.0","317045","p7hgsjfsstb","ono","lynx","22","male","no","yes","0","4-5","null","stimuli/sounds/hiccup_label_A.wav","null","","","","","","",""
"","","","","","html-keyboard-response","338","2.0.0","318048","p7hgsjfsstb","ono","lynx","22","male","no","yes","0","4-5","null","","null","","","","","","",""
"","","","","","image-keyboard-response","339","2.0.0","318707","p7hgsjfsstb","ono","lynx","22","male","no","yes","0","4-5","657","stimuli/pictures/hiccup_man_1.jpg","1","1","","true","yes","sound","stimuli/sounds/hiccup_label_A.wav",""
"","","","","","audio-keyboard-response","340","2.0.0","319709","p7hgsjfsstb","ono","lynx","22","male","no","yes","0","4-5","null","stimuli/sounds/bleep.wav","null","","","","","","",""
"","","","","","html-keyboard-response","341","2.0.0","320353","p7hgsjfsstb","ono","lynx","22","male","no","yes","0","4-5","541","<div style=""font-size:30px;"">Press space to start the trial</div>"," ","","","","","","",""
"","","","","","html-keyboard-response","342","2.0.0","320607","p7hgsjfsstb","ono","lynx","22","male","no","yes","0","4-5","null","<div style=""font-size:60px;"">+</div>","null","","","","","","",""
"","","","","","audio-keyboard-response","343","2.0.0","321195","p7hgsjfsstb","ono","lynx","22","male","no","yes","0","4-5","null","stimuli/sounds/drop_sound_A.wav","null","","","","","","",""
"","","","","","html-keyboard-response","344","2.0.0","322197","p7hgsjfsstb","ono","lynx","22","male","no","yes","0","4-5","null","","null","","","","","","",""
"","","","","","image-keyboard-response","345","2.0.0","323120","p7hgsjfsstb","ono","lynx","22","male","no","yes","0","4-5","920","stimuli/pictures/drop_multi_1.jpg","1","1","","true","no","sound","stimuli/sounds/drop_sound_A.wav",""
"","","","","","audio-keyboard-response","346","2.0.0","324123","p7hgsjfsstb","ono","lynx","22","male","no","yes","0","4-5","null","stimuli/sounds/bleep.wav","null","","","","","","",""
"","","","","","html-keyboard-response","347","2.0.0","324852","p7hgsjfsstb","ono","lynx","22","male","no","yes","0","4-5","627","<div style=""font-size:30px;"">Press space to start the trial</div>"," ","","","","","","",""
"","","","","","html-keyboard-response","348","2.0.0","325104","p7hgsjfsstb","ono","lynx","22","male","no","yes","0","4-5","null","<div style=""font-size:60px;"">+</div>","null","","","","","","",""
"","","","","","audio-keyboard-response","349","2.0.0","325707","p7hgsjfsstb","ono","lynx","22","male","no","yes","0","4-5","null","stimuli/sounds/hiccup_sound_B.wav","null","","","","","","",""
"","","","","","html-keyboard-response","350","2.0.0","326709","p7hgsjfsstb","ono","lynx","22","male","no","yes","0","4-5","null","","null","","","","","","",""
"","","","","","image-keyboard-response","351","2.0.0","327340","p7hgsjfsstb","ono","lynx","22","male","no","yes","0","4-5","628","stimuli/pictures/drop_single_1.jpg","0","0","","true","no","sound","stimuli/sounds/hiccup_sound_B.wav",""
"","","","","","audio-keyboard-response","352","2.0.0","328343","p7hgsjfsstb","ono","lynx","22","male","no","yes","0","4-5","null","stimuli/sounds/bleep.wav","null","","","","","","",""
"","","","","","html-keyboard-response","353","2.0.0","328455","p7hgsjfsstb","ono","lynx","22","male","no","yes","0","4-5","9","<div style=""font-size:30px;"">Press space to start the trial</div>"," ","","","","","","",""
"","","","","","html-keyboard-response","354","2.0.0","328706","p7hgsjfsstb","ono","lynx","22","male","no","yes","0","4-5","null","<div style=""font-size:60px;"">+</div>","null","","","","","","",""
"","","","","","audio-keyboard-response","355","2.0.0","329253","p7hgsjfsstb","ono","lynx","22","male","no","yes","0","4-5","null","stimuli/sounds/drop_label_A.wav","null","","","","","","",""
"","","","","","html-keyboard-response","356","2.0.0","330257","p7hgsjfsstb","ono","lynx","22","male","no","yes","0","4-5","null","","null","","","","","","",""
"","","","","","image-keyboard-response","357","2.0.0","330833","p7hgsjfsstb","ono","lynx","22","male","no","yes","0","4-5","573","stimuli/pictures/hiccup_wom_1.jpg","0","0","","true","no","sound","stimuli/sounds/drop_label_A.wav",""
"","","","","","audio-keyboard-response","358","2.0.0","331837","p7hgsjfsstb","ono","lynx","22","male","no","yes","0","4-5","null","stimuli/sounds/bleep.wav","null","","","","","","",""
"","","","","","html-keyboard-response","359","2.0.0","332523","p7hgsjfsstb","ono","lynx","22","male","no","yes","0","4-5","584","<div style=""font-size:30px;"">Press space to start the trial</div>"," ","","","","","","",""
"","","","","","html-keyboard-response","360","2.0.0","332776","p7hgsjfsstb","ono","lynx","22","male","no","yes","0","4-5","null","<div style=""font-size:60px;"">+</div>","null","","","","","","",""
"","","","","","audio-keyboard-response","361","2.0.0","333376","p7hgsjfsstb","ono","lynx","22","male","no","yes","0","4-5","null","stimuli/sounds/hiccup_sound_B.wav","null","","","","","","",""
"","","","","","html-keyboard-response","362","2.0.0","334379","p7hgsjfsstb","ono","lynx","22","male","no","yes","0","4-5","null","","null","","","","","","",""
"","","","","","image-keyboard-response","363","2.0.0","335008","p7hgsjfsstb","ono","lynx","22","male","no","yes","0","4-5","627","stimuli/pictures/hiccup_man_1.jpg","1","1","","true","yes","sound","stimuli/sounds/hiccup_sound_B.wav",""
"","","","","","audio-keyboard-response","364","2.0.0","336011","p7hgsjfsstb","ono","lynx","22","male","no","yes","0","4-5","null","stimuli/sounds/bleep.wav","null","","","","","","",""
"","","","","","html-keyboard-response","365","2.0.0","354349","p7hgsjfsstb","ono","lynx","22","male","no","yes","0","4-5","18236","<div style=""font-size:30px;"">Press space to start the trial</div>"," ","","","","","","",""
"","","","","","html-keyboard-response","366","2.0.0","354600","p7hgsjfsstb","ono","lynx","22","male","no","yes","0","4-5","null","<div style=""font-size:60px;"">+</div>","null","","","","","","",""
"","","","","","audio-keyboard-response","367","2.0.0","355206","p7hgsjfsstb","ono","lynx","22","male","no","yes","0","4-5","null","stimuli/sounds/hiccup_sound_A.wav","null","","","","","","",""
"","","","","","html-keyboard-response","368","2.0.0","356209","p7hgsjfsstb","ono","lynx","22","male","no","yes","0","4-5","null","","null","","","","","","",""
"","","","","","image-keyboard-response","369","2.0.0","356874","p7hgsjfsstb","ono","lynx","22","male","no","yes","0","4-5","663","stimuli/pictures/motor_harley_1.jpg","0","0","","true","no","sound","stimuli/sounds/hiccup_sound_A.wav",""
"","","","","","audio-keyboard-response","370","2.0.0","357877","p7hgsjfsstb","ono","lynx","22","male","no","yes","0","4-5","null","stimuli/sounds/bleep.wav","null","","","","","","",""
"","","","","","html-keyboard-response","371","2.0.0","358421","p7hgsjfsstb","ono","lynx","22","male","no","yes","0","4-5","441","<div style=""font-size:30px;"">Press space to start the trial</div>"," ","","","","","","",""
"","","","","","html-keyboard-response","372","2.0.0","358673","p7hgsjfsstb","ono","lynx","22","male","no","yes","0","4-5","null","<div style=""font-size:60px;"">+</div>","null","","","","","","",""
"","","","","","audio-keyboard-response","373","2.0.0","359275","p7hgsjfsstb","ono","lynx","22","male","no","yes","0","4-5","null","stimuli/sounds/motor_sound_B.wav","null","","","","","","",""
"","","","","","html-keyboard-response","374","2.0.0","360278","p7hgsjfsstb","ono","lynx","22","male","no","yes","0","4-5","null","","null","","","","","","",""
"","","","","","image-keyboard-response","375","2.0.0","360689","p7hgsjfsstb","ono","lynx","22","male","no","yes","0","4-5","410","stimuli/pictures/motor_dirt_1.jpg","1","1","","true","no","sound","stimuli/sounds/motor_sound_B.wav",""
"","","","","","audio-keyboard-response","376","2.0.0","361693","p7hgsjfsstb","ono","lynx","22","male","no","yes","0","4-5","null","stimuli/sounds/bleep.wav","null","","","","","","",""
"","","","","","html-keyboard-response","377","2.0.0","362175","p7hgsjfsstb","ono","lynx","22","male","no","yes","0","4-5","380","<div style=""font-size:30px;"">Press space to start the trial</div>"," ","","","","","","",""
"","","","","","html-keyboard-response","378","2.0.0","362427","p7hgsjfsstb","ono","lynx","22","male","no","yes","0","4-5","null","<div style=""font-size:60px;"">+</div>","null","","","","","","",""
"","","","","","audio-keyboard-response","379","2.0.0","362965","p7hgsjfsstb","ono","lynx","22","male","no","yes","0","4-5","null","stimuli/sounds/hiccup_label_A.wav","null","","","","","","",""
"","","","","","html-keyboard-response","380","2.0.0","363968","p7hgsjfsstb","ono","lynx","22","male","no","yes","0","4-5","null","","null","","","","","","",""
"","","","","","image-keyboard-response","381","2.0.0","364479","p7hgsjfsstb","ono","lynx","22","male","no","yes","0","4-5","509","stimuli/pictures/cough_wom_2.jpg","1","0","","false","no","sound","stimuli/sounds/hiccup_label_A.wav",""
"","","","","","audio-keyboard-response","382","2.0.0","365481","p7hgsjfsstb","ono","lynx","22","male","no","yes","0","4-5","null","stimuli/sounds/buzz.wav","null","","","","","","",""
"","","","","","html-keyboard-response","383","2.0.0","366085","p7hgsjfsstb","ono","lynx","22","male","no","yes","0","4-5","501","<div style=""font-size:30px;"">Press space to start the trial</div>"," ","","","","","","",""
"","","","","","html-keyboard-response","384","2.0.0","366337","p7hgsjfsstb","ono","lynx","22","male","no","yes","0","4-5","null","<div style=""font-size:60px;"">+</div>","null","","","","","","",""
"","","","","","audio-keyboard-response","385","2.0.0","366944","p7hgsjfsstb","ono","lynx","22","male","no","yes","0","4-5","null","stimuli/sounds/drop_sound_B.wav","null","","","","","","",""
"","","","","","html-keyboard-response","386","2.0.0","367947","p7hgsjfsstb","ono","lynx","22","male","no","yes","0","4-5","null","","null","","","","","","",""
"","","","","","image-keyboard-response","387","2.0.0","369070","p7hgsjfsstb","ono","lynx","22","male","no","yes","0","4-5","1121","stimuli/pictures/dog_rott_1.jpg","0","0","","true","no","sound","stimuli/sounds/drop_sound_B.wav",""
"","","","","","audio-keyboard-response","388","2.0.0","370073","p7hgsjfsstb","ono","lynx","22","male","no","yes","0","4-5","null","stimuli/sounds/bleep.wav","null","","","","","","",""
"","","","","","html-keyboard-response","389","2.0.0","372352","p7hgsjfsstb","ono","lynx","22","male","no","yes","0","4-5","2176","<p>You have completed a block. Press R when you are ready to continue</p>","r","","","","","","",""
"","","","","","html-keyboard-response","390","2.0.0","372982","p7hgsjfsstb","ono","lynx","22","male","no","yes","0","4-5","629","<div style=""font-size:30px;"">Press space to start the trial</div>"," ","","","","","","",""
"","","","","","html-keyboard-response","391","2.0.0","373235","p7hgsjfsstb","ono","lynx","22","male","no","yes","0","4-5","null","<div style=""font-size:60px;"">+</div>","null","","","","","","",""
"","","","","","audio-keyboard-response","392","2.0.0","373835","p7hgsjfsstb","ono","lynx","22","male","no","yes","0","4-5","null","stimuli/sounds/dog_sound_B.wav","null","","","","","","",""
"","","","","","html-keyboard-response","393","2.0.0","374837","p7hgsjfsstb","ono","lynx","22","male","no","yes","0","4-5","null","","null","","","","","","",""
"","","","","","image-keyboard-response","394","2.0.0","375557","p7hgsjfsstb","ono","lynx","22","male","no","yes","0","4-5","718","stimuli/pictures/dog_york_2.jpg","1","1","","true","yes","sound","stimuli/sounds/dog_sound_B.wav",""
"","","","","","audio-keyboard-response","395","2.0.0","376560","p7hgsjfsstb","ono","lynx","22","male","no","yes","0","4-5","null","stimuli/sounds/bleep.wav","null","","","","","","",""
"","","","","","html-keyboard-response","396","2.0.0","377102","p7hgsjfsstb","ono","lynx","22","male","no","yes","0","4-5","439","<div style=""font-size:30px;"">Press space to start the trial</div>"," ","","","","","","",""
"","","","","","html-keyboard-response","397","2.0.0","377355","p7hgsjfsstb","ono","lynx","22","male","no","yes","0","4-5","null","<div style=""font-size:60px;"">+</div>","null","","","","","","",""
"","","","","","audio-keyboard-response","398","2.0.0","378021","p7hgsjfsstb","ono","lynx","22","male","no","yes","0","4-5","null","stimuli/sounds/cough_sound_A.wav","null","","","","","","",""
"","","","","","html-keyboard-response","399","2.0.0","379024","p7hgsjfsstb","ono","lynx","22","male","no","yes","0","4-5","null","","null","","","","","","",""
"","","","","","image-keyboard-response","400","2.0.0","380119","p7hgsjfsstb","ono","lynx","22","male","no","yes","0","4-5","1092","stimuli/pictures/dog_york_2.jpg","0","0","","true","no","sound","stimuli/sounds/cough_sound_A.wav",""
"","","","","","audio-keyboard-response","401","2.0.0","381121","p7hgsjfsstb","ono","lynx","22","male","no","yes","0","4-5","null","stimuli/sounds/bleep.wav","null","","","","","","",""
"","","","","","html-keyboard-response","402","2.0.0","381712","p7hgsjfsstb","ono","lynx","22","male","no","yes","0","4-5","487","<div style=""font-size:30px;"">Press space to start the trial</div>"," ","","","","","","",""
"","","","","","html-keyboard-response","403","2.0.0","381964","p7hgsjfsstb","ono","lynx","22","male","no","yes","0","4-5","null","<div style=""font-size:60px;"">+</div>","null","","","","","","",""
"","","","","","audio-keyboard-response","404","2.0.0","382571","p7hgsjfsstb","ono","lynx","22","male","no","yes","0","4-5","null","stimuli/sounds/cough_label_B.wav","null","","","","","","",""
"","","","","","html-keyboard-response","405","2.0.0","383573","p7hgsjfsstb","ono","lynx","22","male","no","yes","0","4-5","null","","null","","","","","","",""
"","","","","","image-keyboard-response","406","2.0.0","384370","p7hgsjfsstb","ono","lynx","22","male","no","yes","0","4-5","795","stimuli/pictures/drop_multi_1.jpg","0","0","","true","no","sound","stimuli/sounds/cough_label_B.wav",""
"","","","","","audio-keyboard-response","407","2.0.0","385374","p7hgsjfsstb","ono","lynx","22","male","no","yes","0","4-5","null","stimuli/sounds/bleep.wav","null","","","","","","",""
"","","","","","html-keyboard-response","408","2.0.0","386235","p7hgsjfsstb","ono","lynx","22","male","no","yes","0","4-5","759","<div style=""font-size:30px;"">Press space to start the trial</div>"," ","","","","","","",""
"","","","","","html-keyboard-response","409","2.0.0","386487","p7hgsjfsstb","ono","lynx","22","male","no","yes","0","4-5","null","<div style=""font-size:60px;"">+</div>","null","","","","","","",""
"","","","","","audio-keyboard-response","410","2.0.0","387088","p7hgsjfsstb","ono","lynx","22","male","no","yes","0","4-5","null","stimuli/sounds/dog_label_A.wav","null","","","","","","",""
"","","","","","html-keyboard-response","411","2.0.0","388091","p7hgsjfsstb","ono","lynx","22","male","no","yes","0","4-5","null","","null","","","","","","",""
"","","","","","image-keyboard-response","412","2.0.0","389076","p7hgsjfsstb","ono","lynx","22","male","no","yes","0","4-5","984","stimuli/pictures/drop_single_2.jpg","0","0","","true","no","sound","stimuli/sounds/dog_label_A.wav",""
"","","","","","audio-keyboard-response","413","2.0.0","390078","p7hgsjfsstb","ono","lynx","22","male","no","yes","0","4-5","null","stimuli/sounds/bleep.wav","null","","","","","","",""
"","","","","","html-keyboard-response","414","2.0.0","390617","p7hgsjfsstb","ono","lynx","22","male","no","yes","0","4-5","435","<div style=""font-size:30px;"">Press space to start the trial</div>"," ","","","","","","",""
"","","","","","html-keyboard-response","415","2.0.0","390870","p7hgsjfsstb","ono","lynx","22","male","no","yes","0","4-5","null","<div style=""font-size:60px;"">+</div>","null","","","","","","",""
"","","","","","audio-keyboard-response","416","2.0.0","391472","p7hgsjfsstb","ono","lynx","22","male","no","yes","0","4-5","null","stimuli/sounds/motor_sound_B.wav","null","","","","","","",""
"","","","","","html-keyboard-response","417","2.0.0","392475","p7hgsjfsstb","ono","lynx","22","male","no","yes","0","4-5","null","","null","","","","","","",""
"","","","","","image-keyboard-response","418","2.0.0","392882","p7hgsjfsstb","ono","lynx","22","male","no","yes","0","4-5","405","stimuli/pictures/motor_dirt_2.jpg","1","1","","true","no","sound","stimuli/sounds/motor_sound_B.wav",""
"","","","","","audio-keyboard-response","419","2.0.0","393542","p7hgsjfsstb","ono","lynx","22","male","no","yes","0","4-5","661","stimuli/sounds/bleep.wav"," ","","","","","","",""
"","","","","","html-keyboard-response","420","2.0.0","394067","p7hgsjfsstb","ono","lynx","22","male","no","yes","0","4-5","422","<div style=""font-size:30px;"">Press space to start the trial</div>"," ","","","","","","",""
"","","","","","html-keyboard-response","421","2.0.0","394320","p7hgsjfsstb","ono","lynx","22","male","no","yes","0","4-5","null","<div style=""font-size:60px;"">+</div>","null","","","","","","",""
"","","","","","audio-keyboard-response","422","2.0.0","394923","p7hgsjfsstb","ono","lynx","22","male","no","yes","0","4-5","null","stimuli/sounds/dog_label_B.wav","null","","","","","","",""
"","","","","","html-keyboard-response","423","2.0.0","395926","p7hgsjfsstb","ono","lynx","22","male","no","yes","0","4-5","null","","null","","","","","","",""
"","","","","","image-keyboard-response","424","2.0.0","396473","p7hgsjfsstb","ono","lynx","22","male","no","yes","0","4-5","546","stimuli/pictures/dog_york_1.jpg","1","1","","true","yes","sound","stimuli/sounds/dog_label_B.wav",""
"","","","","","audio-keyboard-response","425","2.0.0","397475","p7hgsjfsstb","ono","lynx","22","male","no","yes","0","4-5","null","stimuli/sounds/bleep.wav","null","","","","","","",""
"","","","","","html-keyboard-response","426","2.0.0","397976","p7hgsjfsstb","ono","lynx","22","male","no","yes","0","4-5","398","<div style=""font-size:30px;"">Press space to start the trial</div>"," ","","","","","","",""
"","","","","","html-keyboard-response","427","2.0.0","398229","p7hgsjfsstb","ono","lynx","22","male","no","yes","0","4-5","null","<div style=""font-size:60px;"">+</div>","null","","","","","","",""
"","","","","","audio-keyboard-response","428","2.0.0","398864","p7hgsjfsstb","ono","lynx","22","male","no","yes","0","4-5","null","stimuli/sounds/cough_label_A.wav","null","","","","","","",""
"","","","","","html-keyboard-response","429","2.0.0","399866","p7hgsjfsstb","ono","lynx","22","male","no","yes","0","4-5","null","","null","","","","","","",""
"","","","","","image-keyboard-response","430","2.0.0","400462","p7hgsjfsstb","ono","lynx","22","male","no","yes","0","4-5","594","stimuli/pictures/cough_wom_1.jpg","1","1","","true","yes","sound","stimuli/sounds/cough_label_A.wav",""
"","","","","","audio-keyboard-response","431","2.0.0","401465","p7hgsjfsstb","ono","lynx","22","male","no","yes","0","4-5","null","stimuli/sounds/bleep.wav","null","","","","","","",""
"","","","","","html-keyboard-response","432","2.0.0","402023","p7hgsjfsstb","ono","lynx","22","male","no","yes","0","4-5","456","<div style=""font-size:30px;"">Press space to start the trial</div>"," ","","","","","","",""
"","","","","","html-keyboard-response","433","2.0.0","402275","p7hgsjfsstb","ono","lynx","22","male","no","yes","0","4-5","null","<div style=""font-size:60px;"">+</div>","null","","","","","","",""
"","","","","","audio-keyboard-response","434","2.0.0","402885","p7hgsjfsstb","ono","lynx","22","male","no","yes","0","4-5","null","stimuli/sounds/drop_label_B.wav","null","","","","","","",""
"","","","","","html-keyboard-response","435","2.0.0","403888","p7hgsjfsstb","ono","lynx","22","male","no","yes","0","4-5","null","","null","","","","","","",""
"","","","","","image-keyboard-response","436","2.0.0","404785","p7hgsjfsstb","ono","lynx","22","male","no","yes","0","4-5","895","stimuli/pictures/motor_dirt_1.jpg","0","0","","true","no","sound","stimuli/sounds/drop_label_B.wav",""
"","","","","","audio-keyboard-response","437","2.0.0","405788","p7hgsjfsstb","ono","lynx","22","male","no","yes","0","4-5","null","stimuli/sounds/bleep.wav","null","","","","","","",""
"","","","","","html-keyboard-response","438","2.0.0","407485","p7hgsjfsstb","ono","lynx","22","male","no","yes","0","4-5","1595","<div style=""font-size:30px;"">Press space to start the trial</div>"," ","","","","","","",""
"","","","","","html-keyboard-response","439","2.0.0","407738","p7hgsjfsstb","ono","lynx","22","male","no","yes","0","4-5","null","<div style=""font-size:60px;"">+</div>","null","","","","","","",""
"","","","","","audio-keyboard-response","440","2.0.0","408341","p7hgsjfsstb","ono","lynx","22","male","no","yes","0","4-5","null","stimuli/sounds/motor_label_A.wav","null","","","","","","",""
"","","","","","html-keyboard-response","441","2.0.0","409345","p7hgsjfsstb","ono","lynx","22","male","no","yes","0","4-5","null","","null","","","","","","",""
"","","","","","image-keyboard-response","442","2.0.0","409891","p7hgsjfsstb","ono","lynx","22","male","no","yes","0","4-5","545","stimuli/pictures/dog_rott_1.jpg","0","0","","true","no","sound","stimuli/sounds/motor_label_A.wav",""
"","","","","","audio-keyboard-response","443","2.0.0","410895","p7hgsjfsstb","ono","lynx","22","male","no","yes","0","4-5","null","stimuli/sounds/bleep.wav","null","","","","","","",""
"","","","","","html-keyboard-response","444","2.0.0","411499","p7hgsjfsstb","ono","lynx","22","male","no","yes","0","4-5","501","<div style=""font-size:30px;"">Press space to start the trial</div>"," ","","","","","","",""
"","","","","","html-keyboard-response","445","2.0.0","411751","p7hgsjfsstb","ono","lynx","22","male","no","yes","0","4-5","null","<div style=""font-size:60px;"">+</div>","null","","","","","","",""
"","","","","","audio-keyboard-response","446","2.0.0","412299","p7hgsjfsstb","ono","lynx","22","male","no","yes","0","4-5","null","stimuli/sounds/drop_label_A.wav","null","","","","","","",""
"","","","","","html-keyboard-response","447","2.0.0","413302","p7hgsjfsstb","ono","lynx","22","male","no","yes","0","4-5","null","","null","","","","","","",""
"","","","","","image-keyboard-response","448","2.0.0","413823","p7hgsjfsstb","ono","lynx","22","male","no","yes","0","4-5","520","stimuli/pictures/drop_single_1.jpg","0","1","","false","yes","sound","stimuli/sounds/drop_label_A.wav",""
"","","","","","audio-keyboard-response","449","2.0.0","414825","p7hgsjfsstb","ono","lynx","22","male","no","yes","0","4-5","null","stimuli/sounds/buzz.wav","null","","","","","","",""
"","","","","","html-keyboard-response","450","2.0.0","423953","p7hgsjfsstb","ono","lynx","22","male","no","yes","0","4-5","9025","<div style=""font-size:30px;"">Press space to start the trial</div>"," ","","","","","","",""
"","","","","","html-keyboard-response","451","2.0.0","424204","p7hgsjfsstb","ono","lynx","22","male","no","yes","0","4-5","null","<div style=""font-size:60px;"">+</div>","null","","","","","","",""
"","","","","","audio-keyboard-response","452","2.0.0","424806","p7hgsjfsstb","ono","lynx","22","male","no","yes","0","4-5","null","stimuli/sounds/dog_sound_B.wav","null","","","","","","",""
"","","","","","html-keyboard-response","453","2.0.0","425808","p7hgsjfsstb","ono","lynx","22","male","no","yes","0","4-5","null","","null","","","","","","",""
"","","","","","image-keyboard-response","454","2.0.0","426304","p7hgsjfsstb","ono","lynx","22","male","no","yes","0","4-5","494","stimuli/pictures/dog_york_1.jpg","1","1","","true","yes","sound","stimuli/sounds/dog_sound_B.wav",""
"","","","","","audio-keyboard-response","455","2.0.0","427307","p7hgsjfsstb","ono","lynx","22","male","no","yes","0","4-5","null","stimuli/sounds/bleep.wav","null","","","","","","",""
"","","","","","html-keyboard-response","456","2.0.0","427749","p7hgsjfsstb","ono","lynx","22","male","no","yes","0","4-5","339","<div style=""font-size:30px;"">Press space to start the trial</div>"," ","","","","","","",""
"","","","","","html-keyboard-response","457","2.0.0","428001","p7hgsjfsstb","ono","lynx","22","male","no","yes","0","4-5","null","<div style=""font-size:60px;"">+</div>","null","","","","","","",""
"","","","","","audio-keyboard-response","458","2.0.0","428608","p7hgsjfsstb","ono","lynx","22","male","no","yes","0","4-5","null","stimuli/sounds/cough_label_B.wav","null","","","","","","",""
"","","","","","html-keyboard-response","459","2.0.0","429610","p7hgsjfsstb","ono","lynx","22","male","no","yes","0","4-5","null","","null","","","","","","",""
"","","","","","image-keyboard-response","460","2.0.0","430056","p7hgsjfsstb","ono","lynx","22","male","no","yes","0","4-5","444","stimuli/pictures/cough_wom_1.jpg","1","1","","true","yes","sound","stimuli/sounds/cough_label_B.wav",""
"","","","","","audio-keyboard-response","461","2.0.0","431058","p7hgsjfsstb","ono","lynx","22","male","no","yes","0","4-5","null","stimuli/sounds/bleep.wav","null","","","","","","",""
"","","","","","html-keyboard-response","462","2.0.0","431700","p7hgsjfsstb","ono","lynx","22","male","no","yes","0","4-5","539","<div style=""font-size:30px;"">Press space to start the trial</div>"," ","","","","","","",""
"","","","","","html-keyboard-response","463","2.0.0","431953","p7hgsjfsstb","ono","lynx","22","male","no","yes","0","4-5","null","<div style=""font-size:60px;"">+</div>","null","","","","","","",""
"","","","","","audio-keyboard-response","464","2.0.0","432502","p7hgsjfsstb","ono","lynx","22","male","no","yes","0","4-5","null","stimuli/sounds/drop_label_A.wav","null","","","","","","",""
"","","","","","html-keyboard-response","465","2.0.0","433504","p7hgsjfsstb","ono","lynx","22","male","no","yes","0","4-5","null","","null","","","","","","",""
"","","","","","image-keyboard-response","466","2.0.0","434203","p7hgsjfsstb","ono","lynx","22","male","no","yes","0","4-5","697","stimuli/pictures/hiccup_man_2.jpg","0","0","","true","no","sound","stimuli/sounds/drop_label_A.wav",""
"","","","","","audio-keyboard-response","467","2.0.0","435206","p7hgsjfsstb","ono","lynx","22","male","no","yes","0","4-5","null","stimuli/sounds/bleep.wav","null","","","","","","",""
"","","","","","html-keyboard-response","468","2.0.0","436052","p7hgsjfsstb","ono","lynx","22","male","no","yes","0","4-5","743","<div style=""font-size:30px;"">Press space to start the trial</div>"," ","","","","","","",""
"","","","","","html-keyboard-response","469","2.0.0","436305","p7hgsjfsstb","ono","lynx","22","male","no","yes","0","4-5","null","<div style=""font-size:60px;"">+</div>","null","","","","","","",""
"","","","","","audio-keyboard-response","470","2.0.0","436907","p7hgsjfsstb","ono","lynx","22","male","no","yes","0","4-5","null","stimuli/sounds/dog_label_A.wav","null","","","","","","",""
"","","","","","html-keyboard-response","471","2.0.0","437909","p7hgsjfsstb","ono","lynx","22","male","no","yes","0","4-5","null","","null","","","","","","",""
"","","","","","image-keyboard-response","472","2.0.0","438369","p7hgsjfsstb","ono","lynx","22","male","no","yes","0","4-5","458","stimuli/pictures/dog_rott_2.jpg","1","1","","true","yes","sound","stimuli/sounds/dog_label_A.wav",""
"","","","","","audio-keyboard-response","473","2.0.0","439372","p7hgsjfsstb","ono","lynx","22","male","no","yes","0","4-5","null","stimuli/sounds/bleep.wav","null","","","","","","",""
"","","","","","html-keyboard-response","474","2.0.0","439878","p7hgsjfsstb","ono","lynx","22","male","no","yes","0","4-5","403","<div style=""font-size:30px;"">Press space to start the trial</div>"," ","","","","","","",""
"","","","","","html-keyboard-response","475","2.0.0","440129","p7hgsjfsstb","ono","lynx","22","male","no","yes","0","4-5","null","<div style=""font-size:60px;"">+</div>","null","","","","","","",""
"","","","","","audio-keyboard-response","476","2.0.0","440731","p7hgsjfsstb","ono","lynx","22","male","no","yes","0","4-5","null","stimuli/sounds/hiccup_sound_B.wav","null","","","","","","",""
"","","","","","html-keyboard-response","477","2.0.0","441734","p7hgsjfsstb","ono","lynx","22","male","no","yes","0","4-5","null","","null","","","","","","",""
"","","","","","image-keyboard-response","478","2.0.0","442803","p7hgsjfsstb","ono","lynx","22","male","no","yes","0","4-5","1068","stimuli/pictures/hiccup_wom_1.jpg","1","1","","true","no","sound","stimuli/sounds/hiccup_sound_B.wav",""
"","","","","","audio-keyboard-response","479","2.0.0","443805","p7hgsjfsstb","ono","lynx","22","male","no","yes","0","4-5","null","stimuli/sounds/bleep.wav","null","","","","","","",""
"","","","","","html-keyboard-response","480","2.0.0","444395","p7hgsjfsstb","ono","lynx","22","male","no","yes","0","4-5","488","<div style=""font-size:30px;"">Press space to start the trial</div>"," ","","","","","","",""
"","","","","","html-keyboard-response","481","2.0.0","444648","p7hgsjfsstb","ono","lynx","22","male","no","yes","0","4-5","null","<div style=""font-size:60px;"">+</div>","null","","","","","","",""
"","","","","","audio-keyboard-response","482","2.0.0","445248","p7hgsjfsstb","ono","lynx","22","male","no","yes","0","4-5","null","stimuli/sounds/hiccup_sound_B.wav","null","","","","","","",""
"","","","","","html-keyboard-response","483","2.0.0","446251","p7hgsjfsstb","ono","lynx","22","male","no","yes","0","4-5","null","","null","","","","","","",""
"","","","","","image-keyboard-response","484","2.0.0","447563","p7hgsjfsstb","ono","lynx","22","male","no","yes","0","4-5","1309","stimuli/pictures/hiccup_man_2.jpg","1","1","","true","yes","sound","stimuli/sounds/hiccup_sound_B.wav",""
"","","","","","audio-keyboard-response","485","2.0.0","448566","p7hgsjfsstb","ono","lynx","22","male","no","yes","0","4-5","null","stimuli/sounds/bleep.wav","null","","","","","","",""
"","","","","","html-keyboard-response","486","2.0.0","449136","p7hgsjfsstb","ono","lynx","22","male","no","yes","0","4-5","467","<div style=""font-size:30px;"">Press space to start the trial</div>"," ","","","","","","",""
"","","","","","html-keyboard-response","487","2.0.0","449389","p7hgsjfsstb","ono","lynx","22","male","no","yes","0","4-5","null","<div style=""font-size:60px;"">+</div>","null","","","","","","",""
"","","","","","audio-keyboard-response","488","2.0.0","449989","p7hgsjfsstb","ono","lynx","22","male","no","yes","0","4-5","null","stimuli/sounds/motor_label_A.wav","null","","","","","","",""
"","","","","","html-keyboard-response","489","2.0.0","450993","p7hgsjfsstb","ono","lynx","22","male","no","yes","0","4-5","null","","null","","","","","","",""
"","","","","","image-keyboard-response","490","2.0.0","451752","p7hgsjfsstb","ono","lynx","22","male","no","yes","0","4-5","758","stimuli/pictures/dog_york_2.jpg","0","0","","true","no","sound","stimuli/sounds/motor_label_A.wav",""
"","","","","","audio-keyboard-response","491","2.0.0","452755","p7hgsjfsstb","ono","lynx","22","male","no","yes","0","4-5","null","stimuli/sounds/bleep.wav","null","","","","","","",""
"","","","","","html-keyboard-response","492","2.0.0","454080","p7hgsjfsstb","ono","lynx","22","male","no","yes","0","4-5","1223","<div style=""font-size:30px;"">Press space to start the trial</div>"," ","","","","","","",""
"","","","","","html-keyboard-response","493","2.0.0","454333","p7hgsjfsstb","ono","lynx","22","male","no","yes","0","4-5","null","<div style=""font-size:60px;"">+</div>","null","","","","","","",""
