"success","timeout","failed_images","failed_audio","failed_video","trial_type","trial_index","plugin_version","time_elapsed","random_id","condition","participant","age","gender_id","mus_exp","inst_exp","years_exp","mus_listening","rt","stimulus","response","correct_response","practice","correct","congruent","sound_type","audio","question_order"
"true","false","[]","[]","[]","preload","0","2.0.0","498","p8qo11rlu1a","ono","camel","22","Male","no","no","0","6","","","","","","","","","",""
"","","","","","html-keyboard-response","1","2.0.0","2132","p8qo11rlu1a","ono","camel","22","Male","no","no","0","6","1632","Welcome to the experiment! Press any key to begin."," ","","","","","","",""
"true","","","","","fullscreen","2","null","5685","p8qo11rlu1a","ono","camel","22","Male","no","no","0","6","2548","","","","","","","","",""
"","","","","","survey-text","3","2.0.0","7909","p8qo11rlu1a","ono","camel","22","Male","no","no","0","6","2217","","{""participant_id"":""camel""}","","","","","","",""
"","","","","","html-keyboard-response","4","2.0.0","10660","p8qo11rlu1a","ono","camel","22","Male","no","no","0","6","2746","
    <p> Please use headphones for the duration of the study.</p>
    <p> Within each trial, you will hear a sound and then be presented with an image in the center of your screen.</p>
    <p>Press the <b>'1'</b> key if what you hear <u>matches</u> what you see.</p>
    <p>Press the <b>'0'</b> key if what you hear <u>does not match</u> what you see.</p>
    <p>Try to respond as quickly and accurately as you can.</p>
    <p> Press any key to begin.</p>
    "," ","","","","","","",""
"","","","","","html-keyboard-response","5","2.0.0","12107","p8qo11rlu1a","ono","camel","22","Male","no","no","0","6","1446","
    <div style=""font-size:28px;"">
      <p>You will now complete 4 short practice trials.</p>
      <p>This is just to help you get familiar with the task.</p>
      <p>Press any key to begin.</p>
    </div>
  "," ","","","","","","",""
"","","","","","html-keyboard-response","6","2.0.0","12610","p8qo11rlu1a","ono","camel","22","Male","no","no","0","6","null","<div style=""font-size:60px;"">+</div>","null","","","","","","",""
"","","","","","audio-keyboard-response","7","2.0.0","14794","p8qo11rlu1a","ono","camel","22","Male","no","no","0","6","null","stimuli/sounds/guitar_label_A.wav","null","","","","","","",""
"","","","","","image-keyboard-response","8","2.0.0","16267","p8qo11rlu1a","ono","camel","22","Male","no","no","0","6","1464","stimuli/pictures/guitar_acoustic_1.jpg","1","1","true","true","","","",""
"","","","","","audio-keyboard-response","9","2.0.0","17084","p8qo11rlu1a","ono","camel","22","Male","no","no","0","6","null","stimuli/sounds/bleep.wav","null","","","","","","",""
"","","","","","html-keyboard-response","10","2.0.0","17798","p8qo11rlu1a","ono","camel","22","Male","no","no","0","6","null","<p style='color:green; font-size:30px;'>Correct!</p>","null","","","","","","",""
"","","","","","html-keyboard-response","11","2.0.0","18312","p8qo11rlu1a","ono","camel","22","Male","no","no","0","6","null","<div style=""font-size:60px;"">+</div>","null","","","","","","",""
"","","","","","audio-keyboard-response","12","2.0.0","18912","p8qo11rlu1a","ono","camel","22","Male","no","no","0","6","null","stimuli/sounds/guitar_sound_B.wav","null","","","","","","",""
"","","","","","image-keyboard-response","13","2.0.0","19786","p8qo11rlu1a","ono","camel","22","Male","no","no","0","6","871","stimuli/pictures/guitar_acoustic_2.jpg","1","1","true","true","","","",""
"","","","","","audio-keyboard-response","14","2.0.0","20594","p8qo11rlu1a","ono","camel","22","Male","no","no","0","6","null","stimuli/sounds/bleep.wav","null","","","","","","",""
"","","","","","html-keyboard-response","15","2.0.0","21297","p8qo11rlu1a","ono","camel","22","Male","no","no","0","6","null","<p style='color:green; font-size:30px;'>Correct!</p>","null","","","","","","",""
"","","","","","html-keyboard-response","16","2.0.0","21805","p8qo11rlu1a","ono","camel","22","Male","no","no","0","6","null","<div style=""font-size:60px;"">+</div>","null","","","","","","",""
"","","","","","audio-keyboard-response","17","2.0.0","22414","p8qo11rlu1a","ono","camel","22","Male","no","no","0","6","null","stimuli/sounds/flute_sound_A.wav","null","","","","","","",""
"","","","","","image-keyboard-response","18","2.0.0","23287","p8qo11rlu1a","ono","camel","22","Male","no","no","0","6","868","stimuli/pictures/guitar_electric_1.jpg","0","0","true","true","","","",""
"","","","","","audio-keyboard-response","19","2.0.0","24105","p8qo11rlu1a","ono","camel","22","Male","no","no","0","6","null","stimuli/sounds/bleep.wav","null","","","","","","",""
"","","","","","html-keyboard-response","20","2.0.0","24809","p8qo11rlu1a","ono","camel","22","Male","no","no","0","6","null","<p style='color:green; font-size:30px;'>Correct!</p>","null","","","","","","",""
"","","","","","html-keyboard-response","21","2.0.0","25312","p8qo11rlu1a","ono","camel","22","Male","no","no","0","6","null","<div style=""font-size:60px;"">+</div>","null","","","","","","",""
"","","","","","audio-keyboard-response","22","2.0.0","25914","p8qo11rlu1a","ono","camel","22","Male","no","no","0","6","null","stimuli/sounds/guitar_sound_A.wav","null","","","","","","",""
"","","","","","image-keyboard-response","23","2.0.0","26910","p8qo11rlu1a","ono","camel","22","Male","no","no","0","6","993","stimuli/pictures/guitar_acoustic_1.jpg","0","1","true","false","","","",""
"","","","","","audio-keyboard-response","24","2.0.0","27725","p8qo11rlu1a","ono","camel","22","Male","no","no","0","6","null","stimuli/sounds/buzz.wav","null","","","","","","",""
"","","","","","html-keyboard-response","25","2.0.0","28433","p8qo11rlu1a","ono","camel","22","Male","no","no","0","6","null","<p style='color:red; font-size:30px;'>Incorrect</p>","null","","","","","","",""
"","","","","","html-keyboard-response","26","2.0.0","30558","p8qo11rlu1a","ono","camel","22","Male","no","no","0","6","2123","<p>Practice complete. Press any key to begin the real experiment.</p>","Enter","","","","","","",""
"","","","","","html-keyboard-response","27","2.0.0","34037","p8qo11rlu1a","ono","camel","22","Male","no","no","0","6","3477","<div style=""font-size:30px;"">Press space to start the trial</div>"," ","","","","","","",""
"","","","","","html-keyboard-response","28","2.0.0","34300","p8qo11rlu1a","ono","camel","22","Male","no","no","0","6","null","<div style=""font-size:60px;"">+</div>","null","","","","","","",""
"","","","","","audio-keyboard-response","29","2.0.0","34893","p8qo11rlu1a","ono","camel","22","Male","no","no","0","6","null","stimuli/sounds/dog_label_B.wav","null","","","","","","",""
"","","","","","html-keyboard-response","30","2.0.0","35905","p8qo11rlu1a","ono","camel","22","Male","no","no","0","6","null","","null","","","","","","",""
"","","","","","image-keyboard-response","31","2.0.0","37070","p8qo11rlu1a","ono","camel","22","Male","no","no","0","6","1161","stimuli/pictures/cough_wom_1.jpg","0","0","","true","no","sound","stimuli/sounds/dog_label_B.wav",""
"","","","","","audio-keyboard-response","32","2.0.0","38078","p8qo11rlu1a","ono","camel","22","Male","no","no","0","6","null","stimuli/sounds/bleep.wav","null","","","","","","",""
"","","","","","html-keyboard-response","33","2.0.0","41083","p8qo11rlu1a","ono","camel","22","Male","no","no","0","6","2891","<div style=""font-size:30px;"">Press space to start the trial</div>"," ","","","","","","",""
"","","","","","html-keyboard-response","34","2.0.0","41336","p8qo11rlu1a","ono","camel","22","Male","no","no","0","6","null","<div style=""font-size:60px;"">+</div>","null","","","","","","",""
"","","","","","audio-keyboard-response","35","2.0.0","41943","p8qo11rlu1a","ono","camel","22","Male","no","no","0","6","null","stimuli/sounds/cough_label_B.wav","null","","","","","","",""
"","","","","","html-keyboard-response","36","2.0.0","42958","p8qo11rlu1a","ono","camel","22","Male","no","no","0","6","null","","null","","","","","","",""
"","","","","","image-keyboard-response","37","2.0.0","44869","p8qo11rlu1a","ono","camel","22","Male","no","no","0","6","1909","stimuli/pictures/drop_single_2.jpg","0","0","","true","no","sound","stimuli/sounds/cough_label_B.wav",""
"","","","","","audio-keyboard-response","38","2.0.0","45884","p8qo11rlu1a","ono","camel","22","Male","no","no","0","6","null","stimuli/sounds/bleep.wav","null","","","","","","",""
"","","","","","html-keyboard-response","39","2.0.0","46350","p8qo11rlu1a","ono","camel","22","Male","no","no","0","6","353","<div style=""font-size:30px;"">Press space to start the trial</div>"," ","","","","","","",""
"","","","","","html-keyboard-response","40","2.0.0","46614","p8qo11rlu1a","ono","camel","22","Male","no","no","0","6","null","<div style=""font-size:60px;"">+</div>","null","","","","","","",""
"","","","","","audio-keyboard-response","41","2.0.0","47223","p8qo11rlu1a","ono","camel","22","Male","no","no","0","6","null","stimuli/sounds/drop_sound_B.wav","null","","","","","","",""
"","","","","","html-keyboard-response","42","2.0.0","48239","p8qo11rlu1a","ono","camel","22","Male","no","no","0","6","null","","null","","","","","","",""
"","","","","","image-keyboard-response","43","2.0.0","49701","p8qo11rlu1a","ono","camel","22","Male","no","no","0","6","1459","stimuli/pictures/dog_rott_1.jpg","0","0","","true","no","sound","stimuli/sounds/drop_sound_B.wav",""
"","","","","","audio-keyboard-response","44","2.0.0","50707","p8qo11rlu1a","ono","camel","22","Male","no","no","0","6","null","stimuli/sounds/bleep.wav","null","","","","","","",""
"","","","","","html-keyboard-response","45","2.0.0","51369","p8qo11rlu1a","ono","camel","22","Male","no","no","0","6","557","<div style=""font-size:30px;"">Press space to start the trial</div>"," ","","","","","","",""
"","","","","","html-keyboard-response","46","2.0.0","51635","p8qo11rlu1a","ono","camel","22","Male","no","no","0","6","null","<div style=""font-size:60px;"">+</div>","null","","","","","","",""
"","","","","","audio-keyboard-response","47","2.0.0","52244","p8qo11rlu1a","ono","camel","22","Male","no","no","0","6","null","stimuli/sounds/hiccup_label_B.wav","null","","","","","","",""
"","","","","","html-keyboard-response","48","2.0.0","53258","p8qo11rlu1a","ono","camel","22","Male","no","no","0","6","null","","null","","","","","","",""
"","","","","","image-keyboard-response","49","2.0.0","54725","p8qo11rlu1a","ono","camel","22","Male","no","no","0","6","1465","stimuli/pictures/hiccup_man_1.jpg","1","1","","true","yes","sound","stimuli/sounds/hiccup_label_B.wav",""
"","","","","","audio-keyboard-response","50","2.0.0","55734","p8qo11rlu1a","ono","camel","22","Male","no","no","0","6","null","stimuli/sounds/bleep.wav","null","","","","","","",""
"","","","","","html-keyboard-response","51","2.0.0","56341","p8qo11rlu1a","ono","camel","22","Male","no","no","0","6","490","<div style=""font-size:30px;"">Press space to start the trial</div>"," ","","","","","","",""
"","","","","","html-keyboard-response","52","2.0.0","56599","p8qo11rlu1a","ono","camel","22","Male","no","no","0","6","null","<div style=""font-size:60px;"">+</div>","null","","","","","","",""
"","","","","","audio-keyboard-response","53","2.0.0","57193","p8qo11rlu1a","ono","camel","22","Male","no","no","0","6","null","stimuli/sounds/dog_label_A.wav","null","","","","","","",""
"","","","","","html-keyboard-response","54","2.0.0","58210","p8qo11rlu1a","ono","camel","22","Male","no","no","0","6","null","","null","","","","","","",""
"","","","","","image-keyboard-response","55","2.0.0","58979","p8qo11rlu1a","ono","camel","22","Male","no","no","0","6","765","stimuli/pictures/dog_rott_1.jpg","1","1","","true","yes","sound","stimuli/sounds/dog_label_A.wav",""
"","","","","","audio-keyboard-response","56","2.0.0","59489","p8qo11rlu1a","ono","camel","22","Male","no","no","0","6","509","stimuli/sounds/bleep.wav"," ","","","","","","",""
"","","","","","html-keyboard-response","57","2.0.0","60165","p8qo11rlu1a","ono","camel","22","Male","no","no","0","6","560","<div style=""font-size:30px;"">Press space to start the trial</div>"," ","","","","","","",""
"","","","","","html-keyboard-response","58","2.0.0","60424","p8qo11rlu1a","ono","camel","22","Male","no","no","0","6","null","<div style=""font-size:60px;"">+</div>","null","","","","","","",""
"","","","","","audio-keyboard-response","59","2.0.0","61013","p8qo11rlu1a","ono","camel","22","Male","no","no","0","6","null","stimuli/sounds/drop_sound_A.wav","null","","","","","","",""
"","","","","","html-keyboard-response","60","2.0.0","62016","p8qo11rlu1a","ono","camel","22","Male","no","no","0","6","null","","null","","","","","","",""
"","","","","","image-keyboard-response","61","2.0.0","63360","p8qo11rlu1a","ono","camel","22","Male","no","no","0","6","1341","stimuli/pictures/cough_man_2.jpg","0","0","","true","no","sound","stimuli/sounds/drop_sound_A.wav",""
"","","","","","audio-keyboard-response","62","2.0.0","63563","p8qo11rlu1a","ono","camel","22","Male","no","no","0","6","211","stimuli/sounds/bleep.wav"," ","","","","","","",""
"","","","","","html-keyboard-response","63","2.0.0","64599","p8qo11rlu1a","ono","camel","22","Male","no","no","0","6","919","<div style=""font-size:30px;"">Press space to start the trial</div>"," ","","","","","","",""
"","","","","","html-keyboard-response","64","2.0.0","64853","p8qo11rlu1a","ono","camel","22","Male","no","no","0","6","null","<div style=""font-size:60px;"">+</div>","null","","","","","","",""
"","","","","","audio-keyboard-response","65","2.0.0","65463","p8qo11rlu1a","ono","camel","22","Male","no","no","0","6","null","stimuli/sounds/dog_sound_A.wav","null","","","","","","",""
"","","","","","html-keyboard-response","66","2.0.0","66480","p8qo11rlu1a","ono","camel","22","Male","no","no","0","6","null","","null","","","","","","",""
"","","","","","image-keyboard-response","67","2.0.0","67580","p8qo11rlu1a","ono","camel","22","Male","no","no","0","6","1097","stimuli/pictures/hiccup_wom_2.jpg","0","0","","true","no","sound","stimuli/sounds/dog_sound_A.wav",""
"","","","","","audio-keyboard-response","68","2.0.0","68595","p8qo11rlu1a","ono","camel","22","Male","no","no","0","6","null","stimuli/sounds/bleep.wav","null","","","","","","",""
"","","","","","html-keyboard-response","69","2.0.0","70118","p8qo11rlu1a","ono","camel","22","Male","no","no","0","6","1410","<div style=""font-size:30px;"">Press space to start the trial</div>"," ","","","","","","",""
"","","","","","html-keyboard-response","70","2.0.0","70377","p8qo11rlu1a","ono","camel","22","Male","no","no","0","6","null","<div style=""font-size:60px;"">+</div>","null","","","","","","",""
"","","","","","audio-keyboard-response","71","2.0.0","70984","p8qo11rlu1a","ono","camel","22","Male","no","no","0","6","null","stimuli/sounds/drop_label_B.wav","null","","","","","","",""
"","","","","","html-keyboard-response","72","2.0.0","71990","p8qo11rlu1a","ono","camel","22","Male","no","no","0","6","null","","null","","","","","","",""
"","","","","","image-keyboard-response","73","2.0.0","72819","p8qo11rlu1a","ono","camel","22","Male","no","no","0","6","827","stimuli/pictures/motor_harley_2.jpg","0","0","","true","no","sound","stimuli/sounds/drop_label_B.wav",""
"","","","","","audio-keyboard-response","74","2.0.0","73828","p8qo11rlu1a","ono","camel","22","Male","no","no","0","6","null","stimuli/sounds/bleep.wav","null","","","","","","",""
"","","","","","html-keyboard-response","75","2.0.0","74854","p8qo11rlu1a","ono","camel","22","Male","no","no","0","6","912","<div style=""font-size:30px;"">Press space to start the trial</div>"," ","","","","","","",""
"","","","","","html-keyboard-response","76","2.0.0","75108","p8qo11rlu1a","ono","camel","22","Male","no","no","0","6","null","<div style=""font-size:60px;"">+</div>","null","","","","","","",""
"","","","","","audio-keyboard-response","77","2.0.0","75654","p8qo11rlu1a","ono","camel","22","Male","no","no","0","6","null","stimuli/sounds/drop_label_A.wav","null","","","","","","",""
"","","","","","html-keyboard-response","78","2.0.0","76659","p8qo11rlu1a","ono","camel","22","Male","no","no","0","6","null","","null","","","","","","",""
"","","","","","image-keyboard-response","79","2.0.0","77481","p8qo11rlu1a","ono","camel","22","Male","no","no","0","6","819","stimuli/pictures/drop_single_1.jpg","1","1","","true","yes","sound","stimuli/sounds/drop_label_A.wav",""
"","","","","","audio-keyboard-response","80","2.0.0","78492","p8qo11rlu1a","ono","camel","22","Male","no","no","0","6","null","stimuli/sounds/bleep.wav","null","","","","","","",""
"","","","","","html-keyboard-response","81","2.0.0","78618","p8qo11rlu1a","ono","camel","22","Male","no","no","0","6","13","<div style=""font-size:30px;"">Press space to start the trial</div>"," ","","","","","","",""
"","","","","","html-keyboard-response","82","2.0.0","78878","p8qo11rlu1a","ono","camel","22","Male","no","no","0","6","null","<div style=""font-size:60px;"">+</div>","null","","","","","","",""
"","","","","","audio-keyboard-response","83","2.0.0","79553","p8qo11rlu1a","ono","camel","22","Male","no","no","0","6","null","stimuli/sounds/cough_sound_B.wav","null","","","","","","",""
"","","","","","html-keyboard-response","84","2.0.0","80562","p8qo11rlu1a","ono","camel","22","Male","no","no","0","6","null","","null","","","","","","",""
"","","","","","image-keyboard-response","85","2.0.0","82206","p8qo11rlu1a","ono","camel","22","Male","no","no","0","6","1642","stimuli/pictures/cough_wom_1.jpg","1","1","","true","no","sound","stimuli/sounds/cough_sound_B.wav",""
"","","","","","audio-keyboard-response","86","2.0.0","83210","p8qo11rlu1a","ono","camel","22","Male","no","no","0","6","null","stimuli/sounds/bleep.wav","null","","","","","","",""
"","","","","","html-keyboard-response","87","2.0.0","83754","p8qo11rlu1a","ono","camel","22","Male","no","no","0","6","430","<div style=""font-size:30px;"">Press space to start the trial</div>"," ","","","","","","",""
"","","","","","html-keyboard-response","88","2.0.0","84013","p8qo11rlu1a","ono","camel","22","Male","no","no","0","6","null","<div style=""font-size:60px;"">+</div>","null","","","","","","",""
"","","","","","audio-keyboard-response","89","2.0.0","84612","p8qo11rlu1a","ono","camel","22","Male","no","no","0","6","null","stimuli/sounds/motor_label_A.wav","null","","","","","","",""
"","","","","","html-keyboard-response","90","2.0.0","85628","p8qo11rlu1a","ono","camel","22","Male","no","no","0","6","null","","null","","","","","","",""
"","","","","","image-keyboard-response","91","2.0.0","86477","p8qo11rlu1a","ono","camel","22","Male","no","no","0","6","845","stimuli/pictures/motor_harley_2.jpg","1","1","","true","yes","sound","stimuli/sounds/motor_label_A.wav",""
"","","","","","audio-keyboard-response","92","2.0.0","87485","p8qo11rlu1a","ono","camel","22","Male","no","no","0","6","null","stimuli/sounds/bleep.wav","null","","","","","","",""
"","","","","","html-keyboard-response","93","2.0.0","87990","p8qo11rlu1a","ono","camel","22","Male","no","no","0","6","393","<div style=""font-size:30px;"">Press space to start the trial</div>"," ","","","","","","",""
"","","","","","html-keyboard-response","94","2.0.0","88242","p8qo11rlu1a","ono","camel","22","Male","no","no","0","6","null","<div style=""font-size:60px;"">+</div>","null","","","","","","",""
"","","","","","audio-keyboard-response","95","2.0.0","88853","p8qo11rlu1a","ono","camel","22","Male","no","no","0","6","null","stimuli/sounds/hiccup_sound_B.wav","null","","","","","","",""
"","","","","","html-keyboard-response","96","2.0.0","89859","p8qo11rlu1a","ono","camel","22","Male","no","no","0","6","null","","null","","","","","","",""
"","","","","","image-keyboard-response","97","2.0.0","91402","p8qo11rlu1a","ono","camel","22","Male","no","no","0","6","1539","stimuli/pictures/hiccup_man_2.jpg","1","1","","true","yes","sound","stimuli/sounds/hiccup_sound_B.wav",""
"","","","","","audio-keyboard-response","98","2.0.0","92408","p8qo11rlu1a","ono","camel","22","Male","no","no","0","6","null","stimuli/sounds/bleep.wav","null","","","","","","",""
"","","","","","html-keyboard-response","99","2.0.0","92859","p8qo11rlu1a","ono","camel","22","Male","no","no","0","6","337","<div style=""font-size:30px;"">Press space to start the trial</div>"," ","","","","","","",""
"","","","","","html-keyboard-response","100","2.0.0","93118","p8qo11rlu1a","ono","camel","22","Male","no","no","0","6","null","<div style=""font-size:60px;"">+</div>","null","","","","","","",""
"","","","","","audio-keyboard-response","101","2.0.0","93725","p8qo11rlu1a","ono","camel","22","Male","no","no","0","6","null","stimuli/sounds/hiccup_sound_B.wav","null","","","","","","",""
"","","","","","html-keyboard-response","102","2.0.0","94741","p8qo11rlu1a","ono","camel","22","Male","no","no","0","6","null","","null","","","","","","",""
"","","","","","image-keyboard-response","103","2.0.0","95225","p8qo11rlu1a","ono","camel","22","Male","no","no","0","6","481","stimuli/pictures/drop_multi_2.jpg","0","0","","true","no","sound","stimuli/sounds/hiccup_sound_B.wav",""
"","","","","","audio-keyboard-response","104","2.0.0","95285","p8qo11rlu1a","ono","camel","22","Male","no","no","0","6","59","stimuli/sounds/bleep.wav"," ","","","","","","",""
"","","","","","html-keyboard-response","105","2.0.0","95756","p8qo11rlu1a","ono","camel","22","Male","no","no","0","6","363","<div style=""font-size:30px;"">Press space to start the trial</div>"," ","","","","","","",""
"","","","","","html-keyboard-response","106","2.0.0","96021","p8qo11rlu1a","ono","camel","22","Male","no","no","0","6","null","<div style=""font-size:60px;"">+</div>","null","","","","","","",""
"","","","","","audio-keyboard-response","107","2.0.0","96614","p8qo11rlu1a","ono","camel","22","Male","no","no","0","6","null","stimuli/sounds/motor_sound_A.wav","null","","","","","","",""
"","","","","","html-keyboard-response","108","2.0.0","97629","p8qo11rlu1a","ono","camel","22","Male","no","no","0","6","null","","null","","","","","","",""
"","","","","","image-keyboard-response","109","2.0.0","98258","p8qo11rlu1a","ono","camel","22","Male","no","no","0","6","626","stimuli/pictures/motor_dirt_1.jpg","1","1","","true","yes","sound","stimuli/sounds/motor_sound_A.wav",""
"","","","","","audio-keyboard-response","110","2.0.0","98346","p8qo11rlu1a","ono","camel","22","Male","no","no","0","6","91","stimuli/sounds/bleep.wav"," ","","","","","","",""
"","","","","","html-keyboard-response","111","2.0.0","98601","p8qo11rlu1a","ono","camel","22","Male","no","no","0","6","147","<div style=""font-size:30px;"">Press space to start the trial</div>"," ","","","","","","",""
"","","","","","html-keyboard-response","112","2.0.0","98864","p8qo11rlu1a","ono","camel","22","Male","no","no","0","6","null","<div style=""font-size:60px;"">+</div>","null","","","","","","",""
"","","","","","audio-keyboard-response","113","2.0.0","99544","p8qo11rlu1a","ono","camel","22","Male","no","no","0","6","null","stimuli/sounds/cough_sound_B.wav","null","","","","","","",""
"","","","","","html-keyboard-response","114","2.0.0","100559","p8qo11rlu1a","ono","camel","22","Male","no","no","0","6","null","","null","","","","","","",""
"","","","","","image-keyboard-response","115","2.0.0","102363","p8qo11rlu1a","ono","camel","22","Male","no","no","0","6","1801","stimuli/pictures/hiccup_wom_2.jpg","1","0","","false","no","sound","stimuli/sounds/cough_sound_B.wav",""
"","","","","","audio-keyboard-response","116","2.0.0","102458","p8qo11rlu1a","ono","camel","22","Male","no","no","0","6","91","stimuli/sounds/buzz.wav"," ","","","","","","",""
"","","","","","html-keyboard-response","117","2.0.0","103257","p8qo11rlu1a","ono","camel","22","Male","no","no","0","6","686","<div style=""font-size:30px;"">Press space to start the trial</div>"," ","","","","","","",""
"","","","","","html-keyboard-response","118","2.0.0","103517","p8qo11rlu1a","ono","camel","22","Male","no","no","0","6","null","<div style=""font-size:60px;"">+</div>","null","","","","","","",""
"","","","","","audio-keyboard-response","119","2.0.0","104113","p8qo11rlu1a","ono","camel","22","Male","no","no","0","6","null","stimuli/sounds/motor_sound_B.wav","null","","","","","","",""
"","","","","","html-keyboard-response","120","2.0.0","105131","p8qo11rlu1a","ono","camel","22","Male","no","no","0","6","null","","null","","","","","","",""
"","","","","","image-keyboard-response","121","2.0.0","105899","p8qo11rlu1a","ono","camel","22","Male","no","no","0","6","764","stimuli/pictures/cough_wom_1.jpg","0","0","","true","no","sound","stimuli/sounds/motor_sound_B.wav",""
"","","","","","audio-keyboard-response","122","2.0.0","105965","p8qo11rlu1a","ono","camel","22","Male","no","no","0","6","69","stimuli/sounds/bleep.wav"," ","","","","","","",""
"","","","","","html-keyboard-response","123","2.0.0","106496","p8qo11rlu1a","ono","camel","22","Male","no","no","0","6","415","<div style=""font-size:30px;"">Press space to start the trial</div>"," ","","","","","","",""
"","","","","","html-keyboard-response","124","2.0.0","106759","p8qo11rlu1a","ono","camel","22","Male","no","no","0","6","null","<div style=""font-size:60px;"">+</div>","null","","","","","","",""
"","","","","","audio-keyboard-response","125","2.0.0","107364","p8qo11rlu1a","ono","camel","22","Male","no","no","0","6","null","stimuli/sounds/hiccup_label_B.wav","null","","","","","","",""
"","","","","","html-keyboard-response","126","2.0.0","108379","p8qo11rlu1a","ono","camel","22","Male","no","no","0","6","null","","null","","","","","","",""
"","","","","","image-keyboard-response","127","2.0.0","109011","p8qo11rlu1a","ono","camel","22","Male","no","no","0","6","628","stimuli/pictures/dog_rott_1.jpg","1","0","","false","no","sound","stimuli/sounds/hiccup_label_B.wav",""
"","","","","","audio-keyboard-response","128","2.0.0","109398","p8qo11rlu1a","ono","camel","22","Male","no","no","0","6","379","stimuli/sounds/buzz.wav"," ","","","","","","",""
"","","","","","html-keyboard-response","129","2.0.0","109936","p8qo11rlu1a","ono","camel","22","Male","no","no","0","6","425","<div style=""font-size:30px;"">Press space to start the trial</div>"," ","","","","","","",""
"","","","","","html-keyboard-response","130","2.0.0","110200","p8qo11rlu1a","ono","camel","22","Male","no","no","0","6","null","<div style=""font-size:60px;"">+</div>","null","","","","","","",""
"","","","","","audio-keyboard-response","131","2.0.0","110804","p8qo11rlu1a","ono","camel","22","Male","no","no","0","6","null","stimuli/sounds/dog_sound_A.wav","null","","","","","","",""
"","","","","","html-keyboard-response","132","2.0.0","111814","p8qo11rlu1a","ono","camel","22","Male","no","no","0","6","null","","null","","","","","","",""
"","","","","","image-keyboard-response","133","2.0.0","113458","p8qo11rlu1a","ono","camel","22","Male","no","no","0","6","1640","stimuli/pictures/hiccup_wom_1.jpg","0","0","","true","no","sound","stimuli/sounds/dog_sound_A.wav",""
"","","","","","audio-keyboard-response","134","2.0.0","113537","p8qo11rlu1a","ono","camel","22","Male","no","no","0","6","80","stimuli/sounds/bleep.wav"," ","","","","","","",""
"","","","","","html-keyboard-response","135","2.0.0","113977","p8qo11rlu1a","ono","camel","22","Male","no","no","0","6","338","<div style=""font-size:30px;"">Press space to start the trial</div>"," ","","","","","","",""
"","","","","","html-keyboard-response","136","2.0.0","114235","p8qo11rlu1a","ono","camel","22","Male","no","no","0","6","null","<div style=""font-size:60px;"">+</div>","null","","","","","","",""
"","","","","","audio-keyboard-response","137","2.0.0","114843","p8qo11rlu1a","ono","camel","22","Male","no","no","0","6","null","stimuli/sounds/dog_sound_B.wav","null","","","","","","",""
"","","","","","html-keyboard-response","138","2.0.0","115852","p8qo11rlu1a","ono","camel","22","Male","no","no","0","6","null","","null","","","","","","",""
"","","","","","image-keyboard-response","139","2.0.0","117432","p8qo11rlu1a","ono","camel","22","Male","no","no","0","6","1576","stimuli/pictures/motor_dirt_2.jpg","0","0","","true","no","sound","stimuli/sounds/dog_sound_B.wav",""
"","","","","","audio-keyboard-response","140","2.0.0","117524","p8qo11rlu1a","ono","camel","22","Male","no","no","0","6","91","stimuli/sounds/bleep.wav"," ","","","","","","",""
"","","","","","html-keyboard-response","141","2.0.0","117815","p8qo11rlu1a","ono","camel","22","Male","no","no","0","6","175","<div style=""font-size:30px;"">Press space to start the trial</div>"," ","","","","","","",""
"","","","","","html-keyboard-response","142","2.0.0","118070","p8qo11rlu1a","ono","camel","22","Male","no","no","0","6","null","<div style=""font-size:60px;"">+</div>","null","","","","","","",""
"","","","","","audio-keyboard-response","143","2.0.0","118732","p8qo11rlu1a","ono","camel","22","Male","no","no","0","6","null","stimuli/sounds/cough_sound_A.wav","null","","","","","","",""
"","","","","","html-keyboard-response","144","2.0.0","119750","p8qo11rlu1a","ono","camel","22","Male","no","no","0","6","null","","null","","","","","","",""
"","","","","","image-keyboard-response","145","2.0.0","120497","p8qo11rlu1a","ono","camel","22","Male","no","no","0","6","743","stimuli/pictures/cough_man_1.jpg","1","1","","true","no","sound","stimuli/sounds/cough_sound_A.wav",""
"","","","","","audio-keyboard-response","146","2.0.0","120734","p8qo11rlu1a","ono","camel","22","Male","no","no","0","6","240","stimuli/sounds/bleep.wav"," ","","","","","","",""
"","","","","","html-keyboard-response","147","2.0.0","122315","p8qo11rlu1a","ono","camel","22","Male","no","no","0","6","1472","<p>You have completed a block. Press R when you are ready to continue</p>","r","","","","","","",""
"","","","","","html-keyboard-response","148","2.0.0","123315","p8qo11rlu1a","ono","camel","22","Male","no","no","0","6","997","<div style=""font-size:30px;"">Press space to start the trial</div>"," ","","","","","","",""
"","","","","","html-keyboard-response","149","2.0.0","123568","p8qo11rlu1a","ono","camel","22","Male","no","no","0","6","null","<div style=""font-size:60px;"">+</div>","null","","","","","","",""
"","","","","","audio-keyboard-response","150","2.0.0","124163","p8qo11rlu1a","ono","camel","22","Male","no","no","0","6","null","stimuli/sounds/motor_sound_B.wav","null","","","","","","",""
"","","","","","html-keyboard-response","151","2.0.0","125174","p8qo11rlu1a","ono","camel","22","Male","no","no","0","6","null","","null","","","","","","",""
"","","","","","image-keyboard-response","152","2.0.0","126096","p8qo11rlu1a","ono","camel","22","Male","no","no","0","6","916","stimuli/pictures/motor_dirt_2.jpg","0","1","","false","no","sound","stimuli/sounds/motor_sound_B.wav",""
"","","","","","audio-keyboard-response","153","2.0.0","126227","p8qo11rlu1a","ono","camel","22","Male","no","no","0","6","131","stimuli/sounds/buzz.wav"," ","","","","","","",""
"","","","","","html-keyboard-response","154","2.0.0","127197","p8qo11rlu1a","ono","camel","22","Male","no","no","0","6","853","<div style=""font-size:30px;"">Press space to start the trial</div>"," ","","","","","","",""
"","","","","","html-keyboard-response","155","2.0.0","127461","p8qo11rlu1a","ono","camel","22","Male","no","no","0","6","null","<div style=""font-size:60px;"">+</div>","null","","","","","","",""
"","","","","","audio-keyboard-response","156","2.0.0","128082","p8qo11rlu1a","ono","camel","22","Male","no","no","0","6","null","stimuli/sounds/drop_label_B.wav","null","","","","","","",""
"","","","","","html-keyboard-response","157","2.0.0","129093","p8qo11rlu1a","ono","camel","22","Male","no","no","0","6","null","","null","","","","","","",""
"","","","","","image-keyboard-response","158","2.0.0","131177","p8qo11rlu1a","ono","camel","22","Male","no","no","0","6","2081","stimuli/pictures/motor_dirt_1.jpg","0","0","","true","no","sound","stimuli/sounds/drop_label_B.wav",""
"","","","","","audio-keyboard-response","159","2.0.0","131479","p8qo11rlu1a","ono","camel","22","Male","no","no","0","6","299","stimuli/sounds/bleep.wav"," ","","","","","","",""
"","","","","","html-keyboard-response","160","2.0.0","131967","p8qo11rlu1a","ono","camel","22","Male","no","no","0","6","381","<div style=""font-size:30px;"">Press space to start the trial</div>"," ","","","","","","",""
"","","","","","html-keyboard-response","161","2.0.0","132228","p8qo11rlu1a","ono","camel","22","Male","no","no","0","6","null","<div style=""font-size:60px;"">+</div>","null","","","","","","",""
"","","","","","audio-keyboard-response","162","2.0.0","132833","p8qo11rlu1a","ono","camel","22","Male","no","no","0","6","null","stimuli/sounds/dog_sound_B.wav","null","","","","","","",""
"","","","","","html-keyboard-response","163","2.0.0","133849","p8qo11rlu1a","ono","camel","22","Male","no","no","0","6","null","","null","","","","","","",""
"","","","","","image-keyboard-response","164","2.0.0","134597","p8qo11rlu1a","ono","camel","22","Male","no","no","0","6","744","stimuli/pictures/motor_harley_2.jpg","0","0","","true","no","sound","stimuli/sounds/dog_sound_B.wav",""
"","","","","","audio-keyboard-response","165","2.0.0","134736","p8qo11rlu1a","ono","camel","22","Male","no","no","0","6","141","stimuli/sounds/bleep.wav"," ","","","","","","",""
"","","","","","html-keyboard-response","166","2.0.0","134952","p8qo11rlu1a","ono","camel","22","Male","no","no","0","6","100","<div style=""font-size:30px;"">Press space to start the trial</div>"," ","","","","","","",""
"","","","","","html-keyboard-response","167","2.0.0","135216","p8qo11rlu1a","ono","camel","22","Male","no","no","0","6","null","<div style=""font-size:60px;"">+</div>","null","","","","","","",""
"","","","","","audio-keyboard-response","168","2.0.0","135812","p8qo11rlu1a","ono","camel","22","Male","no","no","0","6","null","stimuli/sounds/dog_label_A.wav","null","","","","","","",""
"","","","","","html-keyboard-response","169","2.0.0","136826","p8qo11rlu1a","ono","camel","22","Male","no","no","0","6","null","","null","","","","","","",""
"","","","","","image-keyboard-response","170","2.0.0","137611","p8qo11rlu1a","ono","camel","22","Male","no","no","0","6","782","stimuli/pictures/drop_multi_2.jpg","0","0","","true","no","sound","stimuli/sounds/dog_label_A.wav",""
"","","","","","audio-keyboard-response","171","2.0.0","137759","p8qo11rlu1a","ono","camel","22","Male","no","no","0","6","139","stimuli/sounds/bleep.wav"," ","","","","","","",""
"","","","","","html-keyboard-response","172","2.0.0","137966","p8qo11rlu1a","ono","camel","22","Male","no","no","0","6","97","<div style=""font-size:30px;"">Press space to start the trial</div>"," ","","","","","","",""
"","","","","","html-keyboard-response","173","2.0.0","138224","p8qo11rlu1a","ono","camel","22","Male","no","no","0","6","null","<div style=""font-size:60px;"">+</div>","null","","","","","","",""
"","","","","","audio-keyboard-response","174","2.0.0","138845","p8qo11rlu1a","ono","camel","22","Male","no","no","0","6","null","stimuli/sounds/drop_label_B.wav","null","","","","","","",""
"","","","","","html-keyboard-response","175","2.0.0","139850","p8qo11rlu1a","ono","camel","22","Male","no","no","0","6","null","","null","","","","","","",""
"","","","","","image-keyboard-response","176","2.0.0","140814","p8qo11rlu1a","ono","camel","22","Male","no","no","0","6","960","stimuli/pictures/drop_multi_2.jpg","1","1","","true","yes","sound","stimuli/sounds/drop_label_B.wav",""
"","","","","","audio-keyboard-response","177","2.0.0","140960","p8qo11rlu1a","ono","camel","22","Male","no","no","0","6","139","stimuli/sounds/bleep.wav"," ","","","","","","",""
"","","","","","html-keyboard-response","178","2.0.0","141174","p8qo11rlu1a","ono","camel","22","Male","no","no","0","6","106","<div style=""font-size:30px;"">Press space to start the trial</div>"," ","","","","","","",""
"","","","","","html-keyboard-response","179","2.0.0","141433","p8qo11rlu1a","ono","camel","22","Male","no","no","0","6","null","<div style=""font-size:60px;"">+</div>","null","","","","","","",""
"","","","","","audio-keyboard-response","180","2.0.0","142043","p8qo11rlu1a","ono","camel","22","Male","no","no","0","6","null","stimuli/sounds/hiccup_sound_A.wav","null","","","","","","",""
"","","","","","html-keyboard-response","181","2.0.0","143054","p8qo11rlu1a","ono","camel","22","Male","no","no","0","6","null","","null","","","","","","",""
"","","","","","image-keyboard-response","182","2.0.0","143997","p8qo11rlu1a","ono","camel","22","Male","no","no","0","6","940","stimuli/pictures/hiccup_wom_1.jpg","1","1","","true","yes","sound","stimuli/sounds/hiccup_sound_A.wav",""
"","","","","","audio-keyboard-response","183","2.0.0","144286","p8qo11rlu1a","ono","camel","22","Male","no","no","0","6","291","stimuli/sounds/bleep.wav"," ","","","","","","",""
"","","","","","html-keyboard-response","184","2.0.0","144505","p8qo11rlu1a","ono","camel","22","Male","no","no","0","6","110","<div style=""font-size:30px;"">Press space to start the trial</div>"," ","","","","","","",""
"","","","","","html-keyboard-response","185","2.0.0","144766","p8qo11rlu1a","ono","camel","22","Male","no","no","0","6","null","<div style=""font-size:60px;"">+</div>","null","","","","","","",""
"","","","","","audio-keyboard-response","186","2.0.0","145362","p8qo11rlu1a","ono","camel","22","Male","no","no","0","6","null","stimuli/sounds/motor_label_A.wav","null","","","","","","",""
"","","","","","html-keyboard-response","187","2.0.0","146379","p8qo11rlu1a","ono","camel","22","Male","no","no","0","6","null","","null","","","","","","",""
"","","","","","image-keyboard-response","188","2.0.0","147570","p8qo11rlu1a","ono","camel","22","Male","no","no","0","6","1188","stimuli/pictures/dog_rott_1.jpg","0","0","","true","no","sound","stimuli/sounds/motor_label_A.wav",""
"","","","","","audio-keyboard-response","189","2.0.0","147697","p8qo11rlu1a","ono","camel","22","Male","no","no","0","6","131","stimuli/sounds/bleep.wav"," ","","","","","","",""
"","","","","","html-keyboard-response","190","2.0.0","147943","p8qo11rlu1a","ono","camel","22","Male","no","no","0","6","138","<div style=""font-size:30px;"">Press space to start the trial</div>"," ","","","","","","",""
"","","","","","html-keyboard-response","191","2.0.0","148211","p8qo11rlu1a","ono","camel","22","Male","no","no","0","6","null","<div style=""font-size:60px;"">+</div>","null","","","","","","",""
"","","","","","audio-keyboard-response","192","2.0.0","148812","p8qo11rlu1a","ono","camel","22","Male","no","no","0","6","null","stimuli/sounds/drop_label_B.wav","null","","","","","","",""
"","","","","","html-keyboard-response","193","2.0.0","149828","p8qo11rlu1a","ono","camel","22","Male","no","no","0","6","null","","null","","","","","","",""
"","","","","","image-keyboard-response","194","2.0.0","150605","p8qo11rlu1a","ono","camel","22","Male","no","no","0","6","772","stimuli/pictures/motor_harley_1.jpg","0","0","","true","no","sound","stimuli/sounds/drop_label_B.wav",""
"","","","","","audio-keyboard-response","195","2.0.0","150698","p8qo11rlu1a","ono","camel","22","Male","no","no","0","6","91","stimuli/sounds/bleep.wav"," ","","","","","","",""
"","","","","","html-keyboard-response","196","2.0.0","150906","p8qo11rlu1a","ono","camel","22","Male","no","no","0","6","99","<div style=""font-size:30px;"">Press space to start the trial</div>"," ","","","","","","",""
"","","","","","html-keyboard-response","197","2.0.0","151172","p8qo11rlu1a","ono","camel","22","Male","no","no","0","6","null","<div style=""font-size:60px;"">+</div>","null","","","","","","",""
"","","","","","audio-keyboard-response","198","2.0.0","151783","p8qo11rlu1a","ono","camel","22","Male","no","no","0","6","null","stimuli/sounds/hiccup_sound_A.wav","null","","","","","","",""
"","","","","","html-keyboard-response","199","2.0.0","152792","p8qo11rlu1a","ono","camel","22","Male","no","no","0","6","null","","null","","","","","","",""
"","","","","","image-keyboard-response","200","2.0.0","153350","p8qo11rlu1a","ono","camel","22","Male","no","no","0","6","551","stimuli/pictures/motor_dirt_1.jpg","0","0","","true","no","sound","stimuli/sounds/hiccup_sound_A.wav",""
"","","","","","audio-keyboard-response","201","2.0.0","153486","p8qo11rlu1a","ono","camel","22","Male","no","no","0","6","139","stimuli/sounds/bleep.wav"," ","","","","","","",""
"","","","","","html-keyboard-response","202","2.0.0","153687","p8qo11rlu1a","ono","camel","22","Male","no","no","0","6","96","<div style=""font-size:30px;"">Press space to start the trial</div>"," ","","","","","","",""
"","","","","","html-keyboard-response","203","2.0.0","153943","p8qo11rlu1a","ono","camel","22","Male","no","no","0","6","null","<div style=""font-size:60px;"">+</div>","null","","","","","","",""
"","","","","","audio-keyboard-response","204","2.0.0","154543","p8qo11rlu1a","ono","camel","22","Male","no","no","0","6","null","stimuli/sounds/dog_label_A.wav","null","","","","","","",""
"","","","","","html-keyboard-response","205","2.0.0","155554","p8qo11rlu1a","ono","camel","22","Male","no","no","0","6","null","","null","","","","","","",""
"","","","","","image-keyboard-response","206","2.0.0","156091","p8qo11rlu1a","ono","camel","22","Male","no","no","0","6","533","stimuli/pictures/drop_single_1.jpg","0","0","","true","no","sound","stimuli/sounds/dog_label_A.wav",""
"","","","","","audio-keyboard-response","207","2.0.0","156201","p8qo11rlu1a","ono","camel","22","Male","no","no","0","6","99","stimuli/sounds/bleep.wav"," ","","","","","","",""
"","","","","","html-keyboard-response","208","2.0.0","156417","p8qo11rlu1a","ono","camel","22","Male","no","no","0","6","110","<div style=""font-size:30px;"">Press space to start the trial</div>"," ","","","","","","",""
"","","","","","html-keyboard-response","209","2.0.0","156676","p8qo11rlu1a","ono","camel","22","Male","no","no","0","6","null","<div style=""font-size:60px;"">+</div>","null","","","","","","",""
"","","","","","audio-keyboard-response","210","2.0.0","157283","p8qo11rlu1a","ono","camel","22","Male","no","no","0","6","null","stimuli/sounds/dog_sound_A.wav","null","","","","","","",""
"","","","","","html-keyboard-response","211","2.0.0","158294","p8qo11rlu1a","ono","camel","22","Male","no","no","0","6","null","","null","","","","","","",""
"","","","","","image-keyboard-response","212","2.0.0","159596","p8qo11rlu1a","ono","camel","22","Male","no","no","0","6","1298","stimuli/pictures/hiccup_man_2.jpg","0","0","","true","no","sound","stimuli/sounds/dog_sound_A.wav",""
"","","","","","audio-keyboard-response","213","2.0.0","159708","p8qo11rlu1a","ono","camel","22","Male","no","no","0","6","112","stimuli/sounds/bleep.wav"," ","","","","","","",""
"","","","","","html-keyboard-response","214","2.0.0","159906","p8qo11rlu1a","ono","camel","22","Male","no","no","0","6","88","<div style=""font-size:30px;"">Press space to start the trial</div>"," ","","","","","","",""
"","","","","","html-keyboard-response","215","2.0.0","160165","p8qo11rlu1a","ono","camel","22","Male","no","no","0","6","null","<div style=""font-size:60px;"">+</div>","null","","","","","","",""
"","","","","","audio-keyboard-response","216","2.0.0","160773","p8qo11rlu1a","ono","camel","22","Male","no","no","0","6","null","stimuli/sounds/drop_label_B.wav","null","","","","","","",""
"","","","","","html-keyboard-response","217","2.0.0","161783","p8qo11rlu1a","ono","camel","22","Male","no","no","0","6","null","","null","","","","","","",""
"","","","","","image-keyboard-response","218","2.0.0","162866","p8qo11rlu1a","ono","camel","22","Male","no","no","0","6","1081","stimuli/pictures/drop_single_1.jpg","1","1","","true","yes","sound","stimuli/sounds/drop_label_B.wav",""
"","","","","","audio-keyboard-response","219","2.0.0","162992","p8qo11rlu1a","ono","camel","22","Male","no","no","0","6","120","stimuli/sounds/bleep.wav"," ","","","","","","",""
"","","","","","html-keyboard-response","220","2.0.0","163211","p8qo11rlu1a","ono","camel","22","Male","no","no","0","6","110","<div style=""font-size:30px;"">Press space to start the trial</div>"," ","","","","","","",""
"","","","","","html-keyboard-response","221","2.0.0","163471","p8qo11rlu1a","ono","camel","22","Male","no","no","0","6","null","<div style=""font-size:60px;"">+</div>","null","","","","","","",""
"","","","","","audio-keyboard-response","222","2.0.0","164012","p8qo11rlu1a","ono","camel","22","Male","no","no","0","6","null","stimuli/sounds/drop_label_A.wav","null","","","","","","",""
"","","","","","html-keyboard-response","223","2.0.0","165015","p8qo11rlu1a","ono","camel","22","Male","no","no","0","6","null","","null","","","","","","",""
"","","","","","image-keyboard-response","224","2.0.0","165404","p8qo11rlu1a","ono","camel","22","Male","no","no","0","6","386","stimuli/pictures/drop_multi_2.jpg","1","1","","true","yes","sound","stimuli/sounds/drop_label_A.wav",""
"","","","","","audio-keyboard-response","225","2.0.0","165521","p8qo11rlu1a","ono","camel","22","Male","no","no","0","6","109","stimuli/sounds/bleep.wav"," ","","","","","","",""
"","","","","","html-keyboard-response","226","2.0.0","165719","p8qo11rlu1a","ono","camel","22","Male","no","no","0","6","91","<div style=""font-size:30px;"">Press space to start the trial</div>"," ","","","","","","",""
"","","","","","html-keyboard-response","227","2.0.0","165984","p8qo11rlu1a","ono","camel","22","Male","no","no","0","6","null","<div style=""font-size:60px;"">+</div>","null","","","","","","",""
"","","","","","audio-keyboard-response","228","2.0.0","166583","p8qo11rlu1a","ono","camel","22","Male","no","no","0","6","null","stimuli/sounds/motor_sound_B.wav","null","","","","","","",""
"","","","","","html-keyboard-response","229","2.0.0","167597","p8qo11rlu1a","ono","camel","22","Male","no","no","0","6","null","","null","","","","","","",""
"","","","","","image-keyboard-response","230","2.0.0","168173","p8qo11rlu1a","ono","camel","22","Male","no","no","0","6","572","stimuli/pictures/motor_dirt_1.jpg","0","1","","false","no","sound","stimuli/sounds/motor_sound_B.wav",""
"","","","","","audio-keyboard-response","231","2.0.0","168249","p8qo11rlu1a","ono","camel","22","Male","no","no","0","6","69","stimuli/sounds/buzz.wav"," ","","","","","","",""
"","","","","","html-keyboard-response","232","2.0.0","168445","p8qo11rlu1a","ono","camel","22","Male","no","no","0","6","86","<div style=""font-size:30px;"">Press space to start the trial</div>"," ","","","","","","",""
"","","","","","html-keyboard-response","233","2.0.0","168706","p8qo11rlu1a","ono","camel","22","Male","no","no","0","6","null","<div style=""font-size:60px;"">+</div>","null","","","","","","",""
"","","","","","audio-keyboard-response","234","2.0.0","169312","p8qo11rlu1a","ono","camel","22","Male","no","no","0","6","null","stimuli/sounds/hiccup_sound_B.wav","null","","","","","","",""
"","","","","","html-keyboard-response","235","2.0.0","170318","p8qo11rlu1a","ono","camel","22","Male","no","no","0","6","null","","null","","","","","","",""
"","","","","","image-keyboard-response","236","2.0.0","171454","p8qo11rlu1a","ono","camel","22","Male","no","no","0","6","1133","stimuli/pictures/drop_single_1.jpg","0","0","","true","no","sound","stimuli/sounds/hiccup_sound_B.wav",""
"","","","","","audio-keyboard-response","237","2.0.0","171559","p8qo11rlu1a","ono","camel","22","Male","no","no","0","6","99","stimuli/sounds/bleep.wav"," ","","","","","","",""
"","","","","","html-keyboard-response","238","2.0.0","171765","p8qo11rlu1a","ono","camel","22","Male","no","no","0","6","97","<div style=""font-size:30px;"">Press space to start the trial</div>"," ","","","","","","",""
"","","","","","html-keyboard-response","239","2.0.0","172019","p8qo11rlu1a","ono","camel","22","Male","no","no","0","6","null","<div style=""font-size:60px;"">+</div>","null","","","","","","",""
"","","","","","audio-keyboard-response","240","2.0.0","172623","p8qo11rlu1a","ono","camel","22","Male","no","no","0","6","null","stimuli/sounds/hiccup_label_B.wav","null","","","","","","",""
"","","","","","html-keyboard-response","241","2.0.0","173637","p8qo11rlu1a","ono","camel","22","Male","no","no","0","6","null","","null","","","","","","",""
"","","","","","image-keyboard-response","242","2.0.0","174315","p8qo11rlu1a","ono","camel","22","Male","no","no","0","6","675","stimuli/pictures/hiccup_man_2.jpg","1","1","","true","yes","sound","stimuli/sounds/hiccup_label_B.wav",""
"","","","","","audio-keyboard-response","243","2.0.0","174470","p8qo11rlu1a","ono","camel","22","Male","no","no","0","6","152","stimuli/sounds/bleep.wav"," ","","","","","","",""
"","","","","","html-keyboard-response","244","2.0.0","174700","p8qo11rlu1a","ono","camel","22","Male","no","no","0","6","121","<div style=""font-size:30px;"">Press space to start the trial</div>"," ","","","","","","",""
"","","","","","html-keyboard-response","245","2.0.0","174964","p8qo11rlu1a","ono","camel","22","Male","no","no","0","6","null","<div style=""font-size:60px;"">+</div>","null","","","","","","",""
"","","","","","audio-keyboard-response","246","2.0.0","175632","p8qo11rlu1a","ono","camel","22","Male","no","no","0","6","null","stimuli/sounds/cough_sound_A.wav","null","","","","","","",""
"","","","","","html-keyboard-response","247","2.0.0","176636","p8qo11rlu1a","ono","camel","22","Male","no","no","0","6","null","","null","","","","","","",""
"","","","","","image-keyboard-response","248","2.0.0","177507","p8qo11rlu1a","ono","camel","22","Male","no","no","0","6","869","stimuli/pictures/dog_york_2.jpg","0","0","","true","no","sound","stimuli/sounds/cough_sound_A.wav",""
"","","","","","audio-keyboard-response","249","2.0.0","177611","p8qo11rlu1a","ono","camel","22","Male","no","no","0","6","99","stimuli/sounds/bleep.wav"," ","","","","","","",""
"","","","","","html-keyboard-response","250","2.0.0","177823","p8qo11rlu1a","ono","camel","22","Male","no","no","0","6","95","<div style=""font-size:30px;"">Press space to start the trial</div>"," ","","","","","","",""
"","","","","","html-keyboard-response","251","2.0.0","178089","p8qo11rlu1a","ono","camel","22","Male","no","no","0","6","null","<div style=""font-size:60px;"">+</div>","null","","","","","","",""
"","","","","","audio-keyboard-response","252","2.0.0","178682","p8qo11rlu1a","ono","camel","22","Male","no","no","0","6","null","stimuli/sounds/motor_sound_B.wav","null","","","","","","",""
"","","","","","html-keyboard-response","253","2.0.0","179689","p8qo11rlu1a","ono","camel","22","Male","no","no","0","6","null","","null","","","","","","",""
"","","","","","image-keyboard-response","254","2.0.0","180845","p8qo11rlu1a","ono","camel","22","Male","no","no","0","6","1154","stimuli/pictures/cough_man_2.jpg","0","0","","true","no","sound","stimuli/sounds/motor_sound_B.wav",""
"","","","","","audio-keyboard-response","255","2.0.0","180943","p8qo11rlu1a","ono","camel","22","Male","no","no","0","6","101","stimuli/sounds/bleep.wav"," ","","","","","","",""
"","","","","","html-keyboard-response","256","2.0.0","181137","p8qo11rlu1a","ono","camel","22","Male","no","no","0","6","85","<div style=""font-size:30px;"">Press space to start the trial</div>"," ","","","","","","",""
"","","","","","html-keyboard-response","257","2.0.0","181393","p8qo11rlu1a","ono","camel","22","Male","no","no","0","6","null","<div style=""font-size:60px;"">+</div>","null","","","","","","",""
"","","","","","audio-keyboard-response","258","2.0.0","182002","p8qo11rlu1a","ono","camel","22","Male","no","no","0","6","null","stimuli/sounds/hiccup_label_B.wav","null","","","","","","",""
"","","","","","html-keyboard-response","259","2.0.0","183014","p8qo11rlu1a","ono","camel","22","Male","no","no","0","6","null","","null","","","","","","",""
"","","","","","image-keyboard-response","260","2.0.0","183827","p8qo11rlu1a","ono","camel","22","Male","no","no","0","6","812","stimuli/pictures/dog_rott_1.jpg","0","0","","true","no","sound","stimuli/sounds/hiccup_label_B.wav",""
"","","","","","audio-keyboard-response","261","2.0.0","183927","p8qo11rlu1a","ono","camel","22","Male","no","no","0","6","99","stimuli/sounds/bleep.wav"," ","","","","","","",""
"","","","","","html-keyboard-response","262","2.0.0","184108","p8qo11rlu1a","ono","camel","22","Male","no","no","0","6","74","<div style=""font-size:30px;"">Press space to start the trial</div>"," ","","","","","","",""
"","","","","","html-keyboard-response","263","2.0.0","184361","p8qo11rlu1a","ono","camel","22","Male","no","no","0","6","null","<div style=""font-size:60px;"">+</div>","null","","","","","","",""
"","","","","","audio-keyboard-response","264","2.0.0","185002","p8qo11rlu1a","ono","camel","22","Male","no","no","0","6","null","stimuli/sounds/cough_label_A.wav","null","","","","","","",""
"","","","","","html-keyboard-response","265","2.0.0","186012","p8qo11rlu1a","ono","camel","22","Male","no","no","0","6","null","","null","","","","","","",""
"","","","","","image-keyboard-response","266","2.0.0","186828","p8qo11rlu1a","ono","camel","22","Male","no","no","0","6","813","stimuli/pictures/motor_dirt_1.jpg","0","0","","true","no","sound","stimuli/sounds/cough_label_A.wav",""
"","","","","","audio-keyboard-response","267","2.0.0","186919","p8qo11rlu1a","ono","camel","22","Male","no","no","0","6","88","stimuli/sounds/bleep.wav"," ","","","","","","",""
"","","","","","html-keyboard-response","268","2.0.0","188384","p8qo11rlu1a","ono","camel","22","Male","no","no","0","6","1354","<p>You have completed a block. Press R when you are ready to continue</p>","r","","","","","","",""
"","","","","","html-keyboard-response","269","2.0.0","189346","p8qo11rlu1a","ono","camel","22","Male","no","no","0","6","961","<div style=""font-size:30px;"">Press space to start the trial</div>"," ","","","","","","",""
"","","","","","html-keyboard-response","270","2.0.0","189609","p8qo11rlu1a","ono","camel","22","Male","no","no","0","6","null","<div style=""font-size:60px;"">+</div>","null","","","","","","",""
"","","","","","audio-keyboard-response","271","2.0.0","190244","p8qo11rlu1a","ono","camel","22","Male","no","no","0","6","null","stimuli/sounds/cough_label_A.wav","null","","","","","","",""
"","","","","","html-keyboard-response","272","2.0.0","191253","p8qo11rlu1a","ono","camel","22","Male","no","no","0","6","null","","null","","","","","","",""
"","","","","","image-keyboard-response","273","2.0.0","192087","p8qo11rlu1a","ono","camel","22","Male","no","no","0","6","830","stimuli/pictures/cough_wom_1.jpg","1","1","","true","yes","sound","stimuli/sounds/cough_label_A.wav",""
"","","","","","audio-keyboard-response","274","2.0.0","192155","p8qo11rlu1a","ono","camel","22","Male","no","no","0","6","69","stimuli/sounds/bleep.wav"," ","","","","","","",""
"","","","","","html-keyboard-response","275","2.0.0","192353","p8qo11rlu1a","ono","camel","22","Male","no","no","0","6","84","<div style=""font-size:30px;"">Press space to start the trial</div>"," ","","","","","","",""
"","","","","","html-keyboard-response","276","2.0.0","192610","p8qo11rlu1a","ono","camel","22","Male","no","no","0","6","null","<div style=""font-size:60px;"">+</div>","null","","","","","","",""
"","","","","","audio-keyboard-response","277","2.0.0","193204","p8qo11rlu1a","ono","camel","22","Male","no","no","0","6","null","stimuli/sounds/motor_label_A.wav","null","","","","","","",""
"","","","","","html-keyboard-response","278","2.0.0","194223","p8qo11rlu1a","ono","camel","22","Male","no","no","0","6","null","","null","","","","","","",""
"","","","","","image-keyboard-response","279","2.0.0","194798","p8qo11rlu1a","ono","camel","22","Male","no","no","0","6","573","stimuli/pictures/motor_dirt_2.jpg","0","1","","false","yes","sound","stimuli/sounds/motor_label_A.wav",""
"","","","","","audio-keyboard-response","280","2.0.0","194854","p8qo11rlu1a","ono","camel","22","Male","no","no","0","6","61","stimuli/sounds/buzz.wav"," ","","","","","","",""
"","","","","","html-keyboard-response","281","2.0.0","195056","p8qo11rlu1a","ono","camel","22","Male","no","no","0","6","82","<div style=""font-size:30px;"">Press space to start the trial</div>"," ","","","","","","",""
"","","","","","html-keyboard-response","282","2.0.0","195309","p8qo11rlu1a","ono","camel","22","Male","no","no","0","6","null","<div style=""font-size:60px;"">+</div>","null","","","","","","",""
"","","","","","audio-keyboard-response","283","2.0.0","195973","p8qo11rlu1a","ono","camel","22","Male","no","no","0","6","null","stimuli/sounds/cough_sound_A.wav","null","","","","","","",""
"","","","","","html-keyboard-response","284","2.0.0","196989","p8qo11rlu1a","ono","camel","22","Male","no","no","0","6","null","","null","","","","","","",""
"","","","","","image-keyboard-response","285","2.0.0","197757","p8qo11rlu1a","ono","camel","22","Male","no","no","0","6","763","stimuli/pictures/cough_wom_1.jpg","1","1","","true","yes","sound","stimuli/sounds/cough_sound_A.wav",""
"","","","","","audio-keyboard-response","286","2.0.0","197840","p8qo11rlu1a","ono","camel","22","Male","no","no","0","6","80","stimuli/sounds/bleep.wav"," ","","","","","","",""
"","","","","","html-keyboard-response","287","2.0.0","198034","p8qo11rlu1a","ono","camel","22","Male","no","no","0","6","91","<div style=""font-size:30px;"">Press space to start the trial</div>"," ","","","","","","",""
"","","","","","html-keyboard-response","288","2.0.0","198288","p8qo11rlu1a","ono","camel","22","Male","no","no","0","6","null","<div style=""font-size:60px;"">+</div>","null","","","","","","",""
"","","","","","audio-keyboard-response","289","2.0.0","198894","p8qo11rlu1a","ono","camel","22","Male","no","no","0","6","null","stimuli/sounds/hiccup_sound_A.wav","null","","","","","","",""
"","","","","","html-keyboard-response","290","2.0.0","199906","p8qo11rlu1a","ono","camel","22","Male","no","no","0","6","null","","null","","","","","","",""
"","","","","","image-keyboard-response","291","2.0.0","200899","p8qo11rlu1a","ono","camel","22","Male","no","no","0","6","990","stimuli/pictures/hiccup_man_1.jpg","1","1","","true","no","sound","stimuli/sounds/hiccup_sound_A.wav",""
"","","","","","audio-keyboard-response","292","2.0.0","200990","p8qo11rlu1a","ono","camel","22","Male","no","no","0","6","91","stimuli/sounds/bleep.wav"," ","","","","","","",""
"","","","","","html-keyboard-response","293","2.0.0","201193","p8qo11rlu1a","ono","camel","22","Male","no","no","0","6","100","<div style=""font-size:30px;"">Press space to start the trial</div>"," ","","","","","","",""
"","","","","","html-keyboard-response","294","2.0.0","201459","p8qo11rlu1a","ono","camel","22","Male","no","no","0","6","null","<div style=""font-size:60px;"">+</div>","null","","","","","","",""
"","","","","","audio-keyboard-response","295","2.0.0","202062","p8qo11rlu1a","ono","camel","22","Male","no","no","0","6","null","stimuli/sounds/motor_label_B.wav","null","","","","","","",""
"","","","","","html-keyboard-response","296","2.0.0","203066","p8qo11rlu1a","ono","camel","22","Male","no","no","0","6","null","","null","","","","","","",""
"","","","","","image-keyboard-response","297","2.0.0","204098","p8qo11rlu1a","ono","camel","22","Male","no","no","0","6","1029","stimuli/pictures/motor_dirt_2.jpg","1","1","","true","yes","sound","stimuli/sounds/motor_label_B.wav",""
"","","","","","audio-keyboard-response","298","2.0.0","204172","p8qo11rlu1a","ono","camel","22","Male","no","no","0","6","80","stimuli/sounds/bleep.wav"," ","","","","","","",""
"","","","","","html-keyboard-response","299","2.0.0","204351","p8qo11rlu1a","ono","camel","22","Male","no","no","0","6","65","<div style=""font-size:30px;"">Press space to start the trial</div>"," ","","","","","","",""
"","","","","","html-keyboard-response","300","2.0.0","204615","p8qo11rlu1a","ono","camel","22","Male","no","no","0","6","null","<div style=""font-size:60px;"">+</div>","null","","","","","","",""
"","","","","","audio-keyboard-response","301","2.0.0","205212","p8qo11rlu1a","ono","camel","22","Male","no","no","0","6","null","stimuli/sounds/motor_label_B.wav","null","","","","","","",""
"","","","","","html-keyboard-response","302","2.0.0","206224","p8qo11rlu1a","ono","camel","22","Male","no","no","0","6","null","","null","","","","","","",""
"","","","","","image-keyboard-response","303","2.0.0","206614","p8qo11rlu1a","ono","camel","22","Male","no","no","0","6","386","stimuli/pictures/motor_harley_1.jpg","1","1","","true","yes","sound","stimuli/sounds/motor_label_B.wav",""
"","","","","","audio-keyboard-response","304","2.0.0","206679","p8qo11rlu1a","ono","camel","22","Male","no","no","0","6","59","stimuli/sounds/bleep.wav"," ","","","","","","",""
"","","","","","html-keyboard-response","305","2.0.0","206875","p8qo11rlu1a","ono","camel","22","Male","no","no","0","6","86","<div style=""font-size:30px;"">Press space to start the trial</div>"," ","","","","","","",""
"","","","","","html-keyboard-response","306","2.0.0","207135","p8qo11rlu1a","ono","camel","22","Male","no","no","0","6","null","<div style=""font-size:60px;"">+</div>","null","","","","","","",""
"","","","","","audio-keyboard-response","307","2.0.0","207814","p8qo11rlu1a","ono","camel","22","Male","no","no","0","6","null","stimuli/sounds/cough_sound_B.wav","null","","","","","","",""
"","","","","","html-keyboard-response","308","2.0.0","208817","p8qo11rlu1a","ono","camel","22","Male","no","no","0","6","null","","null","","","","","","",""
"","","","","","image-keyboard-response","309","2.0.0","209356","p8qo11rlu1a","ono","camel","22","Male","no","no","0","6","536","stimuli/pictures/cough_man_2.jpg","1","1","","true","yes","sound","stimuli/sounds/cough_sound_B.wav",""
"","","","","","audio-keyboard-response","310","2.0.0","209430","p8qo11rlu1a","ono","camel","22","Male","no","no","0","6","72","stimuli/sounds/bleep.wav"," ","","","","","","",""
"","","","","","html-keyboard-response","311","2.0.0","209621","p8qo11rlu1a","ono","camel","22","Male","no","no","0","6","88","<div style=""font-size:30px;"">Press space to start the trial</div>"," ","","","","","","",""
"","","","","","html-keyboard-response","312","2.0.0","209882","p8qo11rlu1a","ono","camel","22","Male","no","no","0","6","null","<div style=""font-size:60px;"">+</div>","null","","","","","","",""
"","","","","","audio-keyboard-response","313","2.0.0","210432","p8qo11rlu1a","ono","camel","22","Male","no","no","0","6","null","stimuli/sounds/drop_label_A.wav","null","","","","","","",""
"","","","","","html-keyboard-response","314","2.0.0","211447","p8qo11rlu1a","ono","camel","22","Male","no","no","0","6","null","","null","","","","","","",""
"","","","","","image-keyboard-response","315","2.0.0","211940","p8qo11rlu1a","ono","camel","22","Male","no","no","0","6","491","stimuli/pictures/drop_single_2.jpg","0","1","","false","yes","sound","stimuli/sounds/drop_label_A.wav",""
"","","","","","audio-keyboard-response","316","2.0.0","212136","p8qo11rlu1a","ono","camel","22","Male","no","no","0","6","200","stimuli/sounds/buzz.wav"," ","","","","","","",""
"","","","","","html-keyboard-response","317","2.0.0","212679","p8qo11rlu1a","ono","camel","22","Male","no","no","0","6","436","<div style=""font-size:30px;"">Press space to start the trial</div>"," ","","","","","","",""
"","","","","","html-keyboard-response","318","2.0.0","212945","p8qo11rlu1a","ono","camel","22","Male","no","no","0","6","null","<div style=""font-size:60px;"">+</div>","null","","","","","","",""
"","","","","","audio-keyboard-response","319","2.0.0","213553","p8qo11rlu1a","ono","camel","22","Male","no","no","0","6","null","stimuli/sounds/hiccup_sound_B.wav","null","","","","","","",""
"","","","","","html-keyboard-response","320","2.0.0","214558","p8qo11rlu1a","ono","camel","22","Male","no","no","0","6","null","","null","","","","","","",""
"","","","","","image-keyboard-response","321","2.0.0","215263","p8qo11rlu1a","ono","camel","22","Male","no","no","0","6","703","stimuli/pictures/hiccup_wom_2.jpg","1","1","","true","no","sound","stimuli/sounds/hiccup_sound_B.wav",""
"","","","","","audio-keyboard-response","322","2.0.0","215334","p8qo11rlu1a","ono","camel","22","Male","no","no","0","6","69","stimuli/sounds/bleep.wav"," ","","","","","","",""
"","","","","","html-keyboard-response","323","2.0.0","215547","p8qo11rlu1a","ono","camel","22","Male","no","no","0","6","110","<div style=""font-size:30px;"">Press space to start the trial</div>"," ","","","","","","",""
"","","","","","html-keyboard-response","324","2.0.0","215806","p8qo11rlu1a","ono","camel","22","Male","no","no","0","6","null","<div style=""font-size:60px;"">+</div>","null","","","","","","",""
"","","","","","audio-keyboard-response","325","2.0.0","216414","p8qo11rlu1a","ono","camel","22","Male","no","no","0","6","null","stimuli/sounds/cough_label_B.wav","null","","","","","","",""
"","","","","","html-keyboard-response","326","2.0.0","217427","p8qo11rlu1a","ono","camel","22","Male","no","no","0","6","null","","null","","","","","","",""
"","","","","","image-keyboard-response","327","2.0.0","217975","p8qo11rlu1a","ono","camel","22","Male","no","no","0","6","546","stimuli/pictures/cough_man_1.jpg","1","1","","true","yes","sound","stimuli/sounds/cough_label_B.wav",""
"","","","","","audio-keyboard-response","328","2.0.0","218079","p8qo11rlu1a","ono","camel","22","Male","no","no","0","6","99","stimuli/sounds/bleep.wav"," ","","","","","","",""
"","","","","","html-keyboard-response","329","2.0.0","218301","p8qo11rlu1a","ono","camel","22","Male","no","no","0","6","112","<div style=""font-size:30px;"">Press space to start the trial</div>"," ","","","","","","",""
"","","","","","html-keyboard-response","330","2.0.0","218563","p8qo11rlu1a","ono","camel","22","Male","no","no","0","6","null","<div style=""font-size:60px;"">+</div>","null","","","","","","",""
"","","","","","audio-keyboard-response","331","2.0.0","219164","p8qo11rlu1a","ono","camel","22","Male","no","no","0","6","null","stimuli/sounds/motor_label_A.wav","null","","","","","","",""
"","","","","","html-keyboard-response","332","2.0.0","220176","p8qo11rlu1a","ono","camel","22","Male","no","no","0","6","null","","null","","","","","","",""
"","","","","","image-keyboard-response","333","2.0.0","221627","p8qo11rlu1a","ono","camel","22","Male","no","no","0","6","1447","stimuli/pictures/dog_rott_1.jpg","0","0","","true","no","sound","stimuli/sounds/motor_label_A.wav",""
"","","","","","audio-keyboard-response","334","2.0.0","221694","p8qo11rlu1a","ono","camel","22","Male","no","no","0","6","69","stimuli/sounds/bleep.wav"," ","","","","","","",""
"","","","","","html-keyboard-response","335","2.0.0","221914","p8qo11rlu1a","ono","camel","22","Male","no","no","0","6","118","<div style=""font-size:30px;"">Press space to start the trial</div>"," ","","","","","","",""
"","","","","","html-keyboard-response","336","2.0.0","222172","p8qo11rlu1a","ono","camel","22","Male","no","no","0","6","null","<div style=""font-size:60px;"">+</div>","null","","","","","","",""
"","","","","","audio-keyboard-response","337","2.0.0","222783","p8qo11rlu1a","ono","camel","22","Male","no","no","0","6","null","stimuli/sounds/dog_sound_A.wav","null","","","","","","",""
"","","","","","html-keyboard-response","338","2.0.0","223790","p8qo11rlu1a","ono","camel","22","Male","no","no","0","6","null","","null","","","","","","",""
"","","","","","image-keyboard-response","339","2.0.0","225624","p8qo11rlu1a","ono","camel","22","Male","no","no","0","6","1831","stimuli/pictures/hiccup_man_1.jpg","0","0","","true","no","sound","stimuli/sounds/dog_sound_A.wav",""
"","","","","","audio-keyboard-response","340","2.0.0","225671","p8qo11rlu1a","ono","camel","22","Male","no","no","0","6","40","stimuli/sounds/bleep.wav"," ","","","","","","",""
"","","","","","html-keyboard-response","341","2.0.0","225881","p8qo11rlu1a","ono","camel","22","Male","no","no","0","6","99","<div style=""font-size:30px;"">Press space to start the trial</div>"," ","","","","","","",""
"","","","","","html-keyboard-response","342","2.0.0","226135","p8qo11rlu1a","ono","camel","22","Male","no","no","0","6","null","<div style=""font-size:60px;"">+</div>","null","","","","","","",""
"","","","","","audio-keyboard-response","343","2.0.0","226772","p8qo11rlu1a","ono","camel","22","Male","no","no","0","6","null","stimuli/sounds/cough_label_A.wav","null","","","","","","",""
"","","","","","html-keyboard-response","344","2.0.0","227785","p8qo11rlu1a","ono","camel","22","Male","no","no","0","6","null","","null","","","","","","",""
"","","","","","image-keyboard-response","345","2.0.0","229549","p8qo11rlu1a","ono","camel","22","Male","no","no","0","6","1760","stimuli/pictures/cough_man_1.jpg","1","1","","true","yes","sound","stimuli/sounds/cough_label_A.wav",""
"","","","","","audio-keyboard-response","346","2.0.0","229619","p8qo11rlu1a","ono","camel","22","Male","no","no","0","6","69","stimuli/sounds/bleep.wav"," ","","","","","","",""
"","","","","","html-keyboard-response","347","2.0.0","229816","p8qo11rlu1a","ono","camel","22","Male","no","no","0","6","80","<div style=""font-size:30px;"">Press space to start the trial</div>"," ","","","","","","",""
"","","","","","html-keyboard-response","348","2.0.0","230080","p8qo11rlu1a","ono","camel","22","Male","no","no","0","6","null","<div style=""font-size:60px;"">+</div>","null","","","","","","",""
"","","","","","audio-keyboard-response","349","2.0.0","230682","p8qo11rlu1a","ono","camel","22","Male","no","no","0","6","null","stimuli/sounds/dog_sound_A.wav","null","","","","","","",""
"","","","","","html-keyboard-response","350","2.0.0","231687","p8qo11rlu1a","ono","camel","22","Male","no","no","0","6","null","","null","","","","","","",""
"","","","","","image-keyboard-response","351","2.0.0","232600","p8qo11rlu1a","ono","camel","22","Male","no","no","0","6","910","stimuli/pictures/dog_rott_2.jpg","1","1","","true","yes","sound","stimuli/sounds/dog_sound_A.wav",""
"","","","","","audio-keyboard-response","352","2.0.0","232909","p8qo11rlu1a","ono","camel","22","Male","no","no","0","6","312","stimuli/sounds/bleep.wav"," ","","","","","","",""
"","","","","","html-keyboard-response","353","2.0.0","233335","p8qo11rlu1a","ono","camel","22","Male","no","no","0","6","322","<div style=""font-size:30px;"">Press space to start the trial</div>"," ","","","","","","",""
"","","","","","html-keyboard-response","354","2.0.0","233599","p8qo11rlu1a","ono","camel","22","Male","no","no","0","6","null","<div style=""font-size:60px;"">+</div>","null","","","","","","",""
"","","","","","audio-keyboard-response","355","2.0.0","234132","p8qo11rlu1a","ono","camel","22","Male","no","no","0","6","null","stimuli/sounds/hiccup_label_A.wav","null","","","","","","",""
"","","","","","html-keyboard-response","356","2.0.0","235135","p8qo11rlu1a","ono","camel","22","Male","no","no","0","6","null","","null","","","","","","",""
"","","","","","image-keyboard-response","357","2.0.0","235798","p8qo11rlu1a","ono","camel","22","Male","no","no","0","6","661","stimuli/pictures/hiccup_man_2.jpg","1","1","","true","yes","sound","stimuli/sounds/hiccup_label_A.wav",""
"","","","","","audio-keyboard-response","358","2.0.0","235884","p8qo11rlu1a","ono","camel","22","Male","no","no","0","6","91","stimuli/sounds/bleep.wav"," ","","","","","","",""
"","","","","","html-keyboard-response","359","2.0.0","236080","p8qo11rlu1a","ono","camel","22","Male","no","no","0","6","89","<div style=""font-size:30px;"">Press space to start the trial</div>"," ","","","","","","",""
"","","","","","html-keyboard-response","360","2.0.0","236338","p8qo11rlu1a","ono","camel","22","Male","no","no","0","6","null","<div style=""font-size:60px;"">+</div>","null","","","","","","",""
"","","","","","audio-keyboard-response","361","2.0.0","236883","p8qo11rlu1a","ono","camel","22","Male","no","no","0","6","null","stimuli/sounds/drop_label_A.wav","null","","","","","","",""
"","","","","","html-keyboard-response","362","2.0.0","237891","p8qo11rlu1a","ono","camel","22","Male","no","no","0","6","null","","null","","","","","","",""
"","","","","","image-keyboard-response","363","2.0.0","238789","p8qo11rlu1a","ono","camel","22","Male","no","no","0","6","895","stimuli/pictures/hiccup_man_1.jpg","0","0","","true","no","sound","stimuli/sounds/drop_label_A.wav",""
"","","","","","audio-keyboard-response","364","2.0.0","238863","p8qo11rlu1a","ono","camel","22","Male","no","no","0","6","80","stimuli/sounds/bleep.wav"," ","","","","","","",""
"","","","","","html-keyboard-response","365","2.0.0","239056","p8qo11rlu1a","ono","camel","22","Male","no","no","0","6","81","<div style=""font-size:30px;"">Press space to start the trial</div>"," ","","","","","","",""
"","","","","","html-keyboard-response","366","2.0.0","239323","p8qo11rlu1a","ono","camel","22","Male","no","no","0","6","null","<div style=""font-size:60px;"">+</div>","null","","","","","","",""
"","","","","","audio-keyboard-response","367","2.0.0","239923","p8qo11rlu1a","ono","camel","22","Male","no","no","0","6","null","stimuli/sounds/motor_sound_A.wav","null","","","","","","",""
"","","","","","html-keyboard-response","368","2.0.0","240927","p8qo11rlu1a","ono","camel","22","Male","no","no","0","6","null","","null","","","","","","",""
"","","","","","image-keyboard-response","369","2.0.0","242417","p8qo11rlu1a","ono","camel","22","Male","no","no","0","6","1486","stimuli/pictures/drop_single_2.jpg","0","0","","true","no","sound","stimuli/sounds/motor_sound_A.wav",""
"","","","","","audio-keyboard-response","370","2.0.0","242502","p8qo11rlu1a","ono","camel","22","Male","no","no","0","6","80","stimuli/sounds/bleep.wav"," ","","","","","","",""
"","","","","","html-keyboard-response","371","2.0.0","242694","p8qo11rlu1a","ono","camel","22","Male","no","no","0","6","79","<div style=""font-size:30px;"">Press space to start the trial</div>"," ","","","","","","",""
"","","","","","html-keyboard-response","372","2.0.0","242955","p8qo11rlu1a","ono","camel","22","Male","no","no","0","6","null","<div style=""font-size:60px;"">+</div>","null","","","","","","",""
"","","","","","audio-keyboard-response","373","2.0.0","243563","p8qo11rlu1a","ono","camel","22","Male","no","no","0","6","null","stimuli/sounds/hiccup_sound_A.wav","null","","","","","","",""
"","","","","","html-keyboard-response","374","2.0.0","244577","p8qo11rlu1a","ono","camel","22","Male","no","no","0","6","null","","null","","","","","","",""
"","","","","","image-keyboard-response","375","2.0.0","246030","p8qo11rlu1a","ono","camel","22","Male","no","no","0","6","1450","stimuli/pictures/motor_harley_1.jpg","0","0","","true","no","sound","stimuli/sounds/hiccup_sound_A.wav",""
"","","","","","audio-keyboard-response","376","2.0.0","246116","p8qo11rlu1a","ono","camel","22","Male","no","no","0","6","88","stimuli/sounds/bleep.wav"," ","","","","","","",""
"","","","","","html-keyboard-response","377","2.0.0","246340","p8qo11rlu1a","ono","camel","22","Male","no","no","0","6","106","<div style=""font-size:30px;"">Press space to start the trial</div>"," ","","","","","","",""
"","","","","","html-keyboard-response","378","2.0.0","246601","p8qo11rlu1a","ono","camel","22","Male","no","no","0","6","null","<div style=""font-size:60px;"">+</div>","null","","","","","","",""
"","","","","","audio-keyboard-response","379","2.0.0","247193","p8qo11rlu1a","ono","camel","22","Male","no","no","0","6","null","stimuli/sounds/motor_sound_A.wav","null","","","","","","",""
"","","","","","html-keyboard-response","380","2.0.0","248199","p8qo11rlu1a","ono","camel","22","Male","no","no","0","6","null","","null","","","","","","",""
"","","","","","image-keyboard-response","381","2.0.0","249062","p8qo11rlu1a","ono","camel","22","Male","no","no","0","6","861","stimuli/pictures/drop_multi_2.jpg","0","0","","true","no","sound","stimuli/sounds/motor_sound_A.wav",""
"","","","","","audio-keyboard-response","382","2.0.0","249133","p8qo11rlu1a","ono","camel","22","Male","no","no","0","6","69","stimuli/sounds/bleep.wav"," ","","","","","","",""
"","","","","","html-keyboard-response","383","2.0.0","249359","p8qo11rlu1a","ono","camel","22","Male","no","no","0","6","122","<div style=""font-size:30px;"">Press space to start the trial</div>"," ","","","","","","",""
"","","","","","html-keyboard-response","384","2.0.0","249623","p8qo11rlu1a","ono","camel","22","Male","no","no","0","6","null","<div style=""font-size:60px;"">+</div>","null","","","","","","",""
"","","","","","audio-keyboard-response","385","2.0.0","250293","p8qo11rlu1a","ono","camel","22","Male","no","no","0","6","null","stimuli/sounds/cough_sound_A.wav","null","","","","","","",""
"","","","","","html-keyboard-response","386","2.0.0","251307","p8qo11rlu1a","ono","camel","22","Male","no","no","0","6","null","","null","","","","","","",""
"","","","","","image-keyboard-response","387","2.0.0","252050","p8qo11rlu1a","ono","camel","22","Male","no","no","0","6","738","stimuli/pictures/cough_wom_2.jpg","1","1","","true","yes","sound","stimuli/sounds/cough_sound_A.wav",""
"","","","","","audio-keyboard-response","388","2.0.0","252052","p8qo11rlu1a","ono","camel","22","Male","no","no","0","6","11","stimuli/sounds/bleep.wav"," ","","","","","","",""
"","","","","","html-keyboard-response","389","2.0.0","253244","p8qo11rlu1a","ono","camel","22","Male","no","no","0","6","1090","<p>You have completed a block. Press R when you are ready to continue</p>","r","","","","","","",""
"","","","","","html-keyboard-response","390","2.0.0","253738","p8qo11rlu1a","ono","camel","22","Male","no","no","0","6","491","<div style=""font-size:30px;"">Press space to start the trial</div>"," ","","","","","","",""
"","","","","","html-keyboard-response","391","2.0.0","253995","p8qo11rlu1a","ono","camel","22","Male","no","no","0","6","null","<div style=""font-size:60px;"">+</div>","null","","","","","","",""
"","","","","","audio-keyboard-response","392","2.0.0","254592","p8qo11rlu1a","ono","camel","22","Male","no","no","0","6","null","stimuli/sounds/dog_label_B.wav","null","","","","","","",""
"","","","","","html-keyboard-response","393","2.0.0","255608","p8qo11rlu1a","ono","camel","22","Male","no","no","0","6","null","","null","","","","","","",""
"","","","","","image-keyboard-response","394","2.0.0","256973","p8qo11rlu1a","ono","camel","22","Male","no","no","0","6","1362","stimuli/pictures/cough_wom_2.jpg","0","0","","true","no","sound","stimuli/sounds/dog_label_B.wav",""
"","","","","","audio-keyboard-response","395","2.0.0","257021","p8qo11rlu1a","ono","camel","22","Male","no","no","0","6","40","stimuli/sounds/bleep.wav"," ","","","","","","",""
"","","","","","html-keyboard-response","396","2.0.0","257240","p8qo11rlu1a","ono","camel","22","Male","no","no","0","6","109","<div style=""font-size:30px;"">Press space to start the trial</div>"," ","","","","","","",""
"","","","","","html-keyboard-response","397","2.0.0","257507","p8qo11rlu1a","ono","camel","22","Male","no","no","0","6","null","<div style=""font-size:60px;"">+</div>","null","","","","","","",""
"","","","","","audio-keyboard-response","398","2.0.0","258172","p8qo11rlu1a","ono","camel","22","Male","no","no","0","6","null","stimuli/sounds/cough_sound_A.wav","null","","","","","","",""
"","","","","","html-keyboard-response","399","2.0.0","259182","p8qo11rlu1a","ono","camel","22","Male","no","no","0","6","null","","null","","","","","","",""
"","","","","","image-keyboard-response","400","2.0.0","259925","p8qo11rlu1a","ono","camel","22","Male","no","no","0","6","741","stimuli/pictures/dog_rott_1.jpg","0","0","","true","no","sound","stimuli/sounds/cough_sound_A.wav",""
"","","","","","audio-keyboard-response","401","2.0.0","260010","p8qo11rlu1a","ono","camel","22","Male","no","no","0","6","80","stimuli/sounds/bleep.wav"," ","","","","","","",""
"","","","","","html-keyboard-response","402","2.0.0","260207","p8qo11rlu1a","ono","camel","22","Male","no","no","0","6","88","<div style=""font-size:30px;"">Press space to start the trial</div>"," ","","","","","","",""
"","","","","","html-keyboard-response","403","2.0.0","260465","p8qo11rlu1a","ono","camel","22","Male","no","no","0","6","null","<div style=""font-size:60px;"">+</div>","null","","","","","","",""
"","","","","","audio-keyboard-response","404","2.0.0","261065","p8qo11rlu1a","ono","camel","22","Male","no","no","0","6","null","stimuli/sounds/motor_label_A.wav","null","","","","","","",""
"","","","","","html-keyboard-response","405","2.0.0","262074","p8qo11rlu1a","ono","camel","22","Male","no","no","0","6","null","","null","","","","","","",""
"","","","","","image-keyboard-response","406","2.0.0","263396","p8qo11rlu1a","ono","camel","22","Male","no","no","0","6","1321","stimuli/pictures/motor_harley_1.jpg","1","1","","true","yes","sound","stimuli/sounds/motor_label_A.wav",""
"","","","","","audio-keyboard-response","407","2.0.0","263512","p8qo11rlu1a","ono","camel","22","Male","no","no","0","6","117","stimuli/sounds/bleep.wav"," ","","","","","","",""
"","","","","","html-keyboard-response","408","2.0.0","263686","p8qo11rlu1a","ono","camel","22","Male","no","no","0","6","65","<div style=""font-size:30px;"">Press space to start the trial</div>"," ","","","","","","",""
"","","","","","html-keyboard-response","409","2.0.0","263946","p8qo11rlu1a","ono","camel","22","Male","no","no","0","6","null","<div style=""font-size:60px;"">+</div>","null","","","","","","",""
"","","","","","audio-keyboard-response","410","2.0.0","264542","p8qo11rlu1a","ono","camel","22","Male","no","no","0","6","null","stimuli/sounds/motor_sound_B.wav","null","","","","","","",""
"","","","","","html-keyboard-response","411","2.0.0","265548","p8qo11rlu1a","ono","camel","22","Male","no","no","0","6","null","","null","","","","","","",""
"","","","","","image-keyboard-response","412","2.0.0","265962","p8qo11rlu1a","ono","camel","22","Male","no","no","0","6","411","stimuli/pictures/motor_harley_1.jpg","1","1","","true","yes","sound","stimuli/sounds/motor_sound_B.wav",""
"","","","","","audio-keyboard-response","413","2.0.0","266029","p8qo11rlu1a","ono","camel","22","Male","no","no","0","6","61","stimuli/sounds/bleep.wav"," ","","","","","","",""
"","","","","","html-keyboard-response","414","2.0.0","266216","p8qo11rlu1a","ono","camel","22","Male","no","no","0","6","70","<div style=""font-size:30px;"">Press space to start the trial</div>"," ","","","","","","",""
"","","","","","html-keyboard-response","415","2.0.0","266475","p8qo11rlu1a","ono","camel","22","Male","no","no","0","6","null","<div style=""font-size:60px;"">+</div>","null","","","","","","",""
"","","","","","audio-keyboard-response","416","2.0.0","267085","p8qo11rlu1a","ono","camel","22","Male","no","no","0","6","null","stimuli/sounds/dog_sound_B.wav","null","","","","","","",""
"","","","","","html-keyboard-response","417","2.0.0","268097","p8qo11rlu1a","ono","camel","22","Male","no","no","0","6","null","","null","","","","","","",""
"","","","","","image-keyboard-response","418","2.0.0","268768","p8qo11rlu1a","ono","camel","22","Male","no","no","0","6","665","stimuli/pictures/dog_york_2.jpg","1","1","","true","yes","sound","stimuli/sounds/dog_sound_B.wav",""
"","","","","","audio-keyboard-response","419","2.0.0","268860","p8qo11rlu1a","ono","camel","22","Male","no","no","0","6","91","stimuli/sounds/bleep.wav"," ","","","","","","",""
"","","","","","html-keyboard-response","420","2.0.0","269068","p8qo11rlu1a","ono","camel","22","Male","no","no","0","6","102","<div style=""font-size:30px;"">Press space to start the trial</div>"," ","","","","","","",""
"","","","","","html-keyboard-response","421","2.0.0","269329","p8qo11rlu1a","ono","camel","22","Male","no","no","0","6","null","<div style=""font-size:60px;"">+</div>","null","","","","","","",""
"","","","","","audio-keyboard-response","422","2.0.0","269932","p8qo11rlu1a","ono","camel","22","Male","no","no","0","6","null","stimuli/sounds/hiccup_label_B.wav","null","","","","","","",""
"","","","","","html-keyboard-response","423","2.0.0","270939","p8qo11rlu1a","ono","camel","22","Male","no","no","0","6","null","","null","","","","","","",""
"","","","","","image-keyboard-response","424","2.0.0","271809","p8qo11rlu1a","ono","camel","22","Male","no","no","0","6","867","stimuli/pictures/dog_york_2.jpg","0","0","","true","no","sound","stimuli/sounds/hiccup_label_B.wav",""
"","","","","","audio-keyboard-response","425","2.0.0","271875","p8qo11rlu1a","ono","camel","22","Male","no","no","0","6","69","stimuli/sounds/bleep.wav"," ","","","","","","",""
"","","","","","html-keyboard-response","426","2.0.0","272240","p8qo11rlu1a","ono","camel","22","Male","no","no","0","6","245","<div style=""font-size:30px;"">Press space to start the trial</div>"," ","","","","","","",""
"","","","","","html-keyboard-response","427","2.0.0","272503","p8qo11rlu1a","ono","camel","22","Male","no","no","0","6","null","<div style=""font-size:60px;"">+</div>","null","","","","","","",""
"","","","","","audio-keyboard-response","428","2.0.0","273114","p8qo11rlu1a","ono","camel","22","Male","no","no","0","6","null","stimuli/sounds/hiccup_sound_B.wav","null","","","","","","",""
"","","","","","html-keyboard-response","429","2.0.0","274116","p8qo11rlu1a","ono","camel","22","Male","no","no","0","6","null","","null","","","","","","",""
"","","","","","image-keyboard-response","430","2.0.0","274788","p8qo11rlu1a","ono","camel","22","Male","no","no","0","6","668","stimuli/pictures/drop_multi_1.jpg","0","0","","true","no","sound","stimuli/sounds/hiccup_sound_B.wav",""
"","","","","","audio-keyboard-response","431","2.0.0","274873","p8qo11rlu1a","ono","camel","22","Male","no","no","0","6","88","stimuli/sounds/bleep.wav"," ","","","","","","",""
"","","","","","html-keyboard-response","432","2.0.0","275081","p8qo11rlu1a","ono","camel","22","Male","no","no","0","6","99","<div style=""font-size:30px;"">Press space to start the trial</div>"," ","","","","","","",""
"","","","","","html-keyboard-response","433","2.0.0","275348","p8qo11rlu1a","ono","camel","22","Male","no","no","0","6","null","<div style=""font-size:60px;"">+</div>","null","","","","","","",""
"","","","","","audio-keyboard-response","434","2.0.0","275933","p8qo11rlu1a","ono","camel","22","Male","no","no","0","6","null","stimuli/sounds/drop_sound_A.wav","null","","","","","","",""
"","","","","","html-keyboard-response","435","2.0.0","276937","p8qo11rlu1a","ono","camel","22","Male","no","no","0","6","null","","null","","","","","","",""
"","","","","","image-keyboard-response","436","2.0.0","278345","p8qo11rlu1a","ono","camel","22","Male","no","no","0","6","1404","stimuli/pictures/cough_wom_2.jpg","0","0","","true","no","sound","stimuli/sounds/drop_sound_A.wav",""
"","","","","","audio-keyboard-response","437","2.0.0","278454","p8qo11rlu1a","ono","camel","22","Male","no","no","0","6","109","stimuli/sounds/bleep.wav"," ","","","","","","",""
"","","","","","html-keyboard-response","438","2.0.0","278665","p8qo11rlu1a","ono","camel","22","Male","no","no","0","6","99","<div style=""font-size:30px;"">Press space to start the trial</div>"," ","","","","","","",""
"","","","","","html-keyboard-response","439","2.0.0","278926","p8qo11rlu1a","ono","camel","22","Male","no","no","0","6","null","<div style=""font-size:60px;"">+</div>","null","","","","","","",""
"","","","","","audio-keyboard-response","440","2.0.0","279532","p8qo11rlu1a","ono","camel","22","Male","no","no","0","6","null","stimuli/sounds/dog_sound_A.wav","null","","","","","","",""
"","","","","","html-keyboard-response","441","2.0.0","280537","p8qo11rlu1a","ono","camel","22","Male","no","no","0","6","null","","null","","","","","","",""
"","","","","","image-keyboard-response","442","2.0.0","282032","p8qo11rlu1a","ono","camel","22","Male","no","no","0","6","1492","stimuli/pictures/dog_york_1.jpg","1","1","","true","no","sound","stimuli/sounds/dog_sound_A.wav",""
"","","","","","audio-keyboard-response","443","2.0.0","282112","p8qo11rlu1a","ono","camel","22","Male","no","no","0","6","72","stimuli/sounds/bleep.wav"," ","","","","","","",""
"","","","","","html-keyboard-response","444","2.0.0","282314","p8qo11rlu1a","ono","camel","22","Male","no","no","0","6","96","<div style=""font-size:30px;"">Press space to start the trial</div>"," ","","","","","","",""
"","","","","","html-keyboard-response","445","2.0.0","282574","p8qo11rlu1a","ono","camel","22","Male","no","no","0","6","null","<div style=""font-size:60px;"">+</div>","null","","","","","","",""
"","","","","","audio-keyboard-response","446","2.0.0","283254","p8qo11rlu1a","ono","camel","22","Male","no","no","0","6","null","stimuli/sounds/cough_sound_B.wav","null","","","","","","",""
"","","","","","html-keyboard-response","447","2.0.0","284260","p8qo11rlu1a","ono","camel","22","Male","no","no","0","6","null","","null","","","","","","",""
"","","","","","image-keyboard-response","448","2.0.0","284754","p8qo11rlu1a","ono","camel","22","Male","no","no","0","6","490","stimuli/pictures/cough_man_1.jpg","1","1","","true","yes","sound","stimuli/sounds/cough_sound_B.wav",""
"","","","","","audio-keyboard-response","449","2.0.0","284801","p8qo11rlu1a","ono","camel","22","Male","no","no","0","6","40","stimuli/sounds/bleep.wav"," ","","","","","","",""
"","","","","","html-keyboard-response","450","2.0.0","285005","p8qo11rlu1a","ono","camel","22","Male","no","no","0","6","91","<div style=""font-size:30px;"">Press space to start the trial</div>"," ","","","","","","",""
"","","","","","html-keyboard-response","451","2.0.0","285266","p8qo11rlu1a","ono","camel","22","Male","no","no","0","6","null","<div style=""font-size:60px;"">+</div>","null","","","","","","",""
"","","","","","audio-keyboard-response","452","2.0.0","285873","p8qo11rlu1a","ono","camel","22","Male","no","no","0","6","null","stimuli/sounds/drop_sound_B.wav","null","","","","","","",""
"","","","","","html-keyboard-response","453","2.0.0","286883","p8qo11rlu1a","ono","camel","22","Male","no","no","0","6","null","","null","","","","","","",""
"","","","","","image-keyboard-response","454","2.0.0","287256","p8qo11rlu1a","ono","camel","22","Male","no","no","0","6","368","stimuli/pictures/drop_multi_1.jpg","0","1","","false","yes","sound","stimuli/sounds/drop_sound_B.wav",""
"","","","","","audio-keyboard-response","455","2.0.0","287264","p8qo11rlu1a","ono","camel","22","Male","no","no","0","6","11","stimuli/sounds/buzz.wav"," ","","","","","","",""
"","","","","","html-keyboard-response","456","2.0.0","287375","p8qo11rlu1a","ono","camel","22","Male","no","no","0","6","5","<div style=""font-size:30px;"">Press space to start the trial</div>"," ","","","","","","",""
"","","","","","html-keyboard-response","457","2.0.0","287632","p8qo11rlu1a","ono","camel","22","Male","no","no","0","6","null","<div style=""font-size:60px;"">+</div>","null","","","","","","",""
"","","","","","audio-keyboard-response","458","2.0.0","288225","p8qo11rlu1a","ono","camel","22","Male","no","no","0","6","null","stimuli/sounds/drop_sound_A.wav","null","","","","","","",""
"","","","","","html-keyboard-response","459","2.0.0","289234","p8qo11rlu1a","ono","camel","22","Male","no","no","0","6","null","","null","","","","","","",""
"","","","","","image-keyboard-response","460","2.0.0","289576","p8qo11rlu1a","ono","camel","22","Male","no","no","0","6","339","stimuli/pictures/drop_multi_1.jpg","0","1","","false","no","sound","stimuli/sounds/drop_sound_A.wav",""
"","","","","","audio-keyboard-response","461","2.0.0","289724","p8qo11rlu1a","ono","camel","22","Male","no","no","0","6","149","stimuli/sounds/buzz.wav","0","","","","","","",""
"","","","","","html-keyboard-response","462","2.0.0","289871","p8qo11rlu1a","ono","camel","22","Male","no","no","0","6","38","<div style=""font-size:30px;"">Press space to start the trial</div>"," ","","","","","","",""
"","","","","","html-keyboard-response","463","2.0.0","290132","p8qo11rlu1a","ono","camel","22","Male","no","no","0","6","null","<div style=""font-size:60px;"">+</div>","null","","","","","","",""
"","","","","","audio-keyboard-response","464","2.0.0","290732","p8qo11rlu1a","ono","camel","22","Male","no","no","0","6","null","stimuli/sounds/motor_label_B.wav","null","","","","","","",""
"","","","","","html-keyboard-response","465","2.0.0","291738","p8qo11rlu1a","ono","camel","22","Male","no","no","0","6","null","","null","","","","","","",""
"","","","","","image-keyboard-response","466","2.0.0","292747","p8qo11rlu1a","ono","camel","22","Male","no","no","0","6","1007","stimuli/pictures/hiccup_wom_1.jpg","0","0","","true","no","sound","stimuli/sounds/motor_label_B.wav",""
"","","","","","audio-keyboard-response","467","2.0.0","292891","p8qo11rlu1a","ono","camel","22","Male","no","no","0","6","139","stimuli/sounds/bleep.wav","0","","","","","","",""
"","","","","","html-keyboard-response","468","2.0.0","293070","p8qo11rlu1a","ono","camel","22","Male","no","no","0","6","68","<div style=""font-size:30px;"">Press space to start the trial</div>"," ","","","","","","",""
"","","","","","html-keyboard-response","469","2.0.0","293336","p8qo11rlu1a","ono","camel","22","Male","no","no","0","6","null","<div style=""font-size:60px;"">+</div>","null","","","","","","",""
"","","","","","audio-keyboard-response","470","2.0.0","293943","p8qo11rlu1a","ono","camel","22","Male","no","no","0","6","null","stimuli/sounds/dog_sound_B.wav","null","","","","","","",""
"","","","","","html-keyboard-response","471","2.0.0","294960","p8qo11rlu1a","ono","camel","22","Male","no","no","0","6","null","","null","","","","","","",""
"","","","","","image-keyboard-response","472","2.0.0","295365","p8qo11rlu1a","ono","camel","22","Male","no","no","0","6","401","stimuli/pictures/dog_rott_2.jpg","1","1","","true","no","sound","stimuli/sounds/dog_sound_B.wav",""
"","","","","","audio-keyboard-response","473","2.0.0","295533","p8qo11rlu1a","ono","camel","22","Male","no","no","0","6","171","stimuli/sounds/bleep.wav","1","","","","","","",""
"","","","","","html-keyboard-response","474","2.0.0","295705","p8qo11rlu1a","ono","camel","22","Male","no","no","0","6","56","<div style=""font-size:30px;"">Press space to start the trial</div>"," ","","","","","","",""
"","","","","","html-keyboard-response","475","2.0.0","295971","p8qo11rlu1a","ono","camel","22","Male","no","no","0","6","null","<div style=""font-size:60px;"">+</div>","null","","","","","","",""
"","","","","","audio-keyboard-response","476","2.0.0","296523","p8qo11rlu1a","ono","camel","22","Male","no","no","0","6","null","stimuli/sounds/drop_label_A.wav","null","","","","","","",""
"","","","","","html-keyboard-response","477","2.0.0","297537","p8qo11rlu1a","ono","camel","22","Male","no","no","0","6","null","","null","","","","","","",""
"","","","","","image-keyboard-response","478","2.0.0","298071","p8qo11rlu1a","ono","camel","22","Male","no","no","0","6","531","stimuli/pictures/hiccup_wom_1.jpg","1","0","","false","no","sound","stimuli/sounds/drop_label_A.wav",""
"","","","","","audio-keyboard-response","479","2.0.0","298073","p8qo11rlu1a","ono","camel","22","Male","no","no","0","6","0","stimuli/sounds/buzz.wav"," ","","","","","","",""
"","","","","","html-keyboard-response","480","2.0.0","299198","p8qo11rlu1a","ono","camel","22","Male","no","no","0","6","1012","<div style=""font-size:30px;"">Press space to start the trial</div>"," ","","","","","","",""
"","","","","","html-keyboard-response","481","2.0.0","299460","p8qo11rlu1a","ono","camel","22","Male","no","no","0","6","null","<div style=""font-size:60px;"">+</div>","null","","","","","","",""
"","","","","","audio-keyboard-response","482","2.0.0","300065","p8qo11rlu1a","ono","camel","22","Male","no","no","0","6","null","stimuli/sounds/drop_label_B.wav","null","","","","","","",""
"","","","","","html-keyboard-response","483","2.0.0","301082","p8qo11rlu1a","ono","camel","22","Male","no","no","0","6","null","","null","","","","","","",""
"","","","","","image-keyboard-response","484","2.0.0","302098","p8qo11rlu1a","ono","camel","22","Male","no","no","0","6","1012","stimuli/pictures/drop_single_2.jpg","1","1","","true","yes","sound","stimuli/sounds/drop_label_B.wav",""
"","","","","","audio-keyboard-response","485","2.0.0","302292","p8qo11rlu1a","ono","camel","22","Male","no","no","0","6","189","stimuli/sounds/bleep.wav"," ","","","","","","",""
"","","","","","html-keyboard-response","486","2.0.0","302741","p8qo11rlu1a","ono","camel","22","Male","no","no","0","6","341","<div style=""font-size:30px;"">Press space to start the trial</div>"," ","","","","","","",""
"","","","","","html-keyboard-response","487","2.0.0","303004","p8qo11rlu1a","ono","camel","22","Male","no","no","0","6","null","<div style=""font-size:60px;"">+</div>","null","","","","","","",""
"","","","","","audio-keyboard-response","488","2.0.0","303673","p8qo11rlu1a","ono","camel","22","Male","no","no","0","6","null","stimuli/sounds/cough_sound_A.wav","null","","","","","","",""
"","","","","","html-keyboard-response","489","2.0.0","304678","p8qo11rlu1a","ono","camel","22","Male","no","no","0","6","null","","null","","","","","","",""
"","","","","","image-keyboard-response","490","2.0.0","305348","p8qo11rlu1a","ono","camel","22","Male","no","no","0","6","665","stimuli/pictures/cough_man_2.jpg","1","1","","true","no","sound","stimuli/sounds/cough_sound_A.wav",""
"","","","","","audio-keyboard-response","491","2.0.0","305400","p8qo11rlu1a","ono","camel","22","Male","no","no","0","6","48","stimuli/sounds/bleep.wav"," ","","","","","","",""
"","","","","","html-keyboard-response","492","2.0.0","305561","p8qo11rlu1a","ono","camel","22","Male","no","no","0","6","53","<div style=""font-size:30px;"">Press space to start the trial</div>"," ","","","","","","",""
"","","","","","html-keyboard-response","493","2.0.0","305814","p8qo11rlu1a","ono","camel","22","Male","no","no","0","6","null","<div style=""font-size:60px;"">+</div>","null","","","","","","",""
"","","","","","audio-keyboard-response","494","2.0.0","306413","p8qo11rlu1a","ono","camel","22","Male","no","no","0","6","null","stimuli/sounds/dog_label_B.wav","null","","","","","","",""
"","","","","","html-keyboard-response","495","2.0.0","307421","p8qo11rlu1a","ono","camel","22","Male","no","no","0","6","null","","null","","","","","","",""
"","","","","","image-keyboard-response","496","2.0.0","308391","p8qo11rlu1a","ono","camel","22","Male","no","no","0","6","968","stimuli/pictures/dog_rott_1.jpg","1","1","","true","yes","sound","stimuli/sounds/dog_label_B.wav",""
"","","","","","audio-keyboard-response","497","2.0.0","308437","p8qo11rlu1a","ono","camel","22","Male","no","no","0","6","40","stimuli/sounds/bleep.wav"," ","","","","","","",""
"","","","","","html-keyboard-response","498","2.0.0","308584","p8qo11rlu1a","ono","camel","22","Male","no","no","0","6","37","<div style=""font-size:30px;"">Press space to start the trial</div>"," ","","","","","","",""
"","","","","","html-keyboard-response","499","2.0.0","308836","p8qo11rlu1a","ono","camel","22","Male","no","no","0","6","null","<div style=""font-size:60px;"">+</div>","null","","","","","","",""
"","","","","","audio-keyboard-response","500","2.0.0","309443","p8qo11rlu1a","ono","camel","22","Male","no","no","0","6","null","stimuli/sounds/cough_label_B.wav","null","","","","","","",""
