"success","timeout","failed_images","failed_audio","failed_video","trial_type","trial_index","plugin_version","time_elapsed","random_id","condition","participant","age","gender_id","mus_exp","inst_exp","years_exp","mus_listening","rt","stimulus","response","correct_response","practice","correct","congruent","sound_type","audio","question_order"
"true","false","[]","[]","[]","preload","0","2.0.0","96","p9mh6plr0u7","mus","whale","21","male","yes","yes","10","1","","","","","","","","","",""
"","","","","","html-keyboard-response","1","2.0.0","3670","p9mh6plr0u7","mus","whale","21","male","yes","yes","10","1","3573","Welcome to the experiment! Press any key to begin."," ","","","","","","",""
"true","","","","","fullscreen","2","null","6309","p9mh6plr0u7","mus","whale","21","male","yes","yes","10","1","1620","","","","","","","","",""
"","","","","","survey-text","3","2.0.0","7697","p9mh6plr0u7","mus","whale","21","male","yes","yes","10","1","1382","","{""participant_id"":""whale""}","","","","","","",""
"","","","","","html-keyboard-response","4","2.0.0","44713","p9mh6plr0u7","mus","whale","21","male","yes","yes","10","1","37014","
    <p> Please use headphones for the duration of the study.</p>
    <p> Within each trial, you will hear a sound and then be presented with an image in the center of your screen.</p>
    <p>Press the <b>'1'</b> key if what you hear <u>matches</u> what you see.</p>
    <p>Press the <b>'0'</b> key if what you hear <u>does not match</u> what you see.</p>
    <p>Try to respond as quickly and accurately as you can.</p>
    <p> Press any key to begin.</p>
    ","ArrowRight","","","","","","",""
"","","","","","html-keyboard-response","5","2.0.0","44734","p9mh6plr0u7","mus","whale","21","male","yes","yes","10","1","18","
    <div style=""font-size:28px;"">
      <p>You will now complete 4 short practice trials.</p>
      <p>This is just to help you get familiar with the task.</p>
      <p>Press any key to begin.</p>
    </div>
  ","ArrowUp","","","","","","",""
"","","","","","html-keyboard-response","6","2.0.0","45249","p9mh6plr0u7","mus","whale","21","male","yes","yes","10","1","null","<div style=""font-size:60px;"">+</div>","null","","","","","","",""
"","","","","","audio-keyboard-response","7","2.0.0","46587","p9mh6plr0u7","mus","whale","21","male","yes","yes","10","1","null","stimuli/sounds/guitar_label_A.wav","null","","","","","","",""
"","","","","","image-keyboard-response","8","2.0.0","52114","p9mh6plr0u7","mus","whale","21","male","yes","yes","10","1","5522","stimuli/pictures/guitar_acoustic_1.jpg","1","1","true","true","","","",""
"","","","","","audio-keyboard-response","9","2.0.0","52925","p9mh6plr0u7","mus","whale","21","male","yes","yes","10","1","null","stimuli/sounds/bleep.wav","null","","","","","","",""
"","","","","","html-keyboard-response","10","2.0.0","53633","p9mh6plr0u7","mus","whale","21","male","yes","yes","10","1","null","<p style='color:green; font-size:30px;'>Correct!</p>","null","","","","","","",""
"","","","","","html-keyboard-response","11","2.0.0","54148","p9mh6plr0u7","mus","whale","21","male","yes","yes","10","1","null","<div style=""font-size:60px;"">+</div>","null","","","","","","",""
"","","","","","audio-keyboard-response","12","2.0.0","54748","p9mh6plr0u7","mus","whale","21","male","yes","yes","10","1","null","stimuli/sounds/guitar_sound_B.wav","null","","","","","","",""
"","","","","","image-keyboard-response","13","2.0.0","56288","p9mh6plr0u7","mus","whale","21","male","yes","yes","10","1","1537","stimuli/pictures/guitar_acoustic_2.jpg","1","1","true","true","","","",""
"","","","","","audio-keyboard-response","14","2.0.0","57091","p9mh6plr0u7","mus","whale","21","male","yes","yes","10","1","null","stimuli/sounds/bleep.wav","null","","","","","","",""
"","","","","","html-keyboard-response","15","2.0.0","57796","p9mh6plr0u7","mus","whale","21","male","yes","yes","10","1","null","<p style='color:green; font-size:30px;'>Correct!</p>","null","","","","","","",""
"","","","","","html-keyboard-response","16","2.0.0","58310","p9mh6plr0u7","mus","whale","21","male","yes","yes","10","1","null","<div style=""font-size:60px;"">+</div>","null","","","","","","",""
"","","","","","audio-keyboard-response","17","2.0.0","58916","p9mh6plr0u7","mus","whale","21","male","yes","yes","10","1","null","stimuli/sounds/flute_sound_A.wav","null","","","","","","",""
"","","","","","image-keyboard-response","18","2.0.0","59787","p9mh6plr0u7","mus","whale","21","male","yes","yes","10","1","870","stimuli/pictures/guitar_electric_1.jpg","0","0","true","true","","","",""
"","","","","","audio-keyboard-response","19","2.0.0","60588","p9mh6plr0u7","mus","whale","21","male","yes","yes","10","1","null","stimuli/sounds/bleep.wav","null","","","","","","",""
"","","","","","html-keyboard-response","20","2.0.0","61297","p9mh6plr0u7","mus","whale","21","male","yes","yes","10","1","null","<p style='color:green; font-size:30px;'>Correct!</p>","null","","","","","","",""
"","","","","","html-keyboard-response","21","2.0.0","61812","p9mh6plr0u7","mus","whale","21","male","yes","yes","10","1","null","<div style=""font-size:60px;"">+</div>","null","","","","","","",""
"","","","","","audio-keyboard-response","22","2.0.0","62407","p9mh6plr0u7","mus","whale","21","male","yes","yes","10","1","null","stimuli/sounds/guitar_sound_A.wav","null","","","","","","",""
"","","","","","image-keyboard-response","23","2.0.0","63284","p9mh6plr0u7","mus","whale","21","male","yes","yes","10","1","876","stimuli/pictures/guitar_acoustic_1.jpg","0","1","true","false","","","",""
"","","","","","audio-keyboard-response","24","2.0.0","64098","p9mh6plr0u7","mus","whale","21","male","yes","yes","10","1","null","stimuli/sounds/buzz.wav","null","","","","","","",""
"","","","","","html-keyboard-response","25","2.0.0","64806","p9mh6plr0u7","mus","whale","21","male","yes","yes","10","1","null","<p style='color:red; font-size:30px;'>Incorrect</p>","null","","","","","","",""
"","","","","","html-keyboard-response","26","2.0.0","65918","p9mh6plr0u7","mus","whale","21","male","yes","yes","10","1","1111","<p>Practice complete. Press any key to begin the real experiment.</p>"," ","","","","","","",""
"","","","","","html-keyboard-response","27","2.0.0","66731","p9mh6plr0u7","mus","whale","21","male","yes","yes","10","1","812","<div style=""font-size:30px;"">Press space to start the trial</div>"," ","","","","","","",""
"","","","","","html-keyboard-response","28","2.0.0","66982","p9mh6plr0u7","mus","whale","21","male","yes","yes","10","1","null","<div style=""font-size:60px;"">+</div>","null","","","","","","",""
"","","","","","audio-keyboard-response","29","2.0.0","67575","p9mh6plr0u7","mus","whale","21","male","yes","yes","10","1","null","stimuli/sounds/drum_sound_B.wav","null","","","","","","",""
"","","","","","html-keyboard-response","30","2.0.0","68580","p9mh6plr0u7","mus","whale","21","male","yes","yes","10","1","null","","null","","","","","","",""
"","","","","","image-keyboard-response","31","2.0.0","70365","p9mh6plr0u7","mus","whale","21","male","yes","yes","10","1","1783","stimuli/pictures/drum_bongo_2.jpg","1","1","","true","yes","sound","stimuli/sounds/drum_sound_B.wav",""
"","","","","","audio-keyboard-response","32","2.0.0","71381","p9mh6plr0u7","mus","whale","21","male","yes","yes","10","1","null","stimuli/sounds/bleep.wav","null","","","","","","",""
"","","","","","html-keyboard-response","33","2.0.0","72678","p9mh6plr0u7","mus","whale","21","male","yes","yes","10","1","1189","<div style=""font-size:30px;"">Press space to start the trial</div>"," ","","","","","","",""
"","","","","","html-keyboard-response","34","2.0.0","72944","p9mh6plr0u7","mus","whale","21","male","yes","yes","10","1","null","<div style=""font-size:60px;"">+</div>","null","","","","","","",""
"","","","","","audio-keyboard-response","35","2.0.0","73567","p9mh6plr0u7","mus","whale","21","male","yes","yes","10","1","null","stimuli/sounds/piano_label_A.wav","null","","","","","","",""
"","","","","","html-keyboard-response","36","2.0.0","74581","p9mh6plr0u7","mus","whale","21","male","yes","yes","10","1","null","","null","","","","","","",""
"","","","","","image-keyboard-response","37","2.0.0","75487","p9mh6plr0u7","mus","whale","21","male","yes","yes","10","1","903","stimuli/pictures/piano_grand_2.jpg","1","1","","true","yes","sound","stimuli/sounds/piano_label_A.wav",""
"","","","","","audio-keyboard-response","38","2.0.0","76490","p9mh6plr0u7","mus","whale","21","male","yes","yes","10","1","null","stimuli/sounds/bleep.wav","null","","","","","","",""
"","","","","","html-keyboard-response","39","2.0.0","77947","p9mh6plr0u7","mus","whale","21","male","yes","yes","10","1","1346","<div style=""font-size:30px;"">Press space to start the trial</div>"," ","","","","","","",""
"","","","","","html-keyboard-response","40","2.0.0","78212","p9mh6plr0u7","mus","whale","21","male","yes","yes","10","1","null","<div style=""font-size:60px;"">+</div>","null","","","","","","",""
"","","","","","audio-keyboard-response","41","2.0.0","78817","p9mh6plr0u7","mus","whale","21","male","yes","yes","10","1","null","stimuli/sounds/flute_label_A.wav","null","","","","","","",""
"","","","","","html-keyboard-response","42","2.0.0","79823","p9mh6plr0u7","mus","whale","21","male","yes","yes","10","1","null","","null","","","","","","",""
"","","","","","image-keyboard-response","43","2.0.0","80760","p9mh6plr0u7","mus","whale","21","male","yes","yes","10","1","935","stimuli/pictures/flute_wooden_2.jpg","1","1","","true","yes","sound","stimuli/sounds/flute_label_A.wav",""
"","","","","","audio-keyboard-response","44","2.0.0","81762","p9mh6plr0u7","mus","whale","21","male","yes","yes","10","1","null","stimuli/sounds/bleep.wav","null","","","","","","",""
"","","","","","html-keyboard-response","45","2.0.0","82526","p9mh6plr0u7","mus","whale","21","male","yes","yes","10","1","653","<div style=""font-size:30px;"">Press space to start the trial</div>"," ","","","","","","",""
"","","","","","html-keyboard-response","46","2.0.0","82780","p9mh6plr0u7","mus","whale","21","male","yes","yes","10","1","null","<div style=""font-size:60px;"">+</div>","null","","","","","","",""
"","","","","","audio-keyboard-response","47","2.0.0","83376","p9mh6plr0u7","mus","whale","21","male","yes","yes","10","1","null","stimuli/sounds/phone_sound_B.wav","null","","","","","","",""
"","","","","","html-keyboard-response","48","2.0.0","84380","p9mh6plr0u7","mus","whale","21","male","yes","yes","10","1","null","","null","","","","","","",""
"","","","","","image-keyboard-response","49","2.0.0","85472","p9mh6plr0u7","mus","whale","21","male","yes","yes","10","1","1090","stimuli/pictures/phone_rotary_2.jpg","1","1","","true","yes","sound","stimuli/sounds/phone_sound_B.wav",""
"","","","","","audio-keyboard-response","50","2.0.0","86475","p9mh6plr0u7","mus","whale","21","male","yes","yes","10","1","null","stimuli/sounds/bleep.wav","null","","","","","","",""
"","","","","","html-keyboard-response","51","2.0.0","87050","p9mh6plr0u7","mus","whale","21","male","yes","yes","10","1","463","<div style=""font-size:30px;"">Press space to start the trial</div>"," ","","","","","","",""
"","","","","","html-keyboard-response","52","2.0.0","87306","p9mh6plr0u7","mus","whale","21","male","yes","yes","10","1","null","<div style=""font-size:60px;"">+</div>","null","","","","","","",""
"","","","","","audio-keyboard-response","53","2.0.0","87916","p9mh6plr0u7","mus","whale","21","male","yes","yes","10","1","null","stimuli/sounds/flute_sound_B.wav","null","","","","","","",""
"","","","","","html-keyboard-response","54","2.0.0","88933","p9mh6plr0u7","mus","whale","21","male","yes","yes","10","1","null","","null","","","","","","",""
"","","","","","image-keyboard-response","55","2.0.0","90662","p9mh6plr0u7","mus","whale","21","male","yes","yes","10","1","1728","stimuli/pictures/bird_hawk_1.jpg","0","0","","true","no","sound","stimuli/sounds/flute_sound_B.wav",""
"","","","","","audio-keyboard-response","56","2.0.0","91677","p9mh6plr0u7","mus","whale","21","male","yes","yes","10","1","null","stimuli/sounds/bleep.wav","null","","","","","","",""
"","","","","","html-keyboard-response","57","2.0.0","91999","p9mh6plr0u7","mus","whale","21","male","yes","yes","10","1","213","<div style=""font-size:30px;"">Press space to start the trial</div>"," ","","","","","","",""
"","","","","","html-keyboard-response","58","2.0.0","92260","p9mh6plr0u7","mus","whale","21","male","yes","yes","10","1","null","<div style=""font-size:60px;"">+</div>","null","","","","","","",""
"","","","","","audio-keyboard-response","59","2.0.0","92856","p9mh6plr0u7","mus","whale","21","male","yes","yes","10","1","null","stimuli/sounds/drum_label_B.wav","null","","","","","","",""
"","","","","","html-keyboard-response","60","2.0.0","93870","p9mh6plr0u7","mus","whale","21","male","yes","yes","10","1","null","","null","","","","","","",""
"","","","","","image-keyboard-response","61","2.0.0","94683","p9mh6plr0u7","mus","whale","21","male","yes","yes","10","1","811","stimuli/pictures/drum_bongo_1.jpg","1","1","","true","yes","sound","stimuli/sounds/drum_label_B.wav",""
"","","","","","audio-keyboard-response","62","2.0.0","95700","p9mh6plr0u7","mus","whale","21","male","yes","yes","10","1","null","stimuli/sounds/bleep.wav","null","","","","","","",""
"","","","","","html-keyboard-response","63","2.0.0","96443","p9mh6plr0u7","mus","whale","21","male","yes","yes","10","1","635","<div style=""font-size:30px;"">Press space to start the trial</div>"," ","","","","","","",""
"","","","","","html-keyboard-response","64","2.0.0","96697","p9mh6plr0u7","mus","whale","21","male","yes","yes","10","1","null","<div style=""font-size:60px;"">+</div>","null","","","","","","",""
"","","","","","audio-keyboard-response","65","2.0.0","97295","p9mh6plr0u7","mus","whale","21","male","yes","yes","10","1","null","stimuli/sounds/drum_label_B.wav","null","","","","","","",""
"","","","","","html-keyboard-response","66","2.0.0","98311","p9mh6plr0u7","mus","whale","21","male","yes","yes","10","1","null","","null","","","","","","",""
"","","","","","image-keyboard-response","67","2.0.0","99583","p9mh6plr0u7","mus","whale","21","male","yes","yes","10","1","1270","stimuli/pictures/drum_kit_2.jpg","1","1","","true","yes","sound","stimuli/sounds/drum_label_B.wav",""
"","","","","","audio-keyboard-response","68","2.0.0","100597","p9mh6plr0u7","mus","whale","21","male","yes","yes","10","1","null","stimuli/sounds/bleep.wav","null","","","","","","",""
"","","","","","html-keyboard-response","69","2.0.0","101530","p9mh6plr0u7","mus","whale","21","male","yes","yes","10","1","825","<div style=""font-size:30px;"">Press space to start the trial</div>"," ","","","","","","",""
"","","","","","html-keyboard-response","70","2.0.0","101797","p9mh6plr0u7","mus","whale","21","male","yes","yes","10","1","null","<div style=""font-size:60px;"">+</div>","null","","","","","","",""
"","","","","","audio-keyboard-response","71","2.0.0","102406","p9mh6plr0u7","mus","whale","21","male","yes","yes","10","1","null","stimuli/sounds/piano_label_B.wav","null","","","","","","",""
"","","","","","html-keyboard-response","72","2.0.0","103410","p9mh6plr0u7","mus","whale","21","male","yes","yes","10","1","null","","null","","","","","","",""
"","","","","","image-keyboard-response","73","2.0.0","104278","p9mh6plr0u7","mus","whale","21","male","yes","yes","10","1","866","stimuli/pictures/piano_electric_2.jpg","1","1","","true","yes","sound","stimuli/sounds/piano_label_B.wav",""
"","","","","","audio-keyboard-response","74","2.0.0","105290","p9mh6plr0u7","mus","whale","21","male","yes","yes","10","1","null","stimuli/sounds/bleep.wav","null","","","","","","",""
"","","","","","html-keyboard-response","75","2.0.0","106146","p9mh6plr0u7","mus","whale","21","male","yes","yes","10","1","746","<div style=""font-size:30px;"">Press space to start the trial</div>"," ","","","","","","",""
"","","","","","html-keyboard-response","76","2.0.0","106413","p9mh6plr0u7","mus","whale","21","male","yes","yes","10","1","null","<div style=""font-size:60px;"">+</div>","null","","","","","","",""
"","","","","","audio-keyboard-response","77","2.0.0","107006","p9mh6plr0u7","mus","whale","21","male","yes","yes","10","1","null","stimuli/sounds/phone_sound_B.wav","null","","","","","","",""
"","","","","","html-keyboard-response","78","2.0.0","108012","p9mh6plr0u7","mus","whale","21","male","yes","yes","10","1","null","","null","","","","","","",""
"","","","","","image-keyboard-response","79","2.0.0","109716","p9mh6plr0u7","mus","whale","21","male","yes","yes","10","1","1703","stimuli/pictures/phone_cell_1.jpg","0","1","","false","no","sound","stimuli/sounds/phone_sound_B.wav",""
"","","","","","audio-keyboard-response","80","2.0.0","110720","p9mh6plr0u7","mus","whale","21","male","yes","yes","10","1","null","stimuli/sounds/buzz.wav","null","","","","","","",""
"","","","","","html-keyboard-response","81","2.0.0","111858","p9mh6plr0u7","mus","whale","21","male","yes","yes","10","1","1028","<div style=""font-size:30px;"">Press space to start the trial</div>"," ","","","","","","",""
"","","","","","html-keyboard-response","82","2.0.0","112118","p9mh6plr0u7","mus","whale","21","male","yes","yes","10","1","null","<div style=""font-size:60px;"">+</div>","null","","","","","","",""
"","","","","","audio-keyboard-response","83","2.0.0","112727","p9mh6plr0u7","mus","whale","21","male","yes","yes","10","1","null","stimuli/sounds/flute_sound_B.wav","null","","","","","","",""
"","","","","","html-keyboard-response","84","2.0.0","113736","p9mh6plr0u7","mus","whale","21","male","yes","yes","10","1","null","","null","","","","","","",""
"","","","","","image-keyboard-response","85","2.0.0","115754","p9mh6plr0u7","mus","whale","21","male","yes","yes","10","1","2016","stimuli/pictures/flute_metal_1.jpg","0","1","","false","no","sound","stimuli/sounds/flute_sound_B.wav",""
"","","","","","audio-keyboard-response","86","2.0.0","116770","p9mh6plr0u7","mus","whale","21","male","yes","yes","10","1","null","stimuli/sounds/buzz.wav","null","","","","","","",""
"","","","","","html-keyboard-response","87","2.0.0","117371","p9mh6plr0u7","mus","whale","21","male","yes","yes","10","1","491","<div style=""font-size:30px;"">Press space to start the trial</div>"," ","","","","","","",""
"","","","","","html-keyboard-response","88","2.0.0","117629","p9mh6plr0u7","mus","whale","21","male","yes","yes","10","1","null","<div style=""font-size:60px;"">+</div>","null","","","","","","",""
"","","","","","audio-keyboard-response","89","2.0.0","118225","p9mh6plr0u7","mus","whale","21","male","yes","yes","10","1","null","stimuli/sounds/bird_label_B.wav","null","","","","","","",""
"","","","","","html-keyboard-response","90","2.0.0","119237","p9mh6plr0u7","mus","whale","21","male","yes","yes","10","1","null","","null","","","","","","",""
"","","","","","image-keyboard-response","91","2.0.0","120201","p9mh6plr0u7","mus","whale","21","male","yes","yes","10","1","962","stimuli/pictures/bird_song_2.jpg","1","1","","true","yes","sound","stimuli/sounds/bird_label_B.wav",""
"","","","","","audio-keyboard-response","92","2.0.0","121203","p9mh6plr0u7","mus","whale","21","male","yes","yes","10","1","null","stimuli/sounds/bleep.wav","null","","","","","","",""
"","","","","","html-keyboard-response","93","2.0.0","121806","p9mh6plr0u7","mus","whale","21","male","yes","yes","10","1","493","<div style=""font-size:30px;"">Press space to start the trial</div>"," ","","","","","","",""
"","","","","","html-keyboard-response","94","2.0.0","122065","p9mh6plr0u7","mus","whale","21","male","yes","yes","10","1","null","<div style=""font-size:60px;"">+</div>","null","","","","","","",""
"","","","","","audio-keyboard-response","95","2.0.0","122667","p9mh6plr0u7","mus","whale","21","male","yes","yes","10","1","null","stimuli/sounds/bird_label_A.wav","null","","","","","","",""
"","","","","","html-keyboard-response","96","2.0.0","123673","p9mh6plr0u7","mus","whale","21","male","yes","yes","10","1","null","","null","","","","","","",""
"","","","","","image-keyboard-response","97","2.0.0","124628","p9mh6plr0u7","mus","whale","21","male","yes","yes","10","1","954","stimuli/pictures/bird_hawk_1.jpg","1","1","","true","yes","sound","stimuli/sounds/bird_label_A.wav",""
"","","","","","audio-keyboard-response","98","2.0.0","125641","p9mh6plr0u7","mus","whale","21","male","yes","yes","10","1","null","stimuli/sounds/bleep.wav","null","","","","","","",""
"","","","","","html-keyboard-response","99","2.0.0","126181","p9mh6plr0u7","mus","whale","21","male","yes","yes","10","1","428","<div style=""font-size:30px;"">Press space to start the trial</div>"," ","","","","","","",""
"","","","","","html-keyboard-response","100","2.0.0","126434","p9mh6plr0u7","mus","whale","21","male","yes","yes","10","1","null","<div style=""font-size:60px;"">+</div>","null","","","","","","",""
"","","","","","audio-keyboard-response","101","2.0.0","127036","p9mh6plr0u7","mus","whale","21","male","yes","yes","10","1","null","stimuli/sounds/drum_sound_A.wav","null","","","","","","",""
"","","","","","html-keyboard-response","102","2.0.0","128048","p9mh6plr0u7","mus","whale","21","male","yes","yes","10","1","null","","null","","","","","","",""
"","","","","","image-keyboard-response","103","2.0.0","128471","p9mh6plr0u7","mus","whale","21","male","yes","yes","10","1","422","stimuli/pictures/drum_bongo_1.jpg","1","1","","true","no","sound","stimuli/sounds/drum_sound_A.wav",""
"","","","","","audio-keyboard-response","104","2.0.0","129485","p9mh6plr0u7","mus","whale","21","male","yes","yes","10","1","null","stimuli/sounds/bleep.wav","null","","","","","","",""
"","","","","","html-keyboard-response","105","2.0.0","130667","p9mh6plr0u7","mus","whale","21","male","yes","yes","10","1","1071","<div style=""font-size:30px;"">Press space to start the trial</div>"," ","","","","","","",""
"","","","","","html-keyboard-response","106","2.0.0","130922","p9mh6plr0u7","mus","whale","21","male","yes","yes","10","1","null","<div style=""font-size:60px;"">+</div>","null","","","","","","",""
"","","","","","audio-keyboard-response","107","2.0.0","131516","p9mh6plr0u7","mus","whale","21","male","yes","yes","10","1","null","stimuli/sounds/phone_label_A.wav","null","","","","","","",""
"","","","","","html-keyboard-response","108","2.0.0","132518","p9mh6plr0u7","mus","whale","21","male","yes","yes","10","1","null","","null","","","","","","",""
"","","","","","image-keyboard-response","109","2.0.0","133832","p9mh6plr0u7","mus","whale","21","male","yes","yes","10","1","1312","stimuli/pictures/drum_bongo_1.jpg","0","0","","true","no","sound","stimuli/sounds/phone_label_A.wav",""
"","","","","","audio-keyboard-response","110","2.0.0","134843","p9mh6plr0u7","mus","whale","21","male","yes","yes","10","1","null","stimuli/sounds/bleep.wav","null","","","","","","",""
"","","","","","html-keyboard-response","111","2.0.0","135854","p9mh6plr0u7","mus","whale","21","male","yes","yes","10","1","900","<div style=""font-size:30px;"">Press space to start the trial</div>"," ","","","","","","",""
"","","","","","html-keyboard-response","112","2.0.0","136114","p9mh6plr0u7","mus","whale","21","male","yes","yes","10","1","null","<div style=""font-size:60px;"">+</div>","null","","","","","","",""
"","","","","","audio-keyboard-response","113","2.0.0","136706","p9mh6plr0u7","mus","whale","21","male","yes","yes","10","1","null","stimuli/sounds/drum_label_B.wav","null","","","","","","",""
"","","","","","html-keyboard-response","114","2.0.0","137716","p9mh6plr0u7","mus","whale","21","male","yes","yes","10","1","null","","null","","","","","","",""
"","","","","","image-keyboard-response","115","2.0.0","138281","p9mh6plr0u7","mus","whale","21","male","yes","yes","10","1","564","stimuli/pictures/drum_bongo_2.jpg","1","1","","true","yes","sound","stimuli/sounds/drum_label_B.wav",""
"","","","","","audio-keyboard-response","116","2.0.0","139285","p9mh6plr0u7","mus","whale","21","male","yes","yes","10","1","null","stimuli/sounds/bleep.wav","null","","","","","","",""
"","","","","","html-keyboard-response","117","2.0.0","139975","p9mh6plr0u7","mus","whale","21","male","yes","yes","10","1","581","<div style=""font-size:30px;"">Press space to start the trial</div>"," ","","","","","","",""
"","","","","","html-keyboard-response","118","2.0.0","140242","p9mh6plr0u7","mus","whale","21","male","yes","yes","10","1","null","<div style=""font-size:60px;"">+</div>","null","","","","","","",""
"","","","","","audio-keyboard-response","119","2.0.0","140846","p9mh6plr0u7","mus","whale","21","male","yes","yes","10","1","null","stimuli/sounds/phone_label_A.wav","null","","","","","","",""
"","","","","","html-keyboard-response","120","2.0.0","141853","p9mh6plr0u7","mus","whale","21","male","yes","yes","10","1","null","","null","","","","","","",""
"","","","","","image-keyboard-response","121","2.0.0","142073","p9mh6plr0u7","mus","whale","21","male","yes","yes","10","1","218","stimuli/pictures/drum_kit_1.jpg","1","0","","false","no","sound","stimuli/sounds/phone_label_A.wav",""
"","","","","","audio-keyboard-response","122","2.0.0","142651","p9mh6plr0u7","mus","whale","21","male","yes","yes","10","1","581","stimuli/sounds/buzz.wav","0","","","","","","",""
"","","","","","html-keyboard-response","123","2.0.0","143282","p9mh6plr0u7","mus","whale","21","male","yes","yes","10","1","516","<div style=""font-size:30px;"">Press space to start the trial</div>"," ","","","","","","",""
"","","","","","html-keyboard-response","124","2.0.0","143535","p9mh6plr0u7","mus","whale","21","male","yes","yes","10","1","null","<div style=""font-size:60px;"">+</div>","null","","","","","","",""
"","","","","","audio-keyboard-response","125","2.0.0","144126","p9mh6plr0u7","mus","whale","21","male","yes","yes","10","1","null","stimuli/sounds/drum_label_B.wav","null","","","","","","",""
"","","","","","html-keyboard-response","126","2.0.0","145142","p9mh6plr0u7","mus","whale","21","male","yes","yes","10","1","null","","null","","","","","","",""
"","","","","","image-keyboard-response","127","2.0.0","145587","p9mh6plr0u7","mus","whale","21","male","yes","yes","10","1","442","stimuli/pictures/piano_electric_1.jpg","0","0","","true","no","sound","stimuli/sounds/drum_label_B.wav",""
"","","","","","audio-keyboard-response","128","2.0.0","146596","p9mh6plr0u7","mus","whale","21","male","yes","yes","10","1","null","stimuli/sounds/bleep.wav","null","","","","","","",""
"","","","","","html-keyboard-response","129","2.0.0","147127","p9mh6plr0u7","mus","whale","21","male","yes","yes","10","1","421","<div style=""font-size:30px;"">Press space to start the trial</div>"," ","","","","","","",""
"","","","","","html-keyboard-response","130","2.0.0","147391","p9mh6plr0u7","mus","whale","21","male","yes","yes","10","1","null","<div style=""font-size:60px;"">+</div>","null","","","","","","",""
"","","","","","audio-keyboard-response","131","2.0.0","147997","p9mh6plr0u7","mus","whale","21","male","yes","yes","10","1","null","stimuli/sounds/flute_label_A.wav","null","","","","","","",""
"","","","","","html-keyboard-response","132","2.0.0","149013","p9mh6plr0u7","mus","whale","21","male","yes","yes","10","1","null","","null","","","","","","",""
"","","","","","image-keyboard-response","133","2.0.0","150075","p9mh6plr0u7","mus","whale","21","male","yes","yes","10","1","1060","stimuli/pictures/flute_metal_2.jpg","1","1","","true","yes","sound","stimuli/sounds/flute_label_A.wav",""
"","","","","","audio-keyboard-response","134","2.0.0","151090","p9mh6plr0u7","mus","whale","21","male","yes","yes","10","1","null","stimuli/sounds/bleep.wav","null","","","","","","",""
"","","","","","html-keyboard-response","135","2.0.0","151619","p9mh6plr0u7","mus","whale","21","male","yes","yes","10","1","420","<div style=""font-size:30px;"">Press space to start the trial</div>"," ","","","","","","",""
"","","","","","html-keyboard-response","136","2.0.0","151877","p9mh6plr0u7","mus","whale","21","male","yes","yes","10","1","null","<div style=""font-size:60px;"">+</div>","null","","","","","","",""
"","","","","","audio-keyboard-response","137","2.0.0","152476","p9mh6plr0u7","mus","whale","21","male","yes","yes","10","1","null","stimuli/sounds/drum_label_A.wav","null","","","","","","",""
"","","","","","html-keyboard-response","138","2.0.0","153490","p9mh6plr0u7","mus","whale","21","male","yes","yes","10","1","null","","null","","","","","","",""
"","","","","","image-keyboard-response","139","2.0.0","154433","p9mh6plr0u7","mus","whale","21","male","yes","yes","10","1","940","stimuli/pictures/bird_hawk_1.jpg","0","0","","true","no","sound","stimuli/sounds/drum_label_A.wav",""
"","","","","","audio-keyboard-response","140","2.0.0","155446","p9mh6plr0u7","mus","whale","21","male","yes","yes","10","1","null","stimuli/sounds/bleep.wav","null","","","","","","",""
"","","","","","html-keyboard-response","141","2.0.0","156253","p9mh6plr0u7","mus","whale","21","male","yes","yes","10","1","697","<div style=""font-size:30px;"">Press space to start the trial</div>"," ","","","","","","",""
"","","","","","html-keyboard-response","142","2.0.0","156513","p9mh6plr0u7","mus","whale","21","male","yes","yes","10","1","null","<div style=""font-size:60px;"">+</div>","null","","","","","","",""
"","","","","","audio-keyboard-response","143","2.0.0","157107","p9mh6plr0u7","mus","whale","21","male","yes","yes","10","1","null","stimuli/sounds/drum_label_A.wav","null","","","","","","",""
"","","","","","html-keyboard-response","144","2.0.0","158122","p9mh6plr0u7","mus","whale","21","male","yes","yes","10","1","null","","null","","","","","","",""
"","","","","","image-keyboard-response","145","2.0.0","158474","p9mh6plr0u7","mus","whale","21","male","yes","yes","10","1","350","stimuli/pictures/bird_hawk_1.jpg","0","0","","true","no","sound","stimuli/sounds/drum_label_A.wav",""
"","","","","","audio-keyboard-response","146","2.0.0","159486","p9mh6plr0u7","mus","whale","21","male","yes","yes","10","1","null","stimuli/sounds/bleep.wav","null","","","","","","",""
"","","","","","html-keyboard-response","147","2.0.0","162488","p9mh6plr0u7","mus","whale","21","male","yes","yes","10","1","2892","<p>You have completed a block. Press R when you are ready to continue</p>","r","","","","","","",""
"","","","","","html-keyboard-response","148","2.0.0","163132","p9mh6plr0u7","mus","whale","21","male","yes","yes","10","1","642","<div style=""font-size:30px;"">Press space to start the trial</div>"," ","","","","","","",""
"","","","","","html-keyboard-response","149","2.0.0","163387","p9mh6plr0u7","mus","whale","21","male","yes","yes","10","1","null","<div style=""font-size:60px;"">+</div>","null","","","","","","",""
"","","","","","audio-keyboard-response","150","2.0.0","163997","p9mh6plr0u7","mus","whale","21","male","yes","yes","10","1","null","stimuli/sounds/flute_label_B.wav","null","","","","","","",""
"","","","","","html-keyboard-response","151","2.0.0","165001","p9mh6plr0u7","mus","whale","21","male","yes","yes","10","1","null","","null","","","","","","",""
"","","","","","image-keyboard-response","152","2.0.0","166028","p9mh6plr0u7","mus","whale","21","male","yes","yes","10","1","1025","stimuli/pictures/drum_bongo_1.jpg","0","0","","true","no","sound","stimuli/sounds/flute_label_B.wav",""
"","","","","","audio-keyboard-response","153","2.0.0","167041","p9mh6plr0u7","mus","whale","21","male","yes","yes","10","1","null","stimuli/sounds/bleep.wav","null","","","","","","",""
"","","","","","html-keyboard-response","154","2.0.0","168255","p9mh6plr0u7","mus","whale","21","male","yes","yes","10","1","1102","<div style=""font-size:30px;"">Press space to start the trial</div>"," ","","","","","","",""
"","","","","","html-keyboard-response","155","2.0.0","168521","p9mh6plr0u7","mus","whale","21","male","yes","yes","10","1","null","<div style=""font-size:60px;"">+</div>","null","","","","","","",""
"","","","","","audio-keyboard-response","156","2.0.0","169117","p9mh6plr0u7","mus","whale","21","male","yes","yes","10","1","null","stimuli/sounds/drum_sound_A.wav","null","","","","","","",""
"","","","","","html-keyboard-response","157","2.0.0","170121","p9mh6plr0u7","mus","whale","21","male","yes","yes","10","1","null","","null","","","","","","",""
"","","","","","image-keyboard-response","158","2.0.0","170692","p9mh6plr0u7","mus","whale","21","male","yes","yes","10","1","569","stimuli/pictures/flute_wooden_1.jpg","0","0","","true","no","sound","stimuli/sounds/drum_sound_A.wav",""
"","","","","","audio-keyboard-response","159","2.0.0","171694","p9mh6plr0u7","mus","whale","21","male","yes","yes","10","1","null","stimuli/sounds/bleep.wav","null","","","","","","",""
"","","","","","html-keyboard-response","160","2.0.0","174189","p9mh6plr0u7","mus","whale","21","male","yes","yes","10","1","2384","<div style=""font-size:30px;"">Press space to start the trial</div>"," ","","","","","","",""
"","","","","","html-keyboard-response","161","2.0.0","174451","p9mh6plr0u7","mus","whale","21","male","yes","yes","10","1","null","<div style=""font-size:60px;"">+</div>","null","","","","","","",""
"","","","","","audio-keyboard-response","162","2.0.0","175046","p9mh6plr0u7","mus","whale","21","male","yes","yes","10","1","null","stimuli/sounds/bird_sound_B.wav","null","","","","","","",""
"","","","","","html-keyboard-response","163","2.0.0","176049","p9mh6plr0u7","mus","whale","21","male","yes","yes","10","1","null","","null","","","","","","",""
"","","","","","image-keyboard-response","164","2.0.0","176892","p9mh6plr0u7","mus","whale","21","male","yes","yes","10","1","841","stimuli/pictures/bird_song_1.jpg","1","1","","true","yes","sound","stimuli/sounds/bird_sound_B.wav",""
"","","","","","audio-keyboard-response","165","2.0.0","177902","p9mh6plr0u7","mus","whale","21","male","yes","yes","10","1","null","stimuli/sounds/bleep.wav","null","","","","","","",""
"","","","","","html-keyboard-response","166","2.0.0","178546","p9mh6plr0u7","mus","whale","21","male","yes","yes","10","1","534","<div style=""font-size:30px;"">Press space to start the trial</div>"," ","","","","","","",""
"","","","","","html-keyboard-response","167","2.0.0","178812","p9mh6plr0u7","mus","whale","21","male","yes","yes","10","1","null","<div style=""font-size:60px;"">+</div>","null","","","","","","",""
"","","","","","audio-keyboard-response","168","2.0.0","179416","p9mh6plr0u7","mus","whale","21","male","yes","yes","10","1","null","stimuli/sounds/flute_label_A.wav","null","","","","","","",""
"","","","","","html-keyboard-response","169","2.0.0","180429","p9mh6plr0u7","mus","whale","21","male","yes","yes","10","1","null","","null","","","","","","",""
"","","","","","image-keyboard-response","170","2.0.0","181207","p9mh6plr0u7","mus","whale","21","male","yes","yes","10","1","776","stimuli/pictures/piano_grand_1.jpg","0","0","","true","no","sound","stimuli/sounds/flute_label_A.wav",""
"","","","","","audio-keyboard-response","171","2.0.0","182218","p9mh6plr0u7","mus","whale","21","male","yes","yes","10","1","null","stimuli/sounds/bleep.wav","null","","","","","","",""
"","","","","","html-keyboard-response","172","2.0.0","183402","p9mh6plr0u7","mus","whale","21","male","yes","yes","10","1","1075","<div style=""font-size:30px;"">Press space to start the trial</div>"," ","","","","","","",""
"","","","","","html-keyboard-response","173","2.0.0","183655","p9mh6plr0u7","mus","whale","21","male","yes","yes","10","1","null","<div style=""font-size:60px;"">+</div>","null","","","","","","",""
"","","","","","audio-keyboard-response","174","2.0.0","184245","p9mh6plr0u7","mus","whale","21","male","yes","yes","10","1","null","stimuli/sounds/drum_label_A.wav","null","","","","","","",""
"","","","","","html-keyboard-response","175","2.0.0","185252","p9mh6plr0u7","mus","whale","21","male","yes","yes","10","1","null","","null","","","","","","",""
"","","","","","image-keyboard-response","176","2.0.0","186065","p9mh6plr0u7","mus","whale","21","male","yes","yes","10","1","812","stimuli/pictures/drum_kit_1.jpg","1","1","","true","yes","sound","stimuli/sounds/drum_label_A.wav",""
"","","","","","audio-keyboard-response","177","2.0.0","187074","p9mh6plr0u7","mus","whale","21","male","yes","yes","10","1","null","stimuli/sounds/bleep.wav","null","","","","","","",""
"","","","","","html-keyboard-response","178","2.0.0","187739","p9mh6plr0u7","mus","whale","21","male","yes","yes","10","1","554","<div style=""font-size:30px;"">Press space to start the trial</div>"," ","","","","","","",""
"","","","","","html-keyboard-response","179","2.0.0","188000","p9mh6plr0u7","mus","whale","21","male","yes","yes","10","1","null","<div style=""font-size:60px;"">+</div>","null","","","","","","",""
"","","","","","audio-keyboard-response","180","2.0.0","188596","p9mh6plr0u7","mus","whale","21","male","yes","yes","10","1","null","stimuli/sounds/phone_sound_B.wav","null","","","","","","",""
"","","","","","html-keyboard-response","181","2.0.0","189613","p9mh6plr0u7","mus","whale","21","male","yes","yes","10","1","null","","null","","","","","","",""
"","","","","","image-keyboard-response","182","2.0.0","190421","p9mh6plr0u7","mus","whale","21","male","yes","yes","10","1","807","stimuli/pictures/piano_electric_2.jpg","0","0","","true","no","sound","stimuli/sounds/phone_sound_B.wav",""
"","","","","","audio-keyboard-response","183","2.0.0","191436","p9mh6plr0u7","mus","whale","21","male","yes","yes","10","1","null","stimuli/sounds/bleep.wav","null","","","","","","",""
"","","","","","html-keyboard-response","184","2.0.0","192049","p9mh6plr0u7","mus","whale","21","male","yes","yes","10","1","503","<div style=""font-size:30px;"">Press space to start the trial</div>"," ","","","","","","",""
"","","","","","html-keyboard-response","185","2.0.0","192308","p9mh6plr0u7","mus","whale","21","male","yes","yes","10","1","null","<div style=""font-size:60px;"">+</div>","null","","","","","","",""
"","","","","","audio-keyboard-response","186","2.0.0","192915","p9mh6plr0u7","mus","whale","21","male","yes","yes","10","1","null","stimuli/sounds/flute_sound_B.wav","null","","","","","","",""
"","","","","","html-keyboard-response","187","2.0.0","193925","p9mh6plr0u7","mus","whale","21","male","yes","yes","10","1","null","","null","","","","","","",""
"","","","","","image-keyboard-response","188","2.0.0","194814","p9mh6plr0u7","mus","whale","21","male","yes","yes","10","1","888","stimuli/pictures/flute_metal_2.jpg","1","1","","true","no","sound","stimuli/sounds/flute_sound_B.wav",""
"","","","","","audio-keyboard-response","189","2.0.0","195819","p9mh6plr0u7","mus","whale","21","male","yes","yes","10","1","null","stimuli/sounds/bleep.wav","null","","","","","","",""
"","","","","","html-keyboard-response","190","2.0.0","197017","p9mh6plr0u7","mus","whale","21","male","yes","yes","10","1","1089","<div style=""font-size:30px;"">Press space to start the trial</div>"," ","","","","","","",""
"","","","","","html-keyboard-response","191","2.0.0","197270","p9mh6plr0u7","mus","whale","21","male","yes","yes","10","1","null","<div style=""font-size:60px;"">+</div>","null","","","","","","",""
"","","","","","audio-keyboard-response","192","2.0.0","197896","p9mh6plr0u7","mus","whale","21","male","yes","yes","10","1","null","stimuli/sounds/piano_label_A.wav","null","","","","","","",""
"","","","","","html-keyboard-response","193","2.0.0","198905","p9mh6plr0u7","mus","whale","21","male","yes","yes","10","1","null","","null","","","","","","",""
"","","","","","image-keyboard-response","194","2.0.0","199795","p9mh6plr0u7","mus","whale","21","male","yes","yes","10","1","886","stimuli/pictures/piano_electric_1.jpg","1","1","","true","yes","sound","stimuli/sounds/piano_label_A.wav",""
"","","","","","audio-keyboard-response","195","2.0.0","200799","p9mh6plr0u7","mus","whale","21","male","yes","yes","10","1","null","stimuli/sounds/bleep.wav","null","","","","","","",""
"","","","","","html-keyboard-response","196","2.0.0","201446","p9mh6plr0u7","mus","whale","21","male","yes","yes","10","1","536","<div style=""font-size:30px;"">Press space to start the trial</div>"," ","","","","","","",""
"","","","","","html-keyboard-response","197","2.0.0","201704","p9mh6plr0u7","mus","whale","21","male","yes","yes","10","1","null","<div style=""font-size:60px;"">+</div>","null","","","","","","",""
"","","","","","audio-keyboard-response","198","2.0.0","202296","p9mh6plr0u7","mus","whale","21","male","yes","yes","10","1","null","stimuli/sounds/bird_sound_B.wav","null","","","","","","",""
"","","","","","html-keyboard-response","199","2.0.0","203300","p9mh6plr0u7","mus","whale","21","male","yes","yes","10","1","null","","null","","","","","","",""
"","","","","","image-keyboard-response","200","2.0.0","203576","p9mh6plr0u7","mus","whale","21","male","yes","yes","10","1","274","stimuli/pictures/bird_hawk_1.jpg","0","1","","false","no","sound","stimuli/sounds/bird_sound_B.wav",""
"","","","","","audio-keyboard-response","201","2.0.0","204586","p9mh6plr0u7","mus","whale","21","male","yes","yes","10","1","null","stimuli/sounds/buzz.wav","null","","","","","","",""
"","","","","","html-keyboard-response","202","2.0.0","205104","p9mh6plr0u7","mus","whale","21","male","yes","yes","10","1","409","<div style=""font-size:30px;"">Press space to start the trial</div>"," ","","","","","","",""
"","","","","","html-keyboard-response","203","2.0.0","205364","p9mh6plr0u7","mus","whale","21","male","yes","yes","10","1","null","<div style=""font-size:60px;"">+</div>","null","","","","","","",""
"","","","","","audio-keyboard-response","204","2.0.0","205965","p9mh6plr0u7","mus","whale","21","male","yes","yes","10","1","null","stimuli/sounds/phone_sound_A.wav","null","","","","","","",""
"","","","","","html-keyboard-response","205","2.0.0","206977","p9mh6plr0u7","mus","whale","21","male","yes","yes","10","1","null","","null","","","","","","",""
"","","","","","image-keyboard-response","206","2.0.0","207594","p9mh6plr0u7","mus","whale","21","male","yes","yes","10","1","615","stimuli/pictures/phone_rotary_1.jpg","1","1","","true","no","sound","stimuli/sounds/phone_sound_A.wav",""
"","","","","","audio-keyboard-response","207","2.0.0","208599","p9mh6plr0u7","mus","whale","21","male","yes","yes","10","1","null","stimuli/sounds/bleep.wav","null","","","","","","",""
"","","","","","html-keyboard-response","208","2.0.0","209594","p9mh6plr0u7","mus","whale","21","male","yes","yes","10","1","885","<div style=""font-size:30px;"">Press space to start the trial</div>"," ","","","","","","",""
"","","","","","html-keyboard-response","209","2.0.0","209852","p9mh6plr0u7","mus","whale","21","male","yes","yes","10","1","null","<div style=""font-size:60px;"">+</div>","null","","","","","","",""
"","","","","","audio-keyboard-response","210","2.0.0","210456","p9mh6plr0u7","mus","whale","21","male","yes","yes","10","1","null","stimuli/sounds/flute_sound_A.wav","null","","","","","","",""
"","","","","","html-keyboard-response","211","2.0.0","211466","p9mh6plr0u7","mus","whale","21","male","yes","yes","10","1","null","","null","","","","","","",""
"","","","","","image-keyboard-response","212","2.0.0","211811","p9mh6plr0u7","mus","whale","21","male","yes","yes","10","1","343","stimuli/pictures/flute_wooden_2.jpg","0","1","","false","no","sound","stimuli/sounds/flute_sound_A.wav",""
"","","","","","audio-keyboard-response","213","2.0.0","212817","p9mh6plr0u7","mus","whale","21","male","yes","yes","10","1","null","stimuli/sounds/buzz.wav","null","","","","","","",""
"","","","","","html-keyboard-response","214","2.0.0","213388","p9mh6plr0u7","mus","whale","21","male","yes","yes","10","1","460","<div style=""font-size:30px;"">Press space to start the trial</div>"," ","","","","","","",""
"","","","","","html-keyboard-response","215","2.0.0","213649","p9mh6plr0u7","mus","whale","21","male","yes","yes","10","1","null","<div style=""font-size:60px;"">+</div>","null","","","","","","",""
"","","","","","audio-keyboard-response","216","2.0.0","214246","p9mh6plr0u7","mus","whale","21","male","yes","yes","10","1","null","stimuli/sounds/bird_label_A.wav","null","","","","","","",""
"","","","","","html-keyboard-response","217","2.0.0","215247","p9mh6plr0u7","mus","whale","21","male","yes","yes","10","1","null","","null","","","","","","",""
"","","","","","image-keyboard-response","218","2.0.0","215310","p9mh6plr0u7","mus","whale","21","male","yes","yes","10","1","61","stimuli/pictures/flute_wooden_1.jpg","0","0","","true","no","sound","stimuli/sounds/bird_label_A.wav",""
"","","","","","audio-keyboard-response","219","2.0.0","216320","p9mh6plr0u7","mus","whale","21","male","yes","yes","10","1","null","stimuli/sounds/bleep.wav","null","","","","","","",""
"","","","","","html-keyboard-response","220","2.0.0","216806","p9mh6plr0u7","mus","whale","21","male","yes","yes","10","1","376","<div style=""font-size:30px;"">Press space to start the trial</div>"," ","","","","","","",""
"","","","","","html-keyboard-response","221","2.0.0","217059","p9mh6plr0u7","mus","whale","21","male","yes","yes","10","1","null","<div style=""font-size:60px;"">+</div>","null","","","","","","",""
"","","","","","audio-keyboard-response","222","2.0.0","217686","p9mh6plr0u7","mus","whale","21","male","yes","yes","10","1","null","stimuli/sounds/piano_label_A.wav","null","","","","","","",""
"","","","","","html-keyboard-response","223","2.0.0","218692","p9mh6plr0u7","mus","whale","21","male","yes","yes","10","1","null","","null","","","","","","",""
"","","","","","image-keyboard-response","224","2.0.0","220052","p9mh6plr0u7","mus","whale","21","male","yes","yes","10","1","1358","stimuli/pictures/phone_rotary_1.jpg","0","0","","true","no","sound","stimuli/sounds/piano_label_A.wav",""
"","","","","","audio-keyboard-response","225","2.0.0","221057","p9mh6plr0u7","mus","whale","21","male","yes","yes","10","1","null","stimuli/sounds/bleep.wav","null","","","","","","",""
"","","","","","html-keyboard-response","226","2.0.0","221597","p9mh6plr0u7","mus","whale","21","male","yes","yes","10","1","430","<div style=""font-size:30px;"">Press space to start the trial</div>"," ","","","","","","",""
"","","","","","html-keyboard-response","227","2.0.0","221855","p9mh6plr0u7","mus","whale","21","male","yes","yes","10","1","null","<div style=""font-size:60px;"">+</div>","null","","","","","","",""
"","","","","","audio-keyboard-response","228","2.0.0","222446","p9mh6plr0u7","mus","whale","21","male","yes","yes","10","1","null","stimuli/sounds/bird_label_A.wav","null","","","","","","",""
"","","","","","html-keyboard-response","229","2.0.0","223460","p9mh6plr0u7","mus","whale","21","male","yes","yes","10","1","null","","null","","","","","","",""
"","","","","","image-keyboard-response","230","2.0.0","223914","p9mh6plr0u7","mus","whale","21","male","yes","yes","10","1","452","stimuli/pictures/flute_metal_1.jpg","0","0","","true","no","sound","stimuli/sounds/bird_label_A.wav",""
"","","","","","audio-keyboard-response","231","2.0.0","224926","p9mh6plr0u7","mus","whale","21","male","yes","yes","10","1","null","stimuli/sounds/bleep.wav","null","","","","","","",""
"","","","","","html-keyboard-response","232","2.0.0","225640","p9mh6plr0u7","mus","whale","21","male","yes","yes","10","1","603","<div style=""font-size:30px;"">Press space to start the trial</div>"," ","","","","","","",""
"","","","","","html-keyboard-response","233","2.0.0","225895","p9mh6plr0u7","mus","whale","21","male","yes","yes","10","1","null","<div style=""font-size:60px;"">+</div>","null","","","","","","",""
"","","","","","audio-keyboard-response","234","2.0.0","226496","p9mh6plr0u7","mus","whale","21","male","yes","yes","10","1","null","stimuli/sounds/drum_sound_A.wav","null","","","","","","",""
"","","","","","html-keyboard-response","235","2.0.0","227506","p9mh6plr0u7","mus","whale","21","male","yes","yes","10","1","null","","null","","","","","","",""
"","","","","","image-keyboard-response","236","2.0.0","228553","p9mh6plr0u7","mus","whale","21","male","yes","yes","10","1","1044","stimuli/pictures/drum_bongo_2.jpg","1","1","","true","no","sound","stimuli/sounds/drum_sound_A.wav",""
"","","","","","audio-keyboard-response","237","2.0.0","229570","p9mh6plr0u7","mus","whale","21","male","yes","yes","10","1","null","stimuli/sounds/bleep.wav","null","","","","","","",""
"","","","","","html-keyboard-response","238","2.0.0","230177","p9mh6plr0u7","mus","whale","21","male","yes","yes","10","1","497","<div style=""font-size:30px;"">Press space to start the trial</div>"," ","","","","","","",""
"","","","","","html-keyboard-response","239","2.0.0","230437","p9mh6plr0u7","mus","whale","21","male","yes","yes","10","1","null","<div style=""font-size:60px;"">+</div>","null","","","","","","",""
"","","","","","audio-keyboard-response","240","2.0.0","231035","p9mh6plr0u7","mus","whale","21","male","yes","yes","10","1","null","stimuli/sounds/phone_sound_B.wav","null","","","","","","",""
"","","","","","html-keyboard-response","241","2.0.0","232041","p9mh6plr0u7","mus","whale","21","male","yes","yes","10","1","null","","null","","","","","","",""
"","","","","","image-keyboard-response","242","2.0.0","233129","p9mh6plr0u7","mus","whale","21","male","yes","yes","10","1","1087","stimuli/pictures/piano_grand_2.jpg","0","0","","true","no","sound","stimuli/sounds/phone_sound_B.wav",""
"","","","","","audio-keyboard-response","243","2.0.0","234136","p9mh6plr0u7","mus","whale","21","male","yes","yes","10","1","null","stimuli/sounds/bleep.wav","null","","","","","","",""
"","","","","","html-keyboard-response","244","2.0.0","234734","p9mh6plr0u7","mus","whale","21","male","yes","yes","10","1","489","<div style=""font-size:30px;"">Press space to start the trial</div>"," ","","","","","","",""
"","","","","","html-keyboard-response","245","2.0.0","234992","p9mh6plr0u7","mus","whale","21","male","yes","yes","10","1","null","<div style=""font-size:60px;"">+</div>","null","","","","","","",""
"","","","","","audio-keyboard-response","246","2.0.0","235586","p9mh6plr0u7","mus","whale","21","male","yes","yes","10","1","null","stimuli/sounds/phone_sound_A.wav","null","","","","","","",""
"","","","","","html-keyboard-response","247","2.0.0","236600","p9mh6plr0u7","mus","whale","21","male","yes","yes","10","1","null","","null","","","","","","",""
"","","","","","image-keyboard-response","248","2.0.0","238519","p9mh6plr0u7","mus","whale","21","male","yes","yes","10","1","1918","stimuli/pictures/bird_song_1.jpg","1","0","","false","no","sound","stimuli/sounds/phone_sound_A.wav",""
"","","","","","audio-keyboard-response","249","2.0.0","239524","p9mh6plr0u7","mus","whale","21","male","yes","yes","10","1","null","stimuli/sounds/buzz.wav","null","","","","","","",""
"","","","","","html-keyboard-response","250","2.0.0","241218","p9mh6plr0u7","mus","whale","21","male","yes","yes","10","1","1583","<div style=""font-size:30px;"">Press space to start the trial</div>"," ","","","","","","",""
"","","","","","html-keyboard-response","251","2.0.0","241483","p9mh6plr0u7","mus","whale","21","male","yes","yes","10","1","null","<div style=""font-size:60px;"">+</div>","null","","","","","","",""
"","","","","","audio-keyboard-response","252","2.0.0","242086","p9mh6plr0u7","mus","whale","21","male","yes","yes","10","1","null","stimuli/sounds/piano_sound_A.wav","null","","","","","","",""
"","","","","","html-keyboard-response","253","2.0.0","243098","p9mh6plr0u7","mus","whale","21","male","yes","yes","10","1","null","","null","","","","","","",""
"","","","","","image-keyboard-response","254","2.0.0","243779","p9mh6plr0u7","mus","whale","21","male","yes","yes","10","1","680","stimuli/pictures/piano_electric_2.jpg","0","1","","false","no","sound","stimuli/sounds/piano_sound_A.wav",""
"","","","","","audio-keyboard-response","255","2.0.0","244789","p9mh6plr0u7","mus","whale","21","male","yes","yes","10","1","null","stimuli/sounds/buzz.wav","null","","","","","","",""
"","","","","","html-keyboard-response","256","2.0.0","246133","p9mh6plr0u7","mus","whale","21","male","yes","yes","10","1","1235","<div style=""font-size:30px;"">Press space to start the trial</div>"," ","","","","","","",""
"","","","","","html-keyboard-response","257","2.0.0","246397","p9mh6plr0u7","mus","whale","21","male","yes","yes","10","1","null","<div style=""font-size:60px;"">+</div>","null","","","","","","",""
"","","","","","audio-keyboard-response","258","2.0.0","246997","p9mh6plr0u7","mus","whale","21","male","yes","yes","10","1","null","stimuli/sounds/bird_sound_A.wav","null","","","","","","",""
"","","","","","html-keyboard-response","259","2.0.0","248008","p9mh6plr0u7","mus","whale","21","male","yes","yes","10","1","null","","null","","","","","","",""
"","","","","","image-keyboard-response","260","2.0.0","249037","p9mh6plr0u7","mus","whale","21","male","yes","yes","10","1","1025","stimuli/pictures/bird_song_2.jpg","1","1","","true","no","sound","stimuli/sounds/bird_sound_A.wav",""
"","","","","","audio-keyboard-response","261","2.0.0","250053","p9mh6plr0u7","mus","whale","21","male","yes","yes","10","1","null","stimuli/sounds/bleep.wav","null","","","","","","",""
"","","","","","html-keyboard-response","262","2.0.0","250994","p9mh6plr0u7","mus","whale","21","male","yes","yes","10","1","831","<div style=""font-size:30px;"">Press space to start the trial</div>"," ","","","","","","",""
"","","","","","html-keyboard-response","263","2.0.0","251256","p9mh6plr0u7","mus","whale","21","male","yes","yes","10","1","null","<div style=""font-size:60px;"">+</div>","null","","","","","","",""
"","","","","","audio-keyboard-response","264","2.0.0","251856","p9mh6plr0u7","mus","whale","21","male","yes","yes","10","1","null","stimuli/sounds/phone_sound_A.wav","null","","","","","","",""
"","","","","","html-keyboard-response","265","2.0.0","252870","p9mh6plr0u7","mus","whale","21","male","yes","yes","10","1","null","","null","","","","","","",""
"","","","","","image-keyboard-response","266","2.0.0","253680","p9mh6plr0u7","mus","whale","21","male","yes","yes","10","1","808","stimuli/pictures/bird_song_2.jpg","0","0","","true","no","sound","stimuli/sounds/phone_sound_A.wav",""
"","","","","","audio-keyboard-response","267","2.0.0","254689","p9mh6plr0u7","mus","whale","21","male","yes","yes","10","1","null","stimuli/sounds/bleep.wav","null","","","","","","",""
"","","","","","html-keyboard-response","268","2.0.0","257026","p9mh6plr0u7","mus","whale","21","male","yes","yes","10","1","2224","<p>You have completed a block. Press R when you are ready to continue</p>","r","","","","","","",""
"","","","","","html-keyboard-response","269","2.0.0","257727","p9mh6plr0u7","mus","whale","21","male","yes","yes","10","1","700","<div style=""font-size:30px;"">Press space to start the trial</div>"," ","","","","","","",""
"","","","","","html-keyboard-response","270","2.0.0","257990","p9mh6plr0u7","mus","whale","21","male","yes","yes","10","1","null","<div style=""font-size:60px;"">+</div>","null","","","","","","",""
"","","","","","audio-keyboard-response","271","2.0.0","258587","p9mh6plr0u7","mus","whale","21","male","yes","yes","10","1","null","stimuli/sounds/drum_sound_B.wav","null","","","","","","",""
"","","","","","html-keyboard-response","272","2.0.0","259601","p9mh6plr0u7","mus","whale","21","male","yes","yes","10","1","null","","null","","","","","","",""
"","","","","","image-keyboard-response","273","2.0.0","260289","p9mh6plr0u7","mus","whale","21","male","yes","yes","10","1","685","stimuli/pictures/phone_rotary_1.jpg","0","0","","true","no","sound","stimuli/sounds/drum_sound_B.wav",""
"","","","","","audio-keyboard-response","274","2.0.0","261303","p9mh6plr0u7","mus","whale","21","male","yes","yes","10","1","null","stimuli/sounds/bleep.wav","null","","","","","","",""
"","","","","","html-keyboard-response","275","2.0.0","262337","p9mh6plr0u7","mus","whale","21","male","yes","yes","10","1","924","<div style=""font-size:30px;"">Press space to start the trial</div>"," ","","","","","","",""
"","","","","","html-keyboard-response","276","2.0.0","262604","p9mh6plr0u7","mus","whale","21","male","yes","yes","10","1","null","<div style=""font-size:60px;"">+</div>","null","","","","","","",""
"","","","","","audio-keyboard-response","277","2.0.0","263205","p9mh6plr0u7","mus","whale","21","male","yes","yes","10","1","null","stimuli/sounds/drum_label_A.wav","null","","","","","","",""
"","","","","","html-keyboard-response","278","2.0.0","264211","p9mh6plr0u7","mus","whale","21","male","yes","yes","10","1","null","","null","","","","","","",""
"","","","","","image-keyboard-response","279","2.0.0","264751","p9mh6plr0u7","mus","whale","21","male","yes","yes","10","1","538","stimuli/pictures/bird_song_2.jpg","0","0","","true","no","sound","stimuli/sounds/drum_label_A.wav",""
"","","","","","audio-keyboard-response","280","2.0.0","265759","p9mh6plr0u7","mus","whale","21","male","yes","yes","10","1","null","stimuli/sounds/bleep.wav","null","","","","","","",""
"","","","","","html-keyboard-response","281","2.0.0","266279","p9mh6plr0u7","mus","whale","21","male","yes","yes","10","1","411","<div style=""font-size:30px;"">Press space to start the trial</div>"," ","","","","","","",""
"","","","","","html-keyboard-response","282","2.0.0","266542","p9mh6plr0u7","mus","whale","21","male","yes","yes","10","1","null","<div style=""font-size:60px;"">+</div>","null","","","","","","",""
"","","","","","audio-keyboard-response","283","2.0.0","267146","p9mh6plr0u7","mus","whale","21","male","yes","yes","10","1","null","stimuli/sounds/piano_sound_B.wav","null","","","","","","",""
"","","","","","html-keyboard-response","284","2.0.0","268158","p9mh6plr0u7","mus","whale","21","male","yes","yes","10","1","null","","null","","","","","","",""
"","","","","","image-keyboard-response","285","2.0.0","268761","p9mh6plr0u7","mus","whale","21","male","yes","yes","10","1","600","stimuli/pictures/flute_metal_2.jpg","0","0","","true","no","sound","stimuli/sounds/piano_sound_B.wav",""
"","","","","","audio-keyboard-response","286","2.0.0","269764","p9mh6plr0u7","mus","whale","21","male","yes","yes","10","1","null","stimuli/sounds/bleep.wav","null","","","","","","",""
"","","","","","html-keyboard-response","287","2.0.0","270774","p9mh6plr0u7","mus","whale","21","male","yes","yes","10","1","897","<div style=""font-size:30px;"">Press space to start the trial</div>"," ","","","","","","",""
"","","","","","html-keyboard-response","288","2.0.0","271027","p9mh6plr0u7","mus","whale","21","male","yes","yes","10","1","null","<div style=""font-size:60px;"">+</div>","null","","","","","","",""
"","","","","","audio-keyboard-response","289","2.0.0","271635","p9mh6plr0u7","mus","whale","21","male","yes","yes","10","1","null","stimuli/sounds/piano_label_B.wav","null","","","","","","",""
"","","","","","html-keyboard-response","290","2.0.0","272639","p9mh6plr0u7","mus","whale","21","male","yes","yes","10","1","null","","null","","","","","","",""
"","","","","","image-keyboard-response","291","2.0.0","273181","p9mh6plr0u7","mus","whale","21","male","yes","yes","10","1","540","stimuli/pictures/bird_hawk_1.jpg","0","0","","true","no","sound","stimuli/sounds/piano_label_B.wav",""
"","","","","","audio-keyboard-response","292","2.0.0","274186","p9mh6plr0u7","mus","whale","21","male","yes","yes","10","1","null","stimuli/sounds/bleep.wav","null","","","","","","",""
"","","","","","html-keyboard-response","293","2.0.0","275125","p9mh6plr0u7","mus","whale","21","male","yes","yes","10","1","829","<div style=""font-size:30px;"">Press space to start the trial</div>"," ","","","","","","",""
"","","","","","html-keyboard-response","294","2.0.0","275377","p9mh6plr0u7","mus","whale","21","male","yes","yes","10","1","null","<div style=""font-size:60px;"">+</div>","null","","","","","","",""
"","","","","","audio-keyboard-response","295","2.0.0","275977","p9mh6plr0u7","mus","whale","21","male","yes","yes","10","1","null","stimuli/sounds/phone_label_A.wav","null","","","","","","",""
"","","","","","html-keyboard-response","296","2.0.0","276991","p9mh6plr0u7","mus","whale","21","male","yes","yes","10","1","null","","null","","","","","","",""
"","","","","","image-keyboard-response","297","2.0.0","277678","p9mh6plr0u7","mus","whale","21","male","yes","yes","10","1","685","stimuli/pictures/phone_rotary_2.jpg","1","1","","true","yes","sound","stimuli/sounds/phone_label_A.wav",""
"","","","","","audio-keyboard-response","298","2.0.0","278214","p9mh6plr0u7","mus","whale","21","male","yes","yes","10","1","531","stimuli/sounds/bleep.wav","1","","","","","","",""
"","","","","","html-keyboard-response","299","2.0.0","278997","p9mh6plr0u7","mus","whale","21","male","yes","yes","10","1","672","<div style=""font-size:30px;"">Press space to start the trial</div>"," ","","","","","","",""
"","","","","","html-keyboard-response","300","2.0.0","279260","p9mh6plr0u7","mus","whale","21","male","yes","yes","10","1","null","<div style=""font-size:60px;"">+</div>","null","","","","","","",""
"","","","","","audio-keyboard-response","301","2.0.0","279856","p9mh6plr0u7","mus","whale","21","male","yes","yes","10","1","null","stimuli/sounds/bird_label_A.wav","null","","","","","","",""
"","","","","","html-keyboard-response","302","2.0.0","280864","p9mh6plr0u7","mus","whale","21","male","yes","yes","10","1","null","","null","","","","","","",""
"","","","","","image-keyboard-response","303","2.0.0","281310","p9mh6plr0u7","mus","whale","21","male","yes","yes","10","1","444","stimuli/pictures/bird_hawk_1.jpg","1","1","","true","yes","sound","stimuli/sounds/bird_label_A.wav",""
"","","","","","audio-keyboard-response","304","2.0.0","282317","p9mh6plr0u7","mus","whale","21","male","yes","yes","10","1","null","stimuli/sounds/bleep.wav","null","","","","","","",""
"","","","","","html-keyboard-response","305","2.0.0","283007","p9mh6plr0u7","mus","whale","21","male","yes","yes","10","1","582","<div style=""font-size:30px;"">Press space to start the trial</div>"," ","","","","","","",""
"","","","","","html-keyboard-response","306","2.0.0","283260","p9mh6plr0u7","mus","whale","21","male","yes","yes","10","1","null","<div style=""font-size:60px;"">+</div>","null","","","","","","",""
"","","","","","audio-keyboard-response","307","2.0.0","283866","p9mh6plr0u7","mus","whale","21","male","yes","yes","10","1","null","stimuli/sounds/piano_sound_B.wav","null","","","","","","",""
"","","","","","html-keyboard-response","308","2.0.0","284872","p9mh6plr0u7","mus","whale","21","male","yes","yes","10","1","null","","null","","","","","","",""
"","","","","","image-keyboard-response","309","2.0.0","286049","p9mh6plr0u7","mus","whale","21","male","yes","yes","10","1","1174","stimuli/pictures/piano_grand_1.jpg","0","1","","false","no","sound","stimuli/sounds/piano_sound_B.wav",""
"","","","","","audio-keyboard-response","310","2.0.0","287063","p9mh6plr0u7","mus","whale","21","male","yes","yes","10","1","null","stimuli/sounds/buzz.wav","null","","","","","","",""
"","","","","","html-keyboard-response","311","2.0.0","287674","p9mh6plr0u7","mus","whale","21","male","yes","yes","10","1","500","<div style=""font-size:30px;"">Press space to start the trial</div>"," ","","","","","","",""
"","","","","","html-keyboard-response","312","2.0.0","287935","p9mh6plr0u7","mus","whale","21","male","yes","yes","10","1","null","<div style=""font-size:60px;"">+</div>","null","","","","","","",""
"","","","","","audio-keyboard-response","313","2.0.0","288536","p9mh6plr0u7","mus","whale","21","male","yes","yes","10","1","null","stimuli/sounds/bird_sound_B.wav","null","","","","","","",""
"","","","","","html-keyboard-response","314","2.0.0","289543","p9mh6plr0u7","mus","whale","21","male","yes","yes","10","1","null","","null","","","","","","",""
"","","","","","image-keyboard-response","315","2.0.0","290898","p9mh6plr0u7","mus","whale","21","male","yes","yes","10","1","1353","stimuli/pictures/drum_kit_2.jpg","0","0","","true","no","sound","stimuli/sounds/bird_sound_B.wav",""
"","","","","","audio-keyboard-response","316","2.0.0","291906","p9mh6plr0u7","mus","whale","21","male","yes","yes","10","1","null","stimuli/sounds/bleep.wav","null","","","","","","",""
"","","","","","html-keyboard-response","317","2.0.0","292909","p9mh6plr0u7","mus","whale","21","male","yes","yes","10","1","891","<div style=""font-size:30px;"">Press space to start the trial</div>"," ","","","","","","",""
"","","","","","html-keyboard-response","318","2.0.0","293165","p9mh6plr0u7","mus","whale","21","male","yes","yes","10","1","null","<div style=""font-size:60px;"">+</div>","null","","","","","","",""
"","","","","","audio-keyboard-response","319","2.0.0","293766","p9mh6plr0u7","mus","whale","21","male","yes","yes","10","1","null","stimuli/sounds/flute_label_A.wav","null","","","","","","",""
"","","","","","html-keyboard-response","320","2.0.0","294782","p9mh6plr0u7","mus","whale","21","male","yes","yes","10","1","null","","null","","","","","","",""
"","","","","","image-keyboard-response","321","2.0.0","295437","p9mh6plr0u7","mus","whale","21","male","yes","yes","10","1","652","stimuli/pictures/piano_electric_2.jpg","0","0","","true","no","sound","stimuli/sounds/flute_label_A.wav",""
"","","","","","audio-keyboard-response","322","2.0.0","296446","p9mh6plr0u7","mus","whale","21","male","yes","yes","10","1","null","stimuli/sounds/bleep.wav","null","","","","","","",""
"","","","","","html-keyboard-response","323","2.0.0","297154","p9mh6plr0u7","mus","whale","21","male","yes","yes","10","1","597","<div style=""font-size:30px;"">Press space to start the trial</div>"," ","","","","","","",""
"","","","","","html-keyboard-response","324","2.0.0","297417","p9mh6plr0u7","mus","whale","21","male","yes","yes","10","1","null","<div style=""font-size:60px;"">+</div>","null","","","","","","",""
"","","","","","audio-keyboard-response","325","2.0.0","298026","p9mh6plr0u7","mus","whale","21","male","yes","yes","10","1","null","stimuli/sounds/flute_label_A.wav","null","","","","","","",""
"","","","","","html-keyboard-response","326","2.0.0","299039","p9mh6plr0u7","mus","whale","21","male","yes","yes","10","1","null","","null","","","","","","",""
"","","","","","image-keyboard-response","327","2.0.0","299706","p9mh6plr0u7","mus","whale","21","male","yes","yes","10","1","665","stimuli/pictures/flute_metal_1.jpg","0","1","","false","yes","sound","stimuli/sounds/flute_label_A.wav",""
"","","","","","audio-keyboard-response","328","2.0.0","300460","p9mh6plr0u7","mus","whale","21","male","yes","yes","10","1","752","stimuli/sounds/buzz.wav","1","","","","","","",""
"","","","","","html-keyboard-response","329","2.0.0","301151","p9mh6plr0u7","mus","whale","21","male","yes","yes","10","1","579","<div style=""font-size:30px;"">Press space to start the trial</div>"," ","","","","","","",""
"","","","","","html-keyboard-response","330","2.0.0","301412","p9mh6plr0u7","mus","whale","21","male","yes","yes","10","1","null","<div style=""font-size:60px;"">+</div>","null","","","","","","",""
"","","","","","audio-keyboard-response","331","2.0.0","302016","p9mh6plr0u7","mus","whale","21","male","yes","yes","10","1","null","stimuli/sounds/flute_label_B.wav","null","","","","","","",""
"","","","","","html-keyboard-response","332","2.0.0","303024","p9mh6plr0u7","mus","whale","21","male","yes","yes","10","1","null","","null","","","","","","",""
"","","","","","image-keyboard-response","333","2.0.0","303546","p9mh6plr0u7","mus","whale","21","male","yes","yes","10","1","521","stimuli/pictures/drum_kit_2.jpg","0","0","","true","no","sound","stimuli/sounds/flute_label_B.wav",""
"","","","","","audio-keyboard-response","334","2.0.0","304553","p9mh6plr0u7","mus","whale","21","male","yes","yes","10","1","null","stimuli/sounds/bleep.wav","null","","","","","","",""
"","","","","","html-keyboard-response","335","2.0.0","305343","p9mh6plr0u7","mus","whale","21","male","yes","yes","10","1","679","<div style=""font-size:30px;"">Press space to start the trial</div>"," ","","","","","","",""
"","","","","","html-keyboard-response","336","2.0.0","305601","p9mh6plr0u7","mus","whale","21","male","yes","yes","10","1","null","<div style=""font-size:60px;"">+</div>","null","","","","","","",""
"","","","","","audio-keyboard-response","337","2.0.0","306195","p9mh6plr0u7","mus","whale","21","male","yes","yes","10","1","null","stimuli/sounds/phone_label_A.wav","null","","","","","","",""
"","","","","","html-keyboard-response","338","2.0.0","307200","p9mh6plr0u7","mus","whale","21","male","yes","yes","10","1","null","","null","","","","","","",""
"","","","","","image-keyboard-response","339","2.0.0","307843","p9mh6plr0u7","mus","whale","21","male","yes","yes","10","1","640","stimuli/pictures/drum_bongo_2.jpg","0","0","","true","no","sound","stimuli/sounds/phone_label_A.wav",""
"","","","","","audio-keyboard-response","340","2.0.0","308859","p9mh6plr0u7","mus","whale","21","male","yes","yes","10","1","null","stimuli/sounds/bleep.wav","null","","","","","","",""
"","","","","","html-keyboard-response","341","2.0.0","309434","p9mh6plr0u7","mus","whale","21","male","yes","yes","10","1","465","<div style=""font-size:30px;"">Press space to start the trial</div>"," ","","","","","","",""
"","","","","","html-keyboard-response","342","2.0.0","309700","p9mh6plr0u7","mus","whale","21","male","yes","yes","10","1","null","<div style=""font-size:60px;"">+</div>","null","","","","","","",""
"","","","","","audio-keyboard-response","343","2.0.0","310306","p9mh6plr0u7","mus","whale","21","male","yes","yes","10","1","null","stimuli/sounds/piano_sound_A.wav","null","","","","","","",""
"","","","","","html-keyboard-response","344","2.0.0","311310","p9mh6plr0u7","mus","whale","21","male","yes","yes","10","1","null","","null","","","","","","",""
"","","","","","image-keyboard-response","345","2.0.0","311981","p9mh6plr0u7","mus","whale","21","male","yes","yes","10","1","670","stimuli/pictures/piano_grand_2.jpg","0","1","","false","yes","sound","stimuli/sounds/piano_sound_A.wav",""
"","","","","","audio-keyboard-response","346","2.0.0","312989","p9mh6plr0u7","mus","whale","21","male","yes","yes","10","1","null","stimuli/sounds/buzz.wav","null","","","","","","",""
"","","","","","html-keyboard-response","347","2.0.0","313804","p9mh6plr0u7","mus","whale","21","male","yes","yes","10","1","706","<div style=""font-size:30px;"">Press space to start the trial</div>"," ","","","","","","",""
"","","","","","html-keyboard-response","348","2.0.0","314066","p9mh6plr0u7","mus","whale","21","male","yes","yes","10","1","null","<div style=""font-size:60px;"">+</div>","null","","","","","","",""
"","","","","","audio-keyboard-response","349","2.0.0","314677","p9mh6plr0u7","mus","whale","21","male","yes","yes","10","1","null","stimuli/sounds/flute_label_B.wav","null","","","","","","",""
"","","","","","html-keyboard-response","350","2.0.0","315688","p9mh6plr0u7","mus","whale","21","male","yes","yes","10","1","null","","null","","","","","","",""
"","","","","","image-keyboard-response","351","2.0.0","316203","p9mh6plr0u7","mus","whale","21","male","yes","yes","10","1","514","stimuli/pictures/flute_metal_2.jpg","0","1","","false","yes","sound","stimuli/sounds/flute_label_B.wav",""
"","","","","","audio-keyboard-response","352","2.0.0","317217","p9mh6plr0u7","mus","whale","21","male","yes","yes","10","1","null","stimuli/sounds/buzz.wav","null","","","","","","",""
"","","","","","html-keyboard-response","353","2.0.0","319094","p9mh6plr0u7","mus","whale","21","male","yes","yes","10","1","1768","<div style=""font-size:30px;"">Press space to start the trial</div>"," ","","","","","","",""
"","","","","","html-keyboard-response","354","2.0.0","319357","p9mh6plr0u7","mus","whale","21","male","yes","yes","10","1","null","<div style=""font-size:60px;"">+</div>","null","","","","","","",""
"","","","","","audio-keyboard-response","355","2.0.0","319956","p9mh6plr0u7","mus","whale","21","male","yes","yes","10","1","null","stimuli/sounds/phone_label_B.wav","null","","","","","","",""
"","","","","","html-keyboard-response","356","2.0.0","320962","p9mh6plr0u7","mus","whale","21","male","yes","yes","10","1","null","","null","","","","","","",""
"","","","","","image-keyboard-response","357","2.0.0","321554","p9mh6plr0u7","mus","whale","21","male","yes","yes","10","1","590","stimuli/pictures/flute_wooden_1.jpg","0","0","","true","no","sound","stimuli/sounds/phone_label_B.wav",""
"","","","","","audio-keyboard-response","358","2.0.0","322571","p9mh6plr0u7","mus","whale","21","male","yes","yes","10","1","null","stimuli/sounds/bleep.wav","null","","","","","","",""
"","","","","","html-keyboard-response","359","2.0.0","323511","p9mh6plr0u7","mus","whale","21","male","yes","yes","10","1","830","<div style=""font-size:30px;"">Press space to start the trial</div>"," ","","","","","","",""
"","","","","","html-keyboard-response","360","2.0.0","323779","p9mh6plr0u7","mus","whale","21","male","yes","yes","10","1","null","<div style=""font-size:60px;"">+</div>","null","","","","","","",""
"","","","","","audio-keyboard-response","361","2.0.0","324386","p9mh6plr0u7","mus","whale","21","male","yes","yes","10","1","null","stimuli/sounds/piano_sound_A.wav","null","","","","","","",""
"","","","","","html-keyboard-response","362","2.0.0","325400","p9mh6plr0u7","mus","whale","21","male","yes","yes","10","1","null","","null","","","","","","",""
"","","","","","image-keyboard-response","363","2.0.0","326187","p9mh6plr0u7","mus","whale","21","male","yes","yes","10","1","785","stimuli/pictures/drum_kit_2.jpg","0","0","","true","no","sound","stimuli/sounds/piano_sound_A.wav",""
"","","","","","audio-keyboard-response","364","2.0.0","327198","p9mh6plr0u7","mus","whale","21","male","yes","yes","10","1","null","stimuli/sounds/bleep.wav","null","","","","","","",""
"","","","","","html-keyboard-response","365","2.0.0","328002","p9mh6plr0u7","mus","whale","21","male","yes","yes","10","1","693","<div style=""font-size:30px;"">Press space to start the trial</div>"," ","","","","","","",""
"","","","","","html-keyboard-response","366","2.0.0","328262","p9mh6plr0u7","mus","whale","21","male","yes","yes","10","1","null","<div style=""font-size:60px;"">+</div>","null","","","","","","",""
"","","","","","audio-keyboard-response","367","2.0.0","328867","p9mh6plr0u7","mus","whale","21","male","yes","yes","10","1","null","stimuli/sounds/piano_sound_B.wav","null","","","","","","",""
"","","","","","html-keyboard-response","368","2.0.0","329874","p9mh6plr0u7","mus","whale","21","male","yes","yes","10","1","null","","null","","","","","","",""
"","","","","","image-keyboard-response","369","2.0.0","331353","p9mh6plr0u7","mus","whale","21","male","yes","yes","10","1","1477","stimuli/pictures/flute_wooden_2.jpg","0","0","","true","no","sound","stimuli/sounds/piano_sound_B.wav",""
"","","","","","audio-keyboard-response","370","2.0.0","332368","p9mh6plr0u7","mus","whale","21","male","yes","yes","10","1","null","stimuli/sounds/bleep.wav","null","","","","","","",""
"","","","","","html-keyboard-response","371","2.0.0","333797","p9mh6plr0u7","mus","whale","21","male","yes","yes","10","1","1318","<div style=""font-size:30px;"">Press space to start the trial</div>"," ","","","","","","",""
"","","","","","html-keyboard-response","372","2.0.0","334056","p9mh6plr0u7","mus","whale","21","male","yes","yes","10","1","null","<div style=""font-size:60px;"">+</div>","null","","","","","","",""
"","","","","","audio-keyboard-response","373","2.0.0","334689","p9mh6plr0u7","mus","whale","21","male","yes","yes","10","1","null","stimuli/sounds/piano_label_A.wav","null","","","","","","",""
"","","","","","html-keyboard-response","374","2.0.0","335698","p9mh6plr0u7","mus","whale","21","male","yes","yes","10","1","null","","null","","","","","","",""
"","","","","","image-keyboard-response","375","2.0.0","336595","p9mh6plr0u7","mus","whale","21","male","yes","yes","10","1","895","stimuli/pictures/phone_rotary_2.jpg","0","0","","true","no","sound","stimuli/sounds/piano_label_A.wav",""
"","","","","","audio-keyboard-response","376","2.0.0","337607","p9mh6plr0u7","mus","whale","21","male","yes","yes","10","1","null","stimuli/sounds/bleep.wav","null","","","","","","",""
"","","","","","html-keyboard-response","377","2.0.0","338489","p9mh6plr0u7","mus","whale","21","male","yes","yes","10","1","774","<div style=""font-size:30px;"">Press space to start the trial</div>"," ","","","","","","",""
"","","","","","html-keyboard-response","378","2.0.0","338746","p9mh6plr0u7","mus","whale","21","male","yes","yes","10","1","null","<div style=""font-size:60px;"">+</div>","null","","","","","","",""
"","","","","","audio-keyboard-response","379","2.0.0","339346","p9mh6plr0u7","mus","whale","21","male","yes","yes","10","1","null","stimuli/sounds/bird_label_B.wav","null","","","","","","",""
"","","","","","html-keyboard-response","380","2.0.0","340355","p9mh6plr0u7","mus","whale","21","male","yes","yes","10","1","null","","null","","","","","","",""
"","","","","","image-keyboard-response","381","2.0.0","341597","p9mh6plr0u7","mus","whale","21","male","yes","yes","10","1","1241","stimuli/pictures/bird_hawk_1.jpg","1","1","","true","yes","sound","stimuli/sounds/bird_label_B.wav",""
"","","","","","audio-keyboard-response","382","2.0.0","342607","p9mh6plr0u7","mus","whale","21","male","yes","yes","10","1","null","stimuli/sounds/bleep.wav","null","","","","","","",""
"","","","","","html-keyboard-response","383","2.0.0","345114","p9mh6plr0u7","mus","whale","21","male","yes","yes","10","1","2396","<div style=""font-size:30px;"">Press space to start the trial</div>"," ","","","","","","",""
"","","","","","html-keyboard-response","384","2.0.0","345373","p9mh6plr0u7","mus","whale","21","male","yes","yes","10","1","null","<div style=""font-size:60px;"">+</div>","null","","","","","","",""
"","","","","","audio-keyboard-response","385","2.0.0","345977","p9mh6plr0u7","mus","whale","21","male","yes","yes","10","1","null","stimuli/sounds/piano_sound_A.wav","null","","","","","","",""
"","","","","","html-keyboard-response","386","2.0.0","346983","p9mh6plr0u7","mus","whale","21","male","yes","yes","10","1","null","","null","","","","","","",""
"","","","","","image-keyboard-response","387","2.0.0","347883","p9mh6plr0u7","mus","whale","21","male","yes","yes","10","1","898","stimuli/pictures/piano_grand_1.jpg","1","1","","true","yes","sound","stimuli/sounds/piano_sound_A.wav",""
"","","","","","audio-keyboard-response","388","2.0.0","348900","p9mh6plr0u7","mus","whale","21","male","yes","yes","10","1","null","stimuli/sounds/bleep.wav","null","","","","","","",""
"","","","","","html-keyboard-response","389","2.0.0","350600","p9mh6plr0u7","mus","whale","21","male","yes","yes","10","1","1589","<p>You have completed a block. Press R when you are ready to continue</p>","r","","","","","","",""
"","","","","","html-keyboard-response","390","2.0.0","351407","p9mh6plr0u7","mus","whale","21","male","yes","yes","10","1","805","<div style=""font-size:30px;"">Press space to start the trial</div>"," ","","","","","","",""
"","","","","","html-keyboard-response","391","2.0.0","351662","p9mh6plr0u7","mus","whale","21","male","yes","yes","10","1","null","<div style=""font-size:60px;"">+</div>","null","","","","","","",""
"","","","","","audio-keyboard-response","392","2.0.0","352266","p9mh6plr0u7","mus","whale","21","male","yes","yes","10","1","null","stimuli/sounds/piano_sound_B.wav","null","","","","","","",""
"","","","","","html-keyboard-response","393","2.0.0","353276","p9mh6plr0u7","mus","whale","21","male","yes","yes","10","1","null","","null","","","","","","",""
"","","","","","image-keyboard-response","394","2.0.0","353932","p9mh6plr0u7","mus","whale","21","male","yes","yes","10","1","656","stimuli/pictures/flute_wooden_1.jpg","0","0","","true","no","sound","stimuli/sounds/piano_sound_B.wav",""
"","","","","","audio-keyboard-response","395","2.0.0","354938","p9mh6plr0u7","mus","whale","21","male","yes","yes","10","1","null","stimuli/sounds/bleep.wav","null","","","","","","",""
"","","","","","html-keyboard-response","396","2.0.0","356266","p9mh6plr0u7","mus","whale","21","male","yes","yes","10","1","1220","<div style=""font-size:30px;"">Press space to start the trial</div>"," ","","","","","","",""
"","","","","","html-keyboard-response","397","2.0.0","356531","p9mh6plr0u7","mus","whale","21","male","yes","yes","10","1","null","<div style=""font-size:60px;"">+</div>","null","","","","","","",""
"","","","","","audio-keyboard-response","398","2.0.0","357126","p9mh6plr0u7","mus","whale","21","male","yes","yes","10","1","null","stimuli/sounds/bird_sound_A.wav","null","","","","","","",""
"","","","","","html-keyboard-response","399","2.0.0","358140","p9mh6plr0u7","mus","whale","21","male","yes","yes","10","1","null","","null","","","","","","",""
"","","","","","image-keyboard-response","400","2.0.0","358576","p9mh6plr0u7","mus","whale","21","male","yes","yes","10","1","435","stimuli/pictures/piano_electric_1.jpg","0","0","","true","no","sound","stimuli/sounds/bird_sound_A.wav",""
"","","","","","audio-keyboard-response","401","2.0.0","359581","p9mh6plr0u7","mus","whale","21","male","yes","yes","10","1","null","stimuli/sounds/bleep.wav","null","","","","","","",""
"","","","","","html-keyboard-response","402","2.0.0","360187","p9mh6plr0u7","mus","whale","21","male","yes","yes","10","1","497","<div style=""font-size:30px;"">Press space to start the trial</div>"," ","","","","","","",""
"","","","","","html-keyboard-response","403","2.0.0","360442","p9mh6plr0u7","mus","whale","21","male","yes","yes","10","1","null","<div style=""font-size:60px;"">+</div>","null","","","","","","",""
"","","","","","audio-keyboard-response","404","2.0.0","361046","p9mh6plr0u7","mus","whale","21","male","yes","yes","10","1","null","stimuli/sounds/flute_sound_B.wav","null","","","","","","",""
"","","","","","html-keyboard-response","405","2.0.0","362053","p9mh6plr0u7","mus","whale","21","male","yes","yes","10","1","null","","null","","","","","","",""
"","","","","","image-keyboard-response","406","2.0.0","362448","p9mh6plr0u7","mus","whale","21","male","yes","yes","10","1","393","stimuli/pictures/bird_song_2.jpg","0","0","","true","no","sound","stimuli/sounds/flute_sound_B.wav",""
"","","","","","audio-keyboard-response","407","2.0.0","363460","p9mh6plr0u7","mus","whale","21","male","yes","yes","10","1","null","stimuli/sounds/bleep.wav","null","","","","","","",""
"","","","","","html-keyboard-response","408","2.0.0","364243","p9mh6plr0u7","mus","whale","21","male","yes","yes","10","1","674","<div style=""font-size:30px;"">Press space to start the trial</div>"," ","","","","","","",""
"","","","","","html-keyboard-response","409","2.0.0","364509","p9mh6plr0u7","mus","whale","21","male","yes","yes","10","1","null","<div style=""font-size:60px;"">+</div>","null","","","","","","",""
"","","","","","audio-keyboard-response","410","2.0.0","365115","p9mh6plr0u7","mus","whale","21","male","yes","yes","10","1","null","stimuli/sounds/flute_sound_A.wav","null","","","","","","",""
"","","","","","html-keyboard-response","411","2.0.0","366123","p9mh6plr0u7","mus","whale","21","male","yes","yes","10","1","null","","null","","","","","","",""
"","","","","","image-keyboard-response","412","2.0.0","366780","p9mh6plr0u7","mus","whale","21","male","yes","yes","10","1","655","stimuli/pictures/phone_cell_2.jpg","0","0","","true","no","sound","stimuli/sounds/flute_sound_A.wav",""
"","","","","","audio-keyboard-response","413","2.0.0","367791","p9mh6plr0u7","mus","whale","21","male","yes","yes","10","1","null","stimuli/sounds/bleep.wav","null","","","","","","",""
"","","","","","html-keyboard-response","414","2.0.0","370413","p9mh6plr0u7","mus","whale","21","male","yes","yes","10","1","2512","<div style=""font-size:30px;"">Press space to start the trial</div>"," ","","","","","","",""
"","","","","","html-keyboard-response","415","2.0.0","370669","p9mh6plr0u7","mus","whale","21","male","yes","yes","10","1","null","<div style=""font-size:60px;"">+</div>","null","","","","","","",""
"","","","","","audio-keyboard-response","416","2.0.0","371268","p9mh6plr0u7","mus","whale","21","male","yes","yes","10","1","null","stimuli/sounds/drum_label_A.wav","null","","","","","","",""
"","","","","","html-keyboard-response","417","2.0.0","372270","p9mh6plr0u7","mus","whale","21","male","yes","yes","10","1","null","","null","","","","","","",""
"","","","","","image-keyboard-response","418","2.0.0","372751","p9mh6plr0u7","mus","whale","21","male","yes","yes","10","1","479","stimuli/pictures/drum_bongo_2.jpg","1","1","","true","yes","sound","stimuli/sounds/drum_label_A.wav",""
"","","","","","audio-keyboard-response","419","2.0.0","373758","p9mh6plr0u7","mus","whale","21","male","yes","yes","10","1","null","stimuli/sounds/bleep.wav","null","","","","","","",""
"","","","","","html-keyboard-response","420","2.0.0","374573","p9mh6plr0u7","mus","whale","21","male","yes","yes","10","1","704","<div style=""font-size:30px;"">Press space to start the trial</div>"," ","","","","","","",""
"","","","","","html-keyboard-response","421","2.0.0","374826","p9mh6plr0u7","mus","whale","21","male","yes","yes","10","1","null","<div style=""font-size:60px;"">+</div>","null","","","","","","",""
"","","","","","audio-keyboard-response","422","2.0.0","375426","p9mh6plr0u7","mus","whale","21","male","yes","yes","10","1","null","stimuli/sounds/bird_label_B.wav","null","","","","","","",""
"","","","","","html-keyboard-response","423","2.0.0","376436","p9mh6plr0u7","mus","whale","21","male","yes","yes","10","1","null","","null","","","","","","",""
"","","","","","image-keyboard-response","424","2.0.0","377780","p9mh6plr0u7","mus","whale","21","male","yes","yes","10","1","1342","stimuli/pictures/phone_cell_1.jpg","1","0","","false","no","sound","stimuli/sounds/bird_label_B.wav",""
"","","","","","audio-keyboard-response","425","2.0.0","378782","p9mh6plr0u7","mus","whale","21","male","yes","yes","10","1","null","stimuli/sounds/buzz.wav","null","","","","","","",""
"","","","","","html-keyboard-response","426","2.0.0","379779","p9mh6plr0u7","mus","whale","21","male","yes","yes","10","1","886","<div style=""font-size:30px;"">Press space to start the trial</div>"," ","","","","","","",""
"","","","","","html-keyboard-response","427","2.0.0","380032","p9mh6plr0u7","mus","whale","21","male","yes","yes","10","1","null","<div style=""font-size:60px;"">+</div>","null","","","","","","",""
"","","","","","audio-keyboard-response","428","2.0.0","380627","p9mh6plr0u7","mus","whale","21","male","yes","yes","10","1","null","stimuli/sounds/phone_sound_A.wav","null","","","","","","",""
"","","","","","html-keyboard-response","429","2.0.0","381643","p9mh6plr0u7","mus","whale","21","male","yes","yes","10","1","null","","null","","","","","","",""
"","","","","","image-keyboard-response","430","2.0.0","386998","p9mh6plr0u7","mus","whale","21","male","yes","yes","10","1","5353","stimuli/pictures/phone_cell_2.jpg","0","1","","false","yes","sound","stimuli/sounds/phone_sound_A.wav",""
"","","","","","audio-keyboard-response","431","2.0.0","388009","p9mh6plr0u7","mus","whale","21","male","yes","yes","10","1","null","stimuli/sounds/buzz.wav","null","","","","","","",""
"","","","","","html-keyboard-response","432","2.0.0","388828","p9mh6plr0u7","mus","whale","21","male","yes","yes","10","1","709","<div style=""font-size:30px;"">Press space to start the trial</div>"," ","","","","","","",""
"","","","","","html-keyboard-response","433","2.0.0","389086","p9mh6plr0u7","mus","whale","21","male","yes","yes","10","1","null","<div style=""font-size:60px;"">+</div>","null","","","","","","",""
"","","","","","audio-keyboard-response","434","2.0.0","389685","p9mh6plr0u7","mus","whale","21","male","yes","yes","10","1","null","stimuli/sounds/phone_label_B.wav","null","","","","","","",""
"","","","","","html-keyboard-response","435","2.0.0","390700","p9mh6plr0u7","mus","whale","21","male","yes","yes","10","1","null","","null","","","","","","",""
"","","","","","image-keyboard-response","436","2.0.0","392295","p9mh6plr0u7","mus","whale","21","male","yes","yes","10","1","1595","stimuli/pictures/phone_rotary_1.jpg","1","1","","true","yes","sound","stimuli/sounds/phone_label_B.wav",""
"","","","","","audio-keyboard-response","437","2.0.0","393300","p9mh6plr0u7","mus","whale","21","male","yes","yes","10","1","null","stimuli/sounds/bleep.wav","null","","","","","","",""
"","","","","","html-keyboard-response","438","2.0.0","395875","p9mh6plr0u7","mus","whale","21","male","yes","yes","10","1","2466","<div style=""font-size:30px;"">Press space to start the trial</div>"," ","","","","","","",""
"","","","","","html-keyboard-response","439","2.0.0","396128","p9mh6plr0u7","mus","whale","21","male","yes","yes","10","1","null","<div style=""font-size:60px;"">+</div>","null","","","","","","",""
"","","","","","audio-keyboard-response","440","2.0.0","396726","p9mh6plr0u7","mus","whale","21","male","yes","yes","10","1","null","stimuli/sounds/drum_label_B.wav","null","","","","","","",""
"","","","","","html-keyboard-response","441","2.0.0","397736","p9mh6plr0u7","mus","whale","21","male","yes","yes","10","1","null","","null","","","","","","",""
"","","","","","image-keyboard-response","442","2.0.0","400258","p9mh6plr0u7","mus","whale","21","male","yes","yes","10","1","2520","stimuli/pictures/piano_grand_1.jpg","0","0","","true","no","sound","stimuli/sounds/drum_label_B.wav",""
"","","","","","audio-keyboard-response","443","2.0.0","401274","p9mh6plr0u7","mus","whale","21","male","yes","yes","10","1","null","stimuli/sounds/bleep.wav","null","","","","","","",""
"","","","","","html-keyboard-response","444","2.0.0","401945","p9mh6plr0u7","mus","whale","21","male","yes","yes","10","1","560","<div style=""font-size:30px;"">Press space to start the trial</div>"," ","","","","","","",""
"","","","","","html-keyboard-response","445","2.0.0","402201","p9mh6plr0u7","mus","whale","21","male","yes","yes","10","1","null","<div style=""font-size:60px;"">+</div>","null","","","","","","",""
"","","","","","audio-keyboard-response","446","2.0.0","402805","p9mh6plr0u7","mus","whale","21","male","yes","yes","10","1","null","stimuli/sounds/flute_label_B.wav","null","","","","","","",""
"","","","","","html-keyboard-response","447","2.0.0","403817","p9mh6plr0u7","mus","whale","21","male","yes","yes","10","1","null","","null","","","","","","",""
"","","","","","image-keyboard-response","448","2.0.0","404141","p9mh6plr0u7","mus","whale","21","male","yes","yes","10","1","321","stimuli/pictures/drum_kit_1.jpg","1","0","","false","no","sound","stimuli/sounds/flute_label_B.wav",""
"","","","","","audio-keyboard-response","449","2.0.0","405150","p9mh6plr0u7","mus","whale","21","male","yes","yes","10","1","null","stimuli/sounds/buzz.wav","null","","","","","","",""
"","","","","","html-keyboard-response","450","2.0.0","405938","p9mh6plr0u7","mus","whale","21","male","yes","yes","10","1","679","<div style=""font-size:30px;"">Press space to start the trial</div>"," ","","","","","","",""
"","","","","","html-keyboard-response","451","2.0.0","406200","p9mh6plr0u7","mus","whale","21","male","yes","yes","10","1","null","<div style=""font-size:60px;"">+</div>","null","","","","","","",""
"","","","","","audio-keyboard-response","452","2.0.0","406806","p9mh6plr0u7","mus","whale","21","male","yes","yes","10","1","null","stimuli/sounds/flute_sound_B.wav","null","","","","","","",""
"","","","","","html-keyboard-response","453","2.0.0","407818","p9mh6plr0u7","mus","whale","21","male","yes","yes","10","1","null","","null","","","","","","",""
"","","","","","image-keyboard-response","454","2.0.0","408367","p9mh6plr0u7","mus","whale","21","male","yes","yes","10","1","548","stimuli/pictures/flute_wooden_2.jpg","1","1","","true","yes","sound","stimuli/sounds/flute_sound_B.wav",""
"","","","","","audio-keyboard-response","455","2.0.0","409370","p9mh6plr0u7","mus","whale","21","male","yes","yes","10","1","null","stimuli/sounds/bleep.wav","null","","","","","","",""
"","","","","","html-keyboard-response","456","2.0.0","409964","p9mh6plr0u7","mus","whale","21","male","yes","yes","10","1","483","<div style=""font-size:30px;"">Press space to start the trial</div>"," ","","","","","","",""
"","","","","","html-keyboard-response","457","2.0.0","410221","p9mh6plr0u7","mus","whale","21","male","yes","yes","10","1","null","<div style=""font-size:60px;"">+</div>","null","","","","","","",""
"","","","","","audio-keyboard-response","458","2.0.0","410815","p9mh6plr0u7","mus","whale","21","male","yes","yes","10","1","null","stimuli/sounds/drum_sound_B.wav","null","","","","","","",""
"","","","","","html-keyboard-response","459","2.0.0","411832","p9mh6plr0u7","mus","whale","21","male","yes","yes","10","1","null","","null","","","","","","",""
"","","","","","image-keyboard-response","460","2.0.0","412512","p9mh6plr0u7","mus","whale","21","male","yes","yes","10","1","678","stimuli/pictures/phone_cell_2.jpg","0","0","","true","no","sound","stimuli/sounds/drum_sound_B.wav",""
"","","","","","audio-keyboard-response","461","2.0.0","413516","p9mh6plr0u7","mus","whale","21","male","yes","yes","10","1","null","stimuli/sounds/bleep.wav","null","","","","","","",""
"","","","","","html-keyboard-response","462","2.0.0","414138","p9mh6plr0u7","mus","whale","21","male","yes","yes","10","1","512","<div style=""font-size:30px;"">Press space to start the trial</div>"," ","","","","","","",""
"","","","","","html-keyboard-response","463","2.0.0","414399","p9mh6plr0u7","mus","whale","21","male","yes","yes","10","1","null","<div style=""font-size:60px;"">+</div>","null","","","","","","",""
"","","","","","audio-keyboard-response","464","2.0.0","414996","p9mh6plr0u7","mus","whale","21","male","yes","yes","10","1","null","stimuli/sounds/drum_label_A.wav","null","","","","","","",""
"","","","","","html-keyboard-response","465","2.0.0","415998","p9mh6plr0u7","mus","whale","21","male","yes","yes","10","1","null","","null","","","","","","",""
"","","","","","image-keyboard-response","466","2.0.0","417537","p9mh6plr0u7","mus","whale","21","male","yes","yes","10","1","1538","stimuli/pictures/bird_song_1.jpg","0","0","","true","no","sound","stimuli/sounds/drum_label_A.wav",""
"","","","","","audio-keyboard-response","467","2.0.0","418552","p9mh6plr0u7","mus","whale","21","male","yes","yes","10","1","null","stimuli/sounds/bleep.wav","null","","","","","","",""
"","","","","","html-keyboard-response","468","2.0.0","419094","p9mh6plr0u7","mus","whale","21","male","yes","yes","10","1","431","<div style=""font-size:30px;"">Press space to start the trial</div>"," ","","","","","","",""
"","","","","","html-keyboard-response","469","2.0.0","419350","p9mh6plr0u7","mus","whale","21","male","yes","yes","10","1","null","<div style=""font-size:60px;"">+</div>","null","","","","","","",""
"","","","","","audio-keyboard-response","470","2.0.0","419945","p9mh6plr0u7","mus","whale","21","male","yes","yes","10","1","null","stimuli/sounds/phone_sound_B.wav","null","","","","","","",""
"","","","","","html-keyboard-response","471","2.0.0","420955","p9mh6plr0u7","mus","whale","21","male","yes","yes","10","1","null","","null","","","","","","",""
"","","","","","image-keyboard-response","472","2.0.0","421459","p9mh6plr0u7","mus","whale","21","male","yes","yes","10","1","502","stimuli/pictures/piano_grand_1.jpg","0","0","","true","no","sound","stimuli/sounds/phone_sound_B.wav",""
"","","","","","audio-keyboard-response","473","2.0.0","422475","p9mh6plr0u7","mus","whale","21","male","yes","yes","10","1","null","stimuli/sounds/bleep.wav","null","","","","","","",""
"","","","","","html-keyboard-response","474","2.0.0","422906","p9mh6plr0u7","mus","whale","21","male","yes","yes","10","1","321","<div style=""font-size:30px;"">Press space to start the trial</div>"," ","","","","","","",""
"","","","","","html-keyboard-response","475","2.0.0","423163","p9mh6plr0u7","mus","whale","21","male","yes","yes","10","1","null","<div style=""font-size:60px;"">+</div>","null","","","","","","",""
"","","","","","audio-keyboard-response","476","2.0.0","423756","p9mh6plr0u7","mus","whale","21","male","yes","yes","10","1","null","stimuli/sounds/drum_sound_B.wav","null","","","","","","",""
"","","","","","html-keyboard-response","477","2.0.0","424769","p9mh6plr0u7","mus","whale","21","male","yes","yes","10","1","null","","null","","","","","","",""
"","","","","","image-keyboard-response","478","2.0.0","425642","p9mh6plr0u7","mus","whale","21","male","yes","yes","10","1","872","stimuli/pictures/drum_kit_1.jpg","0","1","","false","no","sound","stimuli/sounds/drum_sound_B.wav",""
"","","","","","audio-keyboard-response","479","2.0.0","426658","p9mh6plr0u7","mus","whale","21","male","yes","yes","10","1","null","stimuli/sounds/buzz.wav","null","","","","","","",""
"","","","","","html-keyboard-response","480","2.0.0","427137","p9mh6plr0u7","mus","whale","21","male","yes","yes","10","1","368","<div style=""font-size:30px;"">Press space to start the trial</div>"," ","","","","","","",""
"","","","","","html-keyboard-response","481","2.0.0","427395","p9mh6plr0u7","mus","whale","21","male","yes","yes","10","1","null","<div style=""font-size:60px;"">+</div>","null","","","","","","",""
"","","","","","audio-keyboard-response","482","2.0.0","427985","p9mh6plr0u7","mus","whale","21","male","yes","yes","10","1","null","stimuli/sounds/bird_sound_B.wav","null","","","","","","",""
"","","","","","html-keyboard-response","483","2.0.0","429001","p9mh6plr0u7","mus","whale","21","male","yes","yes","10","1","null","","null","","","","","","",""
"","","","","","image-keyboard-response","484","2.0.0","429392","p9mh6plr0u7","mus","whale","21","male","yes","yes","10","1","389","stimuli/pictures/bird_hawk_1.jpg","1","1","","true","no","sound","stimuli/sounds/bird_sound_B.wav",""
"","","","","","audio-keyboard-response","485","2.0.0","430394","p9mh6plr0u7","mus","whale","21","male","yes","yes","10","1","null","stimuli/sounds/bleep.wav","null","","","","","","",""
"","","","","","html-keyboard-response","486","2.0.0","431043","p9mh6plr0u7","mus","whale","21","male","yes","yes","10","1","543","<div style=""font-size:30px;"">Press space to start the trial</div>"," ","","","","","","",""
"","","","","","html-keyboard-response","487","2.0.0","431300","p9mh6plr0u7","mus","whale","21","male","yes","yes","10","1","null","<div style=""font-size:60px;"">+</div>","null","","","","","","",""
"","","","","","audio-keyboard-response","488","2.0.0","431906","p9mh6plr0u7","mus","whale","21","male","yes","yes","10","1","null","stimuli/sounds/piano_sound_B.wav","null","","","","","","",""
"","","","","","html-keyboard-response","489","2.0.0","432922","p9mh6plr0u7","mus","whale","21","male","yes","yes","10","1","null","","null","","","","","","",""
"","","","","","image-keyboard-response","490","2.0.0","433576","p9mh6plr0u7","mus","whale","21","male","yes","yes","10","1","653","stimuli/pictures/piano_electric_2.jpg","0","1","","false","yes","sound","stimuli/sounds/piano_sound_B.wav",""
