"success","timeout","failed_images","failed_audio","failed_video","trial_type","trial_index","plugin_version","time_elapsed","random_id","condition","participant","age","gender_id","mus_exp","inst_exp","years_exp","mus_listening","rt","stimulus","response","correct_response","practice","correct","congruent","sound_type","audio","question_order"
"true","false","[]","[]","[]","preload","0","2.0.0","128","p9qj0myo8ft","ono","turtle","22","female","yes","no","10","1.5","","","","","","","","","",""
"","","","","","html-keyboard-response","1","2.0.0","1424","p9qj0myo8ft","ono","turtle","22","female","yes","no","10","1.5","1296","Welcome to the experiment! Press any key to begin."," ","","","","","","",""
"true","","","","","fullscreen","2","null","4449","p9qj0myo8ft","ono","turtle","22","female","yes","no","10","1.5","2022","","","","","","","","",""
"","","","","","survey-text","3","2.0.0","7533","p9qj0myo8ft","ono","turtle","22","female","yes","no","10","1.5","3081","","{""participant_id"":""turtle""}","","","","","","",""
"","","","","","html-keyboard-response","4","2.0.0","10669","p9qj0myo8ft","ono","turtle","22","female","yes","no","10","1.5","3135","
    <p> Please use headphones for the duration of the study.</p>
    <p> Within each trial, you will hear a sound and then be presented with an image in the center of your screen.</p>
    <p>Press the <b>'1'</b> key if what you hear <u>matches</u> what you see.</p>
    <p>Press the <b>'0'</b> key if what you hear <u>does not match</u> what you see.</p>
    <p>Try to respond as quickly and accurately as you can.</p>
    <p> Press any key to begin.</p>
    "," ","","","","","","",""
"","","","","","html-keyboard-response","5","2.0.0","12401","p9qj0myo8ft","ono","turtle","22","female","yes","no","10","1.5","1731","
    <div style=""font-size:28px;"">
      <p>You will now complete 4 short practice trials.</p>
      <p>This is just to help you get familiar with the task.</p>
      <p>Press any key to begin.</p>
    </div>
  "," ","","","","","","",""
"","","","","","html-keyboard-response","6","2.0.0","12903","p9qj0myo8ft","ono","turtle","22","female","yes","no","10","1.5","null","<div style=""font-size:60px;"">+</div>","null","","","","","","",""
"","","","","","audio-keyboard-response","7","2.0.0","13669","p9qj0myo8ft","ono","turtle","22","female","yes","no","10","1.5","null","stimuli/sounds/guitar_label_A.wav","null","","","","","","",""
"","","","","","image-keyboard-response","8","2.0.0","14206","p9qj0myo8ft","ono","turtle","22","female","yes","no","10","1.5","534","stimuli/pictures/guitar_acoustic_1.jpg","1","1","true","true","","","",""
"","","","","","audio-keyboard-response","9","2.0.0","15009","p9qj0myo8ft","ono","turtle","22","female","yes","no","10","1.5","null","stimuli/sounds/bleep.wav","null","","","","","","",""
"","","","","","html-keyboard-response","10","2.0.0","15711","p9qj0myo8ft","ono","turtle","22","female","yes","no","10","1.5","null","<p style='color:green; font-size:30px;'>Correct!</p>","null","","","","","","",""
"","","","","","html-keyboard-response","11","2.0.0","16213","p9qj0myo8ft","ono","turtle","22","female","yes","no","10","1.5","null","<div style=""font-size:60px;"">+</div>","null","","","","","","",""
"","","","","","audio-keyboard-response","12","2.0.0","16815","p9qj0myo8ft","ono","turtle","22","female","yes","no","10","1.5","null","stimuli/sounds/guitar_sound_B.wav","null","","","","","","",""
"","","","","","image-keyboard-response","13","2.0.0","17609","p9qj0myo8ft","ono","turtle","22","female","yes","no","10","1.5","793","stimuli/pictures/guitar_acoustic_2.jpg","1","1","true","true","","","",""
"","","","","","audio-keyboard-response","14","2.0.0","18411","p9qj0myo8ft","ono","turtle","22","female","yes","no","10","1.5","null","stimuli/sounds/bleep.wav","null","","","","","","",""
"","","","","","html-keyboard-response","15","2.0.0","19113","p9qj0myo8ft","ono","turtle","22","female","yes","no","10","1.5","null","<p style='color:green; font-size:30px;'>Correct!</p>","null","","","","","","",""
"","","","","","html-keyboard-response","16","2.0.0","19615","p9qj0myo8ft","ono","turtle","22","female","yes","no","10","1.5","null","<div style=""font-size:60px;"">+</div>","null","","","","","","",""
"","","","","","audio-keyboard-response","17","2.0.0","20217","p9qj0myo8ft","ono","turtle","22","female","yes","no","10","1.5","null","stimuli/sounds/flute_sound_A.wav","null","","","","","","",""
"","","","","","image-keyboard-response","18","2.0.0","20958","p9qj0myo8ft","ono","turtle","22","female","yes","no","10","1.5","740","stimuli/pictures/guitar_electric_1.jpg","0","0","true","true","","","",""
"","","","","","audio-keyboard-response","19","2.0.0","21759","p9qj0myo8ft","ono","turtle","22","female","yes","no","10","1.5","null","stimuli/sounds/bleep.wav","null","","","","","","",""
"","","","","","html-keyboard-response","20","2.0.0","22461","p9qj0myo8ft","ono","turtle","22","female","yes","no","10","1.5","null","<p style='color:green; font-size:30px;'>Correct!</p>","null","","","","","","",""
"","","","","","html-keyboard-response","21","2.0.0","22964","p9qj0myo8ft","ono","turtle","22","female","yes","no","10","1.5","null","<div style=""font-size:60px;"">+</div>","null","","","","","","",""
"","","","","","audio-keyboard-response","22","2.0.0","23567","p9qj0myo8ft","ono","turtle","22","female","yes","no","10","1.5","null","stimuli/sounds/guitar_sound_A.wav","null","","","","","","",""
"","","","","","image-keyboard-response","23","2.0.0","24514","p9qj0myo8ft","ono","turtle","22","female","yes","no","10","1.5","946","stimuli/pictures/guitar_acoustic_1.jpg","1","1","true","true","","","",""
"","","","","","audio-keyboard-response","24","2.0.0","25316","p9qj0myo8ft","ono","turtle","22","female","yes","no","10","1.5","null","stimuli/sounds/bleep.wav","null","","","","","","",""
"","","","","","html-keyboard-response","25","2.0.0","26018","p9qj0myo8ft","ono","turtle","22","female","yes","no","10","1.5","null","<p style='color:green; font-size:30px;'>Correct!</p>","null","","","","","","",""
"","","","","","html-keyboard-response","26","2.0.0","27167","p9qj0myo8ft","ono","turtle","22","female","yes","no","10","1.5","1148","<p>Practice complete. Press any key to begin the real experiment.</p>"," ","","","","","","",""
"","","","","","html-keyboard-response","27","2.0.0","29603","p9qj0myo8ft","ono","turtle","22","female","yes","no","10","1.5","2435","<div style=""font-size:30px;"">Press space to start the trial</div>"," ","","","","","","",""
"","","","","","html-keyboard-response","28","2.0.0","29855","p9qj0myo8ft","ono","turtle","22","female","yes","no","10","1.5","null","<div style=""font-size:60px;"">+</div>","null","","","","","","",""
"","","","","","audio-keyboard-response","29","2.0.0","30440","p9qj0myo8ft","ono","turtle","22","female","yes","no","10","1.5","null","stimuli/sounds/drop_sound_A.wav","null","","","","","","",""
"","","","","","html-keyboard-response","30","2.0.0","31442","p9qj0myo8ft","ono","turtle","22","female","yes","no","10","1.5","null","","null","","","","","","",""
"","","","","","image-keyboard-response","31","2.0.0","31908","p9qj0myo8ft","ono","turtle","22","female","yes","no","10","1.5","465","stimuli/pictures/drop_multi_1.jpg","1","1","","true","no","sound","stimuli/sounds/drop_sound_A.wav",""
"","","","","","audio-keyboard-response","32","2.0.0","32911","p9qj0myo8ft","ono","turtle","22","female","yes","no","10","1.5","null","stimuli/sounds/bleep.wav","null","","","","","","",""
"","","","","","html-keyboard-response","33","2.0.0","33850","p9qj0myo8ft","ono","turtle","22","female","yes","no","10","1.5","837","<div style=""font-size:30px;"">Press space to start the trial</div>"," ","","","","","","",""
"","","","","","html-keyboard-response","34","2.0.0","34103","p9qj0myo8ft","ono","turtle","22","female","yes","no","10","1.5","null","<div style=""font-size:60px;"">+</div>","null","","","","","","",""
"","","","","","audio-keyboard-response","35","2.0.0","34706","p9qj0myo8ft","ono","turtle","22","female","yes","no","10","1.5","null","stimuli/sounds/motor_sound_A.wav","null","","","","","","",""
"","","","","","html-keyboard-response","36","2.0.0","35708","p9qj0myo8ft","ono","turtle","22","female","yes","no","10","1.5","null","","null","","","","","","",""
"","","","","","image-keyboard-response","37","2.0.0","36212","p9qj0myo8ft","ono","turtle","22","female","yes","no","10","1.5","503","stimuli/pictures/motor_dirt_2.jpg","1","1","","true","yes","sound","stimuli/sounds/motor_sound_A.wav",""
"","","","","","audio-keyboard-response","38","2.0.0","37215","p9qj0myo8ft","ono","turtle","22","female","yes","no","10","1.5","null","stimuli/sounds/bleep.wav","null","","","","","","",""
"","","","","","html-keyboard-response","39","2.0.0","37844","p9qj0myo8ft","ono","turtle","22","female","yes","no","10","1.5","528","<div style=""font-size:30px;"">Press space to start the trial</div>"," ","","","","","","",""
"","","","","","html-keyboard-response","40","2.0.0","38096","p9qj0myo8ft","ono","turtle","22","female","yes","no","10","1.5","null","<div style=""font-size:60px;"">+</div>","null","","","","","","",""
"","","","","","audio-keyboard-response","41","2.0.0","38648","p9qj0myo8ft","ono","turtle","22","female","yes","no","10","1.5","null","stimuli/sounds/drop_label_A.wav","null","","","","","","",""
"","","","","","html-keyboard-response","42","2.0.0","39650","p9qj0myo8ft","ono","turtle","22","female","yes","no","10","1.5","null","","null","","","","","","",""
"","","","","","image-keyboard-response","43","2.0.0","40050","p9qj0myo8ft","ono","turtle","22","female","yes","no","10","1.5","398","stimuli/pictures/drop_multi_2.jpg","1","1","","true","yes","sound","stimuli/sounds/drop_label_A.wav",""
"","","","","","audio-keyboard-response","44","2.0.0","41052","p9qj0myo8ft","ono","turtle","22","female","yes","no","10","1.5","null","stimuli/sounds/bleep.wav","null","","","","","","",""
"","","","","","html-keyboard-response","45","2.0.0","42153","p9qj0myo8ft","ono","turtle","22","female","yes","no","10","1.5","999","<div style=""font-size:30px;"">Press space to start the trial</div>"," ","","","","","","",""
"","","","","","html-keyboard-response","46","2.0.0","42405","p9qj0myo8ft","ono","turtle","22","female","yes","no","10","1.5","null","<div style=""font-size:60px;"">+</div>","null","","","","","","",""
"","","","","","audio-keyboard-response","47","2.0.0","43007","p9qj0myo8ft","ono","turtle","22","female","yes","no","10","1.5","null","stimuli/sounds/dog_label_A.wav","null","","","","","","",""
"","","","","","html-keyboard-response","48","2.0.0","44009","p9qj0myo8ft","ono","turtle","22","female","yes","no","10","1.5","null","","null","","","","","","",""
"","","","","","image-keyboard-response","49","2.0.0","44569","p9qj0myo8ft","ono","turtle","22","female","yes","no","10","1.5","558","stimuli/pictures/drop_multi_1.jpg","0","0","","true","no","sound","stimuli/sounds/dog_label_A.wav",""
"","","","","","audio-keyboard-response","50","2.0.0","45572","p9qj0myo8ft","ono","turtle","22","female","yes","no","10","1.5","null","stimuli/sounds/bleep.wav","null","","","","","","",""
"","","","","","html-keyboard-response","51","2.0.0","46222","p9qj0myo8ft","ono","turtle","22","female","yes","no","10","1.5","549","<div style=""font-size:30px;"">Press space to start the trial</div>"," ","","","","","","",""
"","","","","","html-keyboard-response","52","2.0.0","46474","p9qj0myo8ft","ono","turtle","22","female","yes","no","10","1.5","null","<div style=""font-size:60px;"">+</div>","null","","","","","","",""
"","","","","","audio-keyboard-response","53","2.0.0","47082","p9qj0myo8ft","ono","turtle","22","female","yes","no","10","1.5","null","stimuli/sounds/cough_label_B.wav","null","","","","","","",""
"","","","","","html-keyboard-response","54","2.0.0","48084","p9qj0myo8ft","ono","turtle","22","female","yes","no","10","1.5","null","","null","","","","","","",""
"","","","","","image-keyboard-response","55","2.0.0","48509","p9qj0myo8ft","ono","turtle","22","female","yes","no","10","1.5","423","stimuli/pictures/cough_wom_1.jpg","1","1","","true","yes","sound","stimuli/sounds/cough_label_B.wav",""
"","","","","","audio-keyboard-response","56","2.0.0","49511","p9qj0myo8ft","ono","turtle","22","female","yes","no","10","1.5","null","stimuli/sounds/bleep.wav","null","","","","","","",""
"","","","","","html-keyboard-response","57","2.0.0","50202","p9qj0myo8ft","ono","turtle","22","female","yes","no","10","1.5","590","<div style=""font-size:30px;"">Press space to start the trial</div>"," ","","","","","","",""
"","","","","","html-keyboard-response","58","2.0.0","50455","p9qj0myo8ft","ono","turtle","22","female","yes","no","10","1.5","null","<div style=""font-size:60px;"">+</div>","null","","","","","","",""
"","","","","","audio-keyboard-response","59","2.0.0","51059","p9qj0myo8ft","ono","turtle","22","female","yes","no","10","1.5","null","stimuli/sounds/motor_label_B.wav","null","","","","","","",""
"","","","","","html-keyboard-response","60","2.0.0","52061","p9qj0myo8ft","ono","turtle","22","female","yes","no","10","1.5","null","","null","","","","","","",""
"","","","","","image-keyboard-response","61","2.0.0","52621","p9qj0myo8ft","ono","turtle","22","female","yes","no","10","1.5","558","stimuli/pictures/hiccup_wom_1.jpg","0","0","","true","no","sound","stimuli/sounds/motor_label_B.wav",""
"","","","","","audio-keyboard-response","62","2.0.0","53623","p9qj0myo8ft","ono","turtle","22","female","yes","no","10","1.5","null","stimuli/sounds/bleep.wav","null","","","","","","",""
"","","","","","html-keyboard-response","63","2.0.0","54397","p9qj0myo8ft","ono","turtle","22","female","yes","no","10","1.5","672","<div style=""font-size:30px;"">Press space to start the trial</div>"," ","","","","","","",""
"","","","","","html-keyboard-response","64","2.0.0","54649","p9qj0myo8ft","ono","turtle","22","female","yes","no","10","1.5","null","<div style=""font-size:60px;"">+</div>","null","","","","","","",""
"","","","","","audio-keyboard-response","65","2.0.0","55250","p9qj0myo8ft","ono","turtle","22","female","yes","no","10","1.5","null","stimuli/sounds/drop_sound_B.wav","null","","","","","","",""
"","","","","","html-keyboard-response","66","2.0.0","56252","p9qj0myo8ft","ono","turtle","22","female","yes","no","10","1.5","null","","null","","","","","","",""
"","","","","","image-keyboard-response","67","2.0.0","56697","p9qj0myo8ft","ono","turtle","22","female","yes","no","10","1.5","444","stimuli/pictures/drop_multi_1.jpg","1","1","","true","yes","sound","stimuli/sounds/drop_sound_B.wav",""
"","","","","","audio-keyboard-response","68","2.0.0","57700","p9qj0myo8ft","ono","turtle","22","female","yes","no","10","1.5","null","stimuli/sounds/bleep.wav","null","","","","","","",""
"","","","","","html-keyboard-response","69","2.0.0","58559","p9qj0myo8ft","ono","turtle","22","female","yes","no","10","1.5","757","<div style=""font-size:30px;"">Press space to start the trial</div>"," ","","","","","","",""
"","","","","","html-keyboard-response","70","2.0.0","58811","p9qj0myo8ft","ono","turtle","22","female","yes","no","10","1.5","null","<div style=""font-size:60px;"">+</div>","null","","","","","","",""
"","","","","","audio-keyboard-response","71","2.0.0","59418","p9qj0myo8ft","ono","turtle","22","female","yes","no","10","1.5","null","stimuli/sounds/cough_label_B.wav","null","","","","","","",""
"","","","","","html-keyboard-response","72","2.0.0","60420","p9qj0myo8ft","ono","turtle","22","female","yes","no","10","1.5","null","","null","","","","","","",""
"","","","","","image-keyboard-response","73","2.0.0","61023","p9qj0myo8ft","ono","turtle","22","female","yes","no","10","1.5","602","stimuli/pictures/cough_wom_2.jpg","1","1","","true","yes","sound","stimuli/sounds/cough_label_B.wav",""
"","","","","","audio-keyboard-response","74","2.0.0","62026","p9qj0myo8ft","ono","turtle","22","female","yes","no","10","1.5","null","stimuli/sounds/bleep.wav","null","","","","","","",""
"","","","","","html-keyboard-response","75","2.0.0","62951","p9qj0myo8ft","ono","turtle","22","female","yes","no","10","1.5","823","<div style=""font-size:30px;"">Press space to start the trial</div>"," ","","","","","","",""
"","","","","","html-keyboard-response","76","2.0.0","63203","p9qj0myo8ft","ono","turtle","22","female","yes","no","10","1.5","null","<div style=""font-size:60px;"">+</div>","null","","","","","","",""
"","","","","","audio-keyboard-response","77","2.0.0","63812","p9qj0myo8ft","ono","turtle","22","female","yes","no","10","1.5","null","stimuli/sounds/hiccup_label_B.wav","null","","","","","","",""
"","","","","","html-keyboard-response","78","2.0.0","64814","p9qj0myo8ft","ono","turtle","22","female","yes","no","10","1.5","null","","null","","","","","","",""
"","","","","","image-keyboard-response","79","2.0.0","65298","p9qj0myo8ft","ono","turtle","22","female","yes","no","10","1.5","483","stimuli/pictures/hiccup_wom_2.jpg","1","1","","true","yes","sound","stimuli/sounds/hiccup_label_B.wav",""
"","","","","","audio-keyboard-response","80","2.0.0","66301","p9qj0myo8ft","ono","turtle","22","female","yes","no","10","1.5","null","stimuli/sounds/bleep.wav","null","","","","","","",""
"","","","","","html-keyboard-response","81","2.0.0","67157","p9qj0myo8ft","ono","turtle","22","female","yes","no","10","1.5","755","<div style=""font-size:30px;"">Press space to start the trial</div>"," ","","","","","","",""
"","","","","","html-keyboard-response","82","2.0.0","67408","p9qj0myo8ft","ono","turtle","22","female","yes","no","10","1.5","null","<div style=""font-size:60px;"">+</div>","null","","","","","","",""
"","","","","","audio-keyboard-response","83","2.0.0","68009","p9qj0myo8ft","ono","turtle","22","female","yes","no","10","1.5","null","stimuli/sounds/motor_sound_A.wav","null","","","","","","",""
"","","","","","html-keyboard-response","84","2.0.0","69011","p9qj0myo8ft","ono","turtle","22","female","yes","no","10","1.5","null","","null","","","","","","",""
"","","","","","image-keyboard-response","85","2.0.0","69498","p9qj0myo8ft","ono","turtle","22","female","yes","no","10","1.5","486","stimuli/pictures/motor_harley_1.jpg","1","1","","true","no","sound","stimuli/sounds/motor_sound_A.wav",""
"","","","","","audio-keyboard-response","86","2.0.0","70501","p9qj0myo8ft","ono","turtle","22","female","yes","no","10","1.5","null","stimuli/sounds/bleep.wav","null","","","","","","",""
"","","","","","html-keyboard-response","87","2.0.0","71880","p9qj0myo8ft","ono","turtle","22","female","yes","no","10","1.5","1278","<div style=""font-size:30px;"">Press space to start the trial</div>"," ","","","","","","",""
"","","","","","html-keyboard-response","88","2.0.0","72133","p9qj0myo8ft","ono","turtle","22","female","yes","no","10","1.5","null","<div style=""font-size:60px;"">+</div>","null","","","","","","",""
"","","","","","audio-keyboard-response","89","2.0.0","72735","p9qj0myo8ft","ono","turtle","22","female","yes","no","10","1.5","null","stimuli/sounds/dog_sound_A.wav","null","","","","","","",""
"","","","","","html-keyboard-response","90","2.0.0","73736","p9qj0myo8ft","ono","turtle","22","female","yes","no","10","1.5","null","","null","","","","","","",""
"","","","","","image-keyboard-response","91","2.0.0","74318","p9qj0myo8ft","ono","turtle","22","female","yes","no","10","1.5","580","stimuli/pictures/hiccup_wom_1.jpg","0","0","","true","no","sound","stimuli/sounds/dog_sound_A.wav",""
"","","","","","audio-keyboard-response","92","2.0.0","75319","p9qj0myo8ft","ono","turtle","22","female","yes","no","10","1.5","null","stimuli/sounds/bleep.wav","null","","","","","","",""
"","","","","","html-keyboard-response","93","2.0.0","76159","p9qj0myo8ft","ono","turtle","22","female","yes","no","10","1.5","738","<div style=""font-size:30px;"">Press space to start the trial</div>"," ","","","","","","",""
"","","","","","html-keyboard-response","94","2.0.0","76410","p9qj0myo8ft","ono","turtle","22","female","yes","no","10","1.5","null","<div style=""font-size:60px;"">+</div>","null","","","","","","",""
"","","","","","audio-keyboard-response","95","2.0.0","77013","p9qj0myo8ft","ono","turtle","22","female","yes","no","10","1.5","null","stimuli/sounds/dog_label_B.wav","null","","","","","","",""
"","","","","","html-keyboard-response","96","2.0.0","78015","p9qj0myo8ft","ono","turtle","22","female","yes","no","10","1.5","null","","null","","","","","","",""
"","","","","","image-keyboard-response","97","2.0.0","78568","p9qj0myo8ft","ono","turtle","22","female","yes","no","10","1.5","552","stimuli/pictures/cough_wom_2.jpg","0","0","","true","no","sound","stimuli/sounds/dog_label_B.wav",""
"","","","","","audio-keyboard-response","98","2.0.0","79570","p9qj0myo8ft","ono","turtle","22","female","yes","no","10","1.5","null","stimuli/sounds/bleep.wav","null","","","","","","",""
"","","","","","html-keyboard-response","99","2.0.0","81005","p9qj0myo8ft","ono","turtle","22","female","yes","no","10","1.5","1334","<div style=""font-size:30px;"">Press space to start the trial</div>"," ","","","","","","",""
"","","","","","html-keyboard-response","100","2.0.0","81257","p9qj0myo8ft","ono","turtle","22","female","yes","no","10","1.5","null","<div style=""font-size:60px;"">+</div>","null","","","","","","",""
"","","","","","audio-keyboard-response","101","2.0.0","81860","p9qj0myo8ft","ono","turtle","22","female","yes","no","10","1.5","null","stimuli/sounds/motor_sound_B.wav","null","","","","","","",""
"","","","","","html-keyboard-response","102","2.0.0","82862","p9qj0myo8ft","ono","turtle","22","female","yes","no","10","1.5","null","","null","","","","","","",""
"","","","","","image-keyboard-response","103","2.0.0","83509","p9qj0myo8ft","ono","turtle","22","female","yes","no","10","1.5","646","stimuli/pictures/motor_dirt_1.jpg","1","1","","true","no","sound","stimuli/sounds/motor_sound_B.wav",""
"","","","","","audio-keyboard-response","104","2.0.0","84512","p9qj0myo8ft","ono","turtle","22","female","yes","no","10","1.5","null","stimuli/sounds/bleep.wav","null","","","","","","",""
"","","","","","html-keyboard-response","105","2.0.0","85595","p9qj0myo8ft","ono","turtle","22","female","yes","no","10","1.5","981","<div style=""font-size:30px;"">Press space to start the trial</div>"," ","","","","","","",""
"","","","","","html-keyboard-response","106","2.0.0","85847","p9qj0myo8ft","ono","turtle","22","female","yes","no","10","1.5","null","<div style=""font-size:60px;"">+</div>","null","","","","","","",""
"","","","","","audio-keyboard-response","107","2.0.0","86521","p9qj0myo8ft","ono","turtle","22","female","yes","no","10","1.5","null","stimuli/sounds/cough_sound_B.wav","null","","","","","","",""
"","","","","","html-keyboard-response","108","2.0.0","87523","p9qj0myo8ft","ono","turtle","22","female","yes","no","10","1.5","null","","null","","","","","","",""
"","","","","","image-keyboard-response","109","2.0.0","87991","p9qj0myo8ft","ono","turtle","22","female","yes","no","10","1.5","466","stimuli/pictures/hiccup_wom_2.jpg","1","0","","false","no","sound","stimuli/sounds/cough_sound_B.wav",""
"","","","","","audio-keyboard-response","110","2.0.0","88993","p9qj0myo8ft","ono","turtle","22","female","yes","no","10","1.5","null","stimuli/sounds/buzz.wav","null","","","","","","",""
"","","","","","html-keyboard-response","111","2.0.0","91300","p9qj0myo8ft","ono","turtle","22","female","yes","no","10","1.5","2205","<div style=""font-size:30px;"">Press space to start the trial</div>"," ","","","","","","",""
"","","","","","html-keyboard-response","112","2.0.0","91551","p9qj0myo8ft","ono","turtle","22","female","yes","no","10","1.5","null","<div style=""font-size:60px;"">+</div>","null","","","","","","",""
"","","","","","audio-keyboard-response","113","2.0.0","92152","p9qj0myo8ft","ono","turtle","22","female","yes","no","10","1.5","null","stimuli/sounds/dog_label_A.wav","null","","","","","","",""
"","","","","","html-keyboard-response","114","2.0.0","93154","p9qj0myo8ft","ono","turtle","22","female","yes","no","10","1.5","null","","null","","","","","","",""
"","","","","","image-keyboard-response","115","2.0.0","93897","p9qj0myo8ft","ono","turtle","22","female","yes","no","10","1.5","742","stimuli/pictures/dog_york_2.jpg","1","1","","true","yes","sound","stimuli/sounds/dog_label_A.wav",""
"","","","","","audio-keyboard-response","116","2.0.0","94900","p9qj0myo8ft","ono","turtle","22","female","yes","no","10","1.5","null","stimuli/sounds/bleep.wav","null","","","","","","",""
"","","","","","html-keyboard-response","117","2.0.0","95841","p9qj0myo8ft","ono","turtle","22","female","yes","no","10","1.5","840","<div style=""font-size:30px;"">Press space to start the trial</div>"," ","","","","","","",""
"","","","","","html-keyboard-response","118","2.0.0","96093","p9qj0myo8ft","ono","turtle","22","female","yes","no","10","1.5","null","<div style=""font-size:60px;"">+</div>","null","","","","","","",""
"","","","","","audio-keyboard-response","119","2.0.0","96634","p9qj0myo8ft","ono","turtle","22","female","yes","no","10","1.5","null","stimuli/sounds/hiccup_label_A.wav","null","","","","","","",""
"","","","","","html-keyboard-response","120","2.0.0","97636","p9qj0myo8ft","ono","turtle","22","female","yes","no","10","1.5","null","","null","","","","","","",""
"","","","","","image-keyboard-response","121","2.0.0","98364","p9qj0myo8ft","ono","turtle","22","female","yes","no","10","1.5","726","stimuli/pictures/cough_wom_2.jpg","0","0","","true","no","sound","stimuli/sounds/hiccup_label_A.wav",""
"","","","","","audio-keyboard-response","122","2.0.0","99366","p9qj0myo8ft","ono","turtle","22","female","yes","no","10","1.5","null","stimuli/sounds/bleep.wav","null","","","","","","",""
"","","","","","html-keyboard-response","123","2.0.0","99943","p9qj0myo8ft","ono","turtle","22","female","yes","no","10","1.5","475","<div style=""font-size:30px;"">Press space to start the trial</div>"," ","","","","","","",""
"","","","","","html-keyboard-response","124","2.0.0","100194","p9qj0myo8ft","ono","turtle","22","female","yes","no","10","1.5","null","<div style=""font-size:60px;"">+</div>","null","","","","","","",""
"","","","","","audio-keyboard-response","125","2.0.0","100860","p9qj0myo8ft","ono","turtle","22","female","yes","no","10","1.5","null","stimuli/sounds/cough_sound_A.wav","null","","","","","","",""
"","","","","","html-keyboard-response","126","2.0.0","101862","p9qj0myo8ft","ono","turtle","22","female","yes","no","10","1.5","null","","null","","","","","","",""
"","","","","","image-keyboard-response","127","2.0.0","102576","p9qj0myo8ft","ono","turtle","22","female","yes","no","10","1.5","712","stimuli/pictures/cough_wom_2.jpg","0","1","","false","yes","sound","stimuli/sounds/cough_sound_A.wav",""
"","","","","","audio-keyboard-response","128","2.0.0","103578","p9qj0myo8ft","ono","turtle","22","female","yes","no","10","1.5","null","stimuli/sounds/buzz.wav","null","","","","","","",""
"","","","","","html-keyboard-response","129","2.0.0","104027","p9qj0myo8ft","ono","turtle","22","female","yes","no","10","1.5","348","<div style=""font-size:30px;"">Press space to start the trial</div>"," ","","","","","","",""
"","","","","","html-keyboard-response","130","2.0.0","104279","p9qj0myo8ft","ono","turtle","22","female","yes","no","10","1.5","null","<div style=""font-size:60px;"">+</div>","null","","","","","","",""
"","","","","","audio-keyboard-response","131","2.0.0","104882","p9qj0myo8ft","ono","turtle","22","female","yes","no","10","1.5","null","stimuli/sounds/motor_sound_B.wav","null","","","","","","",""
"","","","","","html-keyboard-response","132","2.0.0","105885","p9qj0myo8ft","ono","turtle","22","female","yes","no","10","1.5","null","","null","","","","","","",""
"","","","","","image-keyboard-response","133","2.0.0","106605","p9qj0myo8ft","ono","turtle","22","female","yes","no","10","1.5","719","stimuli/pictures/cough_wom_2.jpg","0","0","","true","no","sound","stimuli/sounds/motor_sound_B.wav",""
"","","","","","audio-keyboard-response","134","2.0.0","107608","p9qj0myo8ft","ono","turtle","22","female","yes","no","10","1.5","null","stimuli/sounds/bleep.wav","null","","","","","","",""
"","","","","","html-keyboard-response","135","2.0.0","108180","p9qj0myo8ft","ono","turtle","22","female","yes","no","10","1.5","471","<div style=""font-size:30px;"">Press space to start the trial</div>"," ","","","","","","",""
"","","","","","html-keyboard-response","136","2.0.0","108433","p9qj0myo8ft","ono","turtle","22","female","yes","no","10","1.5","null","<div style=""font-size:60px;"">+</div>","null","","","","","","",""
"","","","","","audio-keyboard-response","137","2.0.0","109062","p9qj0myo8ft","ono","turtle","22","female","yes","no","10","1.5","null","stimuli/sounds/cough_label_A.wav","null","","","","","","",""
"","","","","","html-keyboard-response","138","2.0.0","110064","p9qj0myo8ft","ono","turtle","22","female","yes","no","10","1.5","null","","null","","","","","","",""
"","","","","","image-keyboard-response","139","2.0.0","110566","p9qj0myo8ft","ono","turtle","22","female","yes","no","10","1.5","501","stimuli/pictures/motor_dirt_2.jpg","0","0","","true","no","sound","stimuli/sounds/cough_label_A.wav",""
"","","","","","audio-keyboard-response","140","2.0.0","111568","p9qj0myo8ft","ono","turtle","22","female","yes","no","10","1.5","null","stimuli/sounds/bleep.wav","null","","","","","","",""
"","","","","","html-keyboard-response","141","2.0.0","112839","p9qj0myo8ft","ono","turtle","22","female","yes","no","10","1.5","1169","<div style=""font-size:30px;"">Press space to start the trial</div>"," ","","","","","","",""
"","","","","","html-keyboard-response","142","2.0.0","113091","p9qj0myo8ft","ono","turtle","22","female","yes","no","10","1.5","null","<div style=""font-size:60px;"">+</div>","null","","","","","","",""
"","","","","","audio-keyboard-response","143","2.0.0","113723","p9qj0myo8ft","ono","turtle","22","female","yes","no","10","1.5","null","stimuli/sounds/cough_label_A.wav","null","","","","","","",""
"","","","","","html-keyboard-response","144","2.0.0","114726","p9qj0myo8ft","ono","turtle","22","female","yes","no","10","1.5","null","","null","","","","","","",""
"","","","","","image-keyboard-response","145","2.0.0","115296","p9qj0myo8ft","ono","turtle","22","female","yes","no","10","1.5","570","stimuli/pictures/cough_wom_2.jpg","1","1","","true","yes","sound","stimuli/sounds/cough_label_A.wav",""
"","","","","","audio-keyboard-response","146","2.0.0","116299","p9qj0myo8ft","ono","turtle","22","female","yes","no","10","1.5","null","stimuli/sounds/bleep.wav","null","","","","","","",""
"","","","","","html-keyboard-response","147","2.0.0","117633","p9qj0myo8ft","ono","turtle","22","female","yes","no","10","1.5","1233","<p>You have completed a block. Press R when you are ready to continue</p>","r","","","","","","",""
"","","","","","html-keyboard-response","148","2.0.0","118755","p9qj0myo8ft","ono","turtle","22","female","yes","no","10","1.5","1121","<div style=""font-size:30px;"">Press space to start the trial</div>"," ","","","","","","",""
"","","","","","html-keyboard-response","149","2.0.0","119007","p9qj0myo8ft","ono","turtle","22","female","yes","no","10","1.5","null","<div style=""font-size:60px;"">+</div>","null","","","","","","",""
"","","","","","audio-keyboard-response","150","2.0.0","119610","p9qj0myo8ft","ono","turtle","22","female","yes","no","10","1.5","null","stimuli/sounds/dog_sound_B.wav","null","","","","","","",""
"","","","","","html-keyboard-response","151","2.0.0","120612","p9qj0myo8ft","ono","turtle","22","female","yes","no","10","1.5","null","","null","","","","","","",""
"","","","","","image-keyboard-response","152","2.0.0","121084","p9qj0myo8ft","ono","turtle","22","female","yes","no","10","1.5","471","stimuli/pictures/motor_dirt_2.jpg","0","0","","true","no","sound","stimuli/sounds/dog_sound_B.wav",""
"","","","","","audio-keyboard-response","153","2.0.0","122087","p9qj0myo8ft","ono","turtle","22","female","yes","no","10","1.5","null","stimuli/sounds/bleep.wav","null","","","","","","",""
"","","","","","html-keyboard-response","154","2.0.0","122764","p9qj0myo8ft","ono","turtle","22","female","yes","no","10","1.5","575","<div style=""font-size:30px;"">Press space to start the trial</div>"," ","","","","","","",""
"","","","","","html-keyboard-response","155","2.0.0","123016","p9qj0myo8ft","ono","turtle","22","female","yes","no","10","1.5","null","<div style=""font-size:60px;"">+</div>","null","","","","","","",""
"","","","","","audio-keyboard-response","156","2.0.0","123598","p9qj0myo8ft","ono","turtle","22","female","yes","no","10","1.5","null","stimuli/sounds/drop_sound_A.wav","null","","","","","","",""
"","","","","","html-keyboard-response","157","2.0.0","124599","p9qj0myo8ft","ono","turtle","22","female","yes","no","10","1.5","null","","null","","","","","","",""
"","","","","","image-keyboard-response","158","2.0.0","125089","p9qj0myo8ft","ono","turtle","22","female","yes","no","10","1.5","488","stimuli/pictures/drop_single_2.jpg","1","1","","true","yes","sound","stimuli/sounds/drop_sound_A.wav",""
"","","","","","audio-keyboard-response","159","2.0.0","126091","p9qj0myo8ft","ono","turtle","22","female","yes","no","10","1.5","null","stimuli/sounds/bleep.wav","null","","","","","","",""
"","","","","","html-keyboard-response","160","2.0.0","126752","p9qj0myo8ft","ono","turtle","22","female","yes","no","10","1.5","559","<div style=""font-size:30px;"">Press space to start the trial</div>"," ","","","","","","",""
"","","","","","html-keyboard-response","161","2.0.0","127003","p9qj0myo8ft","ono","turtle","22","female","yes","no","10","1.5","null","<div style=""font-size:60px;"">+</div>","null","","","","","","",""
"","","","","","audio-keyboard-response","162","2.0.0","127603","p9qj0myo8ft","ono","turtle","22","female","yes","no","10","1.5","null","stimuli/sounds/motor_label_B.wav","null","","","","","","",""
"","","","","","html-keyboard-response","163","2.0.0","128605","p9qj0myo8ft","ono","turtle","22","female","yes","no","10","1.5","null","","null","","","","","","",""
"","","","","","image-keyboard-response","164","2.0.0","129275","p9qj0myo8ft","ono","turtle","22","female","yes","no","10","1.5","669","stimuli/pictures/hiccup_wom_2.jpg","0","0","","true","no","sound","stimuli/sounds/motor_label_B.wav",""
"","","","","","audio-keyboard-response","165","2.0.0","130277","p9qj0myo8ft","ono","turtle","22","female","yes","no","10","1.5","null","stimuli/sounds/bleep.wav","null","","","","","","",""
"","","","","","html-keyboard-response","166","2.0.0","130760","p9qj0myo8ft","ono","turtle","22","female","yes","no","10","1.5","381","<div style=""font-size:30px;"">Press space to start the trial</div>"," ","","","","","","",""
"","","","","","html-keyboard-response","167","2.0.0","131011","p9qj0myo8ft","ono","turtle","22","female","yes","no","10","1.5","null","<div style=""font-size:60px;"">+</div>","null","","","","","","",""
"","","","","","audio-keyboard-response","168","2.0.0","131620","p9qj0myo8ft","ono","turtle","22","female","yes","no","10","1.5","null","stimuli/sounds/drop_label_B.wav","null","","","","","","",""
"","","","","","html-keyboard-response","169","2.0.0","132622","p9qj0myo8ft","ono","turtle","22","female","yes","no","10","1.5","null","","null","","","","","","",""
"","","","","","image-keyboard-response","170","2.0.0","133043","p9qj0myo8ft","ono","turtle","22","female","yes","no","10","1.5","419","stimuli/pictures/drop_multi_2.jpg","1","1","","true","yes","sound","stimuli/sounds/drop_label_B.wav",""
"","","","","","audio-keyboard-response","171","2.0.0","134045","p9qj0myo8ft","ono","turtle","22","female","yes","no","10","1.5","null","stimuli/sounds/bleep.wav","null","","","","","","",""
"","","","","","html-keyboard-response","172","2.0.0","134580","p9qj0myo8ft","ono","turtle","22","female","yes","no","10","1.5","433","<div style=""font-size:30px;"">Press space to start the trial</div>"," ","","","","","","",""
"","","","","","html-keyboard-response","173","2.0.0","134832","p9qj0myo8ft","ono","turtle","22","female","yes","no","10","1.5","null","<div style=""font-size:60px;"">+</div>","null","","","","","","",""
"","","","","","audio-keyboard-response","174","2.0.0","135509","p9qj0myo8ft","ono","turtle","22","female","yes","no","10","1.5","null","stimuli/sounds/cough_sound_B.wav","null","","","","","","",""
"","","","","","html-keyboard-response","175","2.0.0","136511","p9qj0myo8ft","ono","turtle","22","female","yes","no","10","1.5","null","","null","","","","","","",""
"","","","","","image-keyboard-response","176","2.0.0","137005","p9qj0myo8ft","ono","turtle","22","female","yes","no","10","1.5","493","stimuli/pictures/cough_wom_2.jpg","1","1","","true","no","sound","stimuli/sounds/cough_sound_B.wav",""
"","","","","","audio-keyboard-response","177","2.0.0","138008","p9qj0myo8ft","ono","turtle","22","female","yes","no","10","1.5","null","stimuli/sounds/bleep.wav","null","","","","","","",""
"","","","","","html-keyboard-response","178","2.0.0","138794","p9qj0myo8ft","ono","turtle","22","female","yes","no","10","1.5","684","<div style=""font-size:30px;"">Press space to start the trial</div>"," ","","","","","","",""
"","","","","","html-keyboard-response","179","2.0.0","139045","p9qj0myo8ft","ono","turtle","22","female","yes","no","10","1.5","null","<div style=""font-size:60px;"">+</div>","null","","","","","","",""
"","","","","","audio-keyboard-response","180","2.0.0","139648","p9qj0myo8ft","ono","turtle","22","female","yes","no","10","1.5","null","stimuli/sounds/dog_sound_A.wav","null","","","","","","",""
"","","","","","html-keyboard-response","181","2.0.0","140650","p9qj0myo8ft","ono","turtle","22","female","yes","no","10","1.5","null","","null","","","","","","",""
"","","","","","image-keyboard-response","182","2.0.0","141147","p9qj0myo8ft","ono","turtle","22","female","yes","no","10","1.5","496","stimuli/pictures/hiccup_man_1.jpg","0","0","","true","no","sound","stimuli/sounds/dog_sound_A.wav",""
"","","","","","audio-keyboard-response","183","2.0.0","142150","p9qj0myo8ft","ono","turtle","22","female","yes","no","10","1.5","null","stimuli/sounds/bleep.wav","null","","","","","","",""
"","","","","","html-keyboard-response","184","2.0.0","142803","p9qj0myo8ft","ono","turtle","22","female","yes","no","10","1.5","551","<div style=""font-size:30px;"">Press space to start the trial</div>"," ","","","","","","",""
"","","","","","html-keyboard-response","185","2.0.0","143055","p9qj0myo8ft","ono","turtle","22","female","yes","no","10","1.5","null","<div style=""font-size:60px;"">+</div>","null","","","","","","",""
"","","","","","audio-keyboard-response","186","2.0.0","143729","p9qj0myo8ft","ono","turtle","22","female","yes","no","10","1.5","null","stimuli/sounds/cough_sound_B.wav","null","","","","","","",""
"","","","","","html-keyboard-response","187","2.0.0","144731","p9qj0myo8ft","ono","turtle","22","female","yes","no","10","1.5","null","","null","","","","","","",""
"","","","","","image-keyboard-response","188","2.0.0","145266","p9qj0myo8ft","ono","turtle","22","female","yes","no","10","1.5","534","stimuli/pictures/hiccup_man_1.jpg","0","0","","true","no","sound","stimuli/sounds/cough_sound_B.wav",""
"","","","","","audio-keyboard-response","189","2.0.0","146269","p9qj0myo8ft","ono","turtle","22","female","yes","no","10","1.5","null","stimuli/sounds/bleep.wav","null","","","","","","",""
"","","","","","html-keyboard-response","190","2.0.0","146784","p9qj0myo8ft","ono","turtle","22","female","yes","no","10","1.5","413","<div style=""font-size:30px;"">Press space to start the trial</div>"," ","","","","","","",""
"","","","","","html-keyboard-response","191","2.0.0","147035","p9qj0myo8ft","ono","turtle","22","female","yes","no","10","1.5","null","<div style=""font-size:60px;"">+</div>","null","","","","","","",""
"","","","","","audio-keyboard-response","192","2.0.0","147636","p9qj0myo8ft","ono","turtle","22","female","yes","no","10","1.5","null","stimuli/sounds/dog_sound_A.wav","null","","","","","","",""
"","","","","","html-keyboard-response","193","2.0.0","148638","p9qj0myo8ft","ono","turtle","22","female","yes","no","10","1.5","null","","null","","","","","","",""
"","","","","","image-keyboard-response","194","2.0.0","149344","p9qj0myo8ft","ono","turtle","22","female","yes","no","10","1.5","705","stimuli/pictures/dog_york_1.jpg","1","1","","true","no","sound","stimuli/sounds/dog_sound_A.wav",""
"","","","","","audio-keyboard-response","195","2.0.0","150347","p9qj0myo8ft","ono","turtle","22","female","yes","no","10","1.5","null","stimuli/sounds/bleep.wav","null","","","","","","",""
"","","","","","html-keyboard-response","196","2.0.0","150761","p9qj0myo8ft","ono","turtle","22","female","yes","no","10","1.5","313","<div style=""font-size:30px;"">Press space to start the trial</div>"," ","","","","","","",""
"","","","","","html-keyboard-response","197","2.0.0","151014","p9qj0myo8ft","ono","turtle","22","female","yes","no","10","1.5","null","<div style=""font-size:60px;"">+</div>","null","","","","","","",""
"","","","","","audio-keyboard-response","198","2.0.0","151612","p9qj0myo8ft","ono","turtle","22","female","yes","no","10","1.5","null","stimuli/sounds/dog_sound_B.wav","null","","","","","","",""
"","","","","","html-keyboard-response","199","2.0.0","152615","p9qj0myo8ft","ono","turtle","22","female","yes","no","10","1.5","null","","null","","","","","","",""
"","","","","","image-keyboard-response","200","2.0.0","153201","p9qj0myo8ft","ono","turtle","22","female","yes","no","10","1.5","585","stimuli/pictures/dog_york_2.jpg","1","1","","true","yes","sound","stimuli/sounds/dog_sound_B.wav",""
"","","","","","audio-keyboard-response","201","2.0.0","154204","p9qj0myo8ft","ono","turtle","22","female","yes","no","10","1.5","null","stimuli/sounds/bleep.wav","null","","","","","","",""
"","","","","","html-keyboard-response","202","2.0.0","154905","p9qj0myo8ft","ono","turtle","22","female","yes","no","10","1.5","599","<div style=""font-size:30px;"">Press space to start the trial</div>"," ","","","","","","",""
"","","","","","html-keyboard-response","203","2.0.0","155157","p9qj0myo8ft","ono","turtle","22","female","yes","no","10","1.5","null","<div style=""font-size:60px;"">+</div>","null","","","","","","",""
"","","","","","audio-keyboard-response","204","2.0.0","155757","p9qj0myo8ft","ono","turtle","22","female","yes","no","10","1.5","null","stimuli/sounds/hiccup_sound_A.wav","null","","","","","","",""
"","","","","","html-keyboard-response","205","2.0.0","156759","p9qj0myo8ft","ono","turtle","22","female","yes","no","10","1.5","null","","null","","","","","","",""
"","","","","","image-keyboard-response","206","2.0.0","157825","p9qj0myo8ft","ono","turtle","22","female","yes","no","10","1.5","1065","stimuli/pictures/hiccup_man_1.jpg","1","1","","true","no","sound","stimuli/sounds/hiccup_sound_A.wav",""
"","","","","","audio-keyboard-response","207","2.0.0","158827","p9qj0myo8ft","ono","turtle","22","female","yes","no","10","1.5","null","stimuli/sounds/bleep.wav","null","","","","","","",""
"","","","","","html-keyboard-response","208","2.0.0","159355","p9qj0myo8ft","ono","turtle","22","female","yes","no","10","1.5","426","<div style=""font-size:30px;"">Press space to start the trial</div>"," ","","","","","","",""
"","","","","","html-keyboard-response","209","2.0.0","159608","p9qj0myo8ft","ono","turtle","22","female","yes","no","10","1.5","null","<div style=""font-size:60px;"">+</div>","null","","","","","","",""
"","","","","","audio-keyboard-response","210","2.0.0","160273","p9qj0myo8ft","ono","turtle","22","female","yes","no","10","1.5","null","stimuli/sounds/cough_sound_A.wav","null","","","","","","",""
"","","","","","html-keyboard-response","211","2.0.0","161275","p9qj0myo8ft","ono","turtle","22","female","yes","no","10","1.5","null","","null","","","","","","",""
"","","","","","image-keyboard-response","212","2.0.0","161851","p9qj0myo8ft","ono","turtle","22","female","yes","no","10","1.5","574","stimuli/pictures/dog_york_1.jpg","0","0","","true","no","sound","stimuli/sounds/cough_sound_A.wav",""
"","","","","","audio-keyboard-response","213","2.0.0","162852","p9qj0myo8ft","ono","turtle","22","female","yes","no","10","1.5","null","stimuli/sounds/bleep.wav","null","","","","","","",""
"","","","","","html-keyboard-response","214","2.0.0","163557","p9qj0myo8ft","ono","turtle","22","female","yes","no","10","1.5","603","<div style=""font-size:30px;"">Press space to start the trial</div>"," ","","","","","","",""
"","","","","","html-keyboard-response","215","2.0.0","163809","p9qj0myo8ft","ono","turtle","22","female","yes","no","10","1.5","null","<div style=""font-size:60px;"">+</div>","null","","","","","","",""
"","","","","","audio-keyboard-response","216","2.0.0","164412","p9qj0myo8ft","ono","turtle","22","female","yes","no","10","1.5","null","stimuli/sounds/hiccup_sound_B.wav","null","","","","","","",""
"","","","","","html-keyboard-response","217","2.0.0","165413","p9qj0myo8ft","ono","turtle","22","female","yes","no","10","1.5","null","","null","","","","","","",""
"","","","","","image-keyboard-response","218","2.0.0","166226","p9qj0myo8ft","ono","turtle","22","female","yes","no","10","1.5","811","stimuli/pictures/drop_multi_1.jpg","0","0","","true","no","sound","stimuli/sounds/hiccup_sound_B.wav",""
"","","","","","audio-keyboard-response","219","2.0.0","167228","p9qj0myo8ft","ono","turtle","22","female","yes","no","10","1.5","null","stimuli/sounds/bleep.wav","null","","","","","","",""
"","","","","","html-keyboard-response","220","2.0.0","167880","p9qj0myo8ft","ono","turtle","22","female","yes","no","10","1.5","550","<div style=""font-size:30px;"">Press space to start the trial</div>"," ","","","","","","",""
"","","","","","html-keyboard-response","221","2.0.0","168131","p9qj0myo8ft","ono","turtle","22","female","yes","no","10","1.5","null","<div style=""font-size:60px;"">+</div>","null","","","","","","",""
"","","","","","audio-keyboard-response","222","2.0.0","168737","p9qj0myo8ft","ono","turtle","22","female","yes","no","10","1.5","null","stimuli/sounds/cough_label_B.wav","null","","","","","","",""
"","","","","","html-keyboard-response","223","2.0.0","169739","p9qj0myo8ft","ono","turtle","22","female","yes","no","10","1.5","null","","null","","","","","","",""
"","","","","","image-keyboard-response","224","2.0.0","170243","p9qj0myo8ft","ono","turtle","22","female","yes","no","10","1.5","502","stimuli/pictures/drop_single_2.jpg","0","0","","true","no","sound","stimuli/sounds/cough_label_B.wav",""
"","","","","","audio-keyboard-response","225","2.0.0","171245","p9qj0myo8ft","ono","turtle","22","female","yes","no","10","1.5","null","stimuli/sounds/bleep.wav","null","","","","","","",""
"","","","","","html-keyboard-response","226","2.0.0","171997","p9qj0myo8ft","ono","turtle","22","female","yes","no","10","1.5","650","<div style=""font-size:30px;"">Press space to start the trial</div>"," ","","","","","","",""
"","","","","","html-keyboard-response","227","2.0.0","172249","p9qj0myo8ft","ono","turtle","22","female","yes","no","10","1.5","null","<div style=""font-size:60px;"">+</div>","null","","","","","","",""
"","","","","","audio-keyboard-response","228","2.0.0","172853","p9qj0myo8ft","ono","turtle","22","female","yes","no","10","1.5","null","stimuli/sounds/motor_sound_B.wav","null","","","","","","",""
"","","","","","html-keyboard-response","229","2.0.0","173855","p9qj0myo8ft","ono","turtle","22","female","yes","no","10","1.5","null","","null","","","","","","",""
"","","","","","image-keyboard-response","230","2.0.0","174314","p9qj0myo8ft","ono","turtle","22","female","yes","no","10","1.5","458","stimuli/pictures/cough_wom_1.jpg","0","0","","true","no","sound","stimuli/sounds/motor_sound_B.wav",""
"","","","","","audio-keyboard-response","231","2.0.0","175316","p9qj0myo8ft","ono","turtle","22","female","yes","no","10","1.5","null","stimuli/sounds/bleep.wav","null","","","","","","",""
"","","","","","html-keyboard-response","232","2.0.0","175772","p9qj0myo8ft","ono","turtle","22","female","yes","no","10","1.5","354","<div style=""font-size:30px;"">Press space to start the trial</div>"," ","","","","","","",""
"","","","","","html-keyboard-response","233","2.0.0","176023","p9qj0myo8ft","ono","turtle","22","female","yes","no","10","1.5","null","<div style=""font-size:60px;"">+</div>","null","","","","","","",""
"","","","","","audio-keyboard-response","234","2.0.0","176626","p9qj0myo8ft","ono","turtle","22","female","yes","no","10","1.5","null","stimuli/sounds/motor_label_A.wav","null","","","","","","",""
"","","","","","html-keyboard-response","235","2.0.0","177628","p9qj0myo8ft","ono","turtle","22","female","yes","no","10","1.5","null","","null","","","","","","",""
"","","","","","image-keyboard-response","236","2.0.0","178077","p9qj0myo8ft","ono","turtle","22","female","yes","no","10","1.5","447","stimuli/pictures/motor_harley_1.jpg","1","1","","true","yes","sound","stimuli/sounds/motor_label_A.wav",""
"","","","","","audio-keyboard-response","237","2.0.0","179079","p9qj0myo8ft","ono","turtle","22","female","yes","no","10","1.5","null","stimuli/sounds/bleep.wav","null","","","","","","",""
"","","","","","html-keyboard-response","238","2.0.0","179576","p9qj0myo8ft","ono","turtle","22","female","yes","no","10","1.5","395","<div style=""font-size:30px;"">Press space to start the trial</div>"," ","","","","","","",""
"","","","","","html-keyboard-response","239","2.0.0","179828","p9qj0myo8ft","ono","turtle","22","female","yes","no","10","1.5","null","<div style=""font-size:60px;"">+</div>","null","","","","","","",""
"","","","","","audio-keyboard-response","240","2.0.0","180428","p9qj0myo8ft","ono","turtle","22","female","yes","no","10","1.5","null","stimuli/sounds/motor_sound_B.wav","null","","","","","","",""
"","","","","","html-keyboard-response","241","2.0.0","181431","p9qj0myo8ft","ono","turtle","22","female","yes","no","10","1.5","null","","null","","","","","","",""
"","","","","","image-keyboard-response","242","2.0.0","181873","p9qj0myo8ft","ono","turtle","22","female","yes","no","10","1.5","440","stimuli/pictures/motor_harley_1.jpg","1","1","","true","yes","sound","stimuli/sounds/motor_sound_B.wav",""
"","","","","","audio-keyboard-response","243","2.0.0","182875","p9qj0myo8ft","ono","turtle","22","female","yes","no","10","1.5","null","stimuli/sounds/bleep.wav","null","","","","","","",""
"","","","","","html-keyboard-response","244","2.0.0","183574","p9qj0myo8ft","ono","turtle","22","female","yes","no","10","1.5","597","<div style=""font-size:30px;"">Press space to start the trial</div>"," ","","","","","","",""
"","","","","","html-keyboard-response","245","2.0.0","183827","p9qj0myo8ft","ono","turtle","22","female","yes","no","10","1.5","null","<div style=""font-size:60px;"">+</div>","null","","","","","","",""
"","","","","","audio-keyboard-response","246","2.0.0","184457","p9qj0myo8ft","ono","turtle","22","female","yes","no","10","1.5","null","stimuli/sounds/cough_label_A.wav","null","","","","","","",""
"","","","","","html-keyboard-response","247","2.0.0","185459","p9qj0myo8ft","ono","turtle","22","female","yes","no","10","1.5","null","","null","","","","","","",""
"","","","","","image-keyboard-response","248","2.0.0","186080","p9qj0myo8ft","ono","turtle","22","female","yes","no","10","1.5","620","stimuli/pictures/cough_man_1.jpg","1","1","","true","yes","sound","stimuli/sounds/cough_label_A.wav",""
"","","","","","audio-keyboard-response","249","2.0.0","187082","p9qj0myo8ft","ono","turtle","22","female","yes","no","10","1.5","null","stimuli/sounds/bleep.wav","null","","","","","","",""
"","","","","","html-keyboard-response","250","2.0.0","187481","p9qj0myo8ft","ono","turtle","22","female","yes","no","10","1.5","297","<div style=""font-size:30px;"">Press space to start the trial</div>"," ","","","","","","",""
"","","","","","html-keyboard-response","251","2.0.0","187734","p9qj0myo8ft","ono","turtle","22","female","yes","no","10","1.5","null","<div style=""font-size:60px;"">+</div>","null","","","","","","",""
"","","","","","audio-keyboard-response","252","2.0.0","188335","p9qj0myo8ft","ono","turtle","22","female","yes","no","10","1.5","null","stimuli/sounds/dog_label_B.wav","null","","","","","","",""
"","","","","","html-keyboard-response","253","2.0.0","189337","p9qj0myo8ft","ono","turtle","22","female","yes","no","10","1.5","null","","null","","","","","","",""
"","","","","","image-keyboard-response","254","2.0.0","189783","p9qj0myo8ft","ono","turtle","22","female","yes","no","10","1.5","445","stimuli/pictures/dog_rott_2.jpg","1","1","","true","yes","sound","stimuli/sounds/dog_label_B.wav",""
"","","","","","audio-keyboard-response","255","2.0.0","190785","p9qj0myo8ft","ono","turtle","22","female","yes","no","10","1.5","null","stimuli/sounds/bleep.wav","null","","","","","","",""
"","","","","","html-keyboard-response","256","2.0.0","191285","p9qj0myo8ft","ono","turtle","22","female","yes","no","10","1.5","398","<div style=""font-size:30px;"">Press space to start the trial</div>"," ","","","","","","",""
"","","","","","html-keyboard-response","257","2.0.0","191537","p9qj0myo8ft","ono","turtle","22","female","yes","no","10","1.5","null","<div style=""font-size:60px;"">+</div>","null","","","","","","",""
"","","","","","audio-keyboard-response","258","2.0.0","192137","p9qj0myo8ft","ono","turtle","22","female","yes","no","10","1.5","null","stimuli/sounds/drop_sound_B.wav","null","","","","","","",""
"","","","","","html-keyboard-response","259","2.0.0","193139","p9qj0myo8ft","ono","turtle","22","female","yes","no","10","1.5","null","","null","","","","","","",""
"","","","","","image-keyboard-response","260","2.0.0","193663","p9qj0myo8ft","ono","turtle","22","female","yes","no","10","1.5","523","stimuli/pictures/dog_york_1.jpg","0","0","","true","no","sound","stimuli/sounds/drop_sound_B.wav",""
"","","","","","audio-keyboard-response","261","2.0.0","194666","p9qj0myo8ft","ono","turtle","22","female","yes","no","10","1.5","null","stimuli/sounds/bleep.wav","null","","","","","","",""
"","","","","","html-keyboard-response","262","2.0.0","195357","p9qj0myo8ft","ono","turtle","22","female","yes","no","10","1.5","589","<div style=""font-size:30px;"">Press space to start the trial</div>"," ","","","","","","",""
"","","","","","html-keyboard-response","263","2.0.0","195609","p9qj0myo8ft","ono","turtle","22","female","yes","no","10","1.5","null","<div style=""font-size:60px;"">+</div>","null","","","","","","",""
"","","","","","audio-keyboard-response","264","2.0.0","196212","p9qj0myo8ft","ono","turtle","22","female","yes","no","10","1.5","null","stimuli/sounds/hiccup_sound_B.wav","null","","","","","","",""
"","","","","","html-keyboard-response","265","2.0.0","197214","p9qj0myo8ft","ono","turtle","22","female","yes","no","10","1.5","null","","null","","","","","","",""
"","","","","","image-keyboard-response","266","2.0.0","197755","p9qj0myo8ft","ono","turtle","22","female","yes","no","10","1.5","540","stimuli/pictures/hiccup_man_2.jpg","1","1","","true","yes","sound","stimuli/sounds/hiccup_sound_B.wav",""
"","","","","","audio-keyboard-response","267","2.0.0","198757","p9qj0myo8ft","ono","turtle","22","female","yes","no","10","1.5","null","stimuli/sounds/bleep.wav","null","","","","","","",""
"","","","","","html-keyboard-response","268","2.0.0","199931","p9qj0myo8ft","ono","turtle","22","female","yes","no","10","1.5","1072","<p>You have completed a block. Press R when you are ready to continue</p>","r","","","","","","",""
"","","","","","html-keyboard-response","269","2.0.0","200945","p9qj0myo8ft","ono","turtle","22","female","yes","no","10","1.5","1014","<div style=""font-size:30px;"">Press space to start the trial</div>"," ","","","","","","",""
"","","","","","html-keyboard-response","270","2.0.0","201197","p9qj0myo8ft","ono","turtle","22","female","yes","no","10","1.5","null","<div style=""font-size:60px;"">+</div>","null","","","","","","",""
"","","","","","audio-keyboard-response","271","2.0.0","201779","p9qj0myo8ft","ono","turtle","22","female","yes","no","10","1.5","null","stimuli/sounds/drop_sound_A.wav","null","","","","","","",""
"","","","","","html-keyboard-response","272","2.0.0","202781","p9qj0myo8ft","ono","turtle","22","female","yes","no","10","1.5","null","","null","","","","","","",""
"","","","","","image-keyboard-response","273","2.0.0","203325","p9qj0myo8ft","ono","turtle","22","female","yes","no","10","1.5","543","stimuli/pictures/cough_wom_2.jpg","0","0","","true","no","sound","stimuli/sounds/drop_sound_A.wav",""
"","","","","","audio-keyboard-response","274","2.0.0","204327","p9qj0myo8ft","ono","turtle","22","female","yes","no","10","1.5","null","stimuli/sounds/bleep.wav","null","","","","","","",""
"","","","","","html-keyboard-response","275","2.0.0","204880","p9qj0myo8ft","ono","turtle","22","female","yes","no","10","1.5","450","<div style=""font-size:30px;"">Press space to start the trial</div>"," ","","","","","","",""
"","","","","","html-keyboard-response","276","2.0.0","205132","p9qj0myo8ft","ono","turtle","22","female","yes","no","10","1.5","null","<div style=""font-size:60px;"">+</div>","null","","","","","","",""
"","","","","","audio-keyboard-response","277","2.0.0","205738","p9qj0myo8ft","ono","turtle","22","female","yes","no","10","1.5","null","stimuli/sounds/drop_label_B.wav","null","","","","","","",""
"","","","","","html-keyboard-response","278","2.0.0","206740","p9qj0myo8ft","ono","turtle","22","female","yes","no","10","1.5","null","","null","","","","","","",""
"","","","","","image-keyboard-response","279","2.0.0","207249","p9qj0myo8ft","ono","turtle","22","female","yes","no","10","1.5","508","stimuli/pictures/motor_harley_1.jpg","0","0","","true","no","sound","stimuli/sounds/drop_label_B.wav",""
"","","","","","audio-keyboard-response","280","2.0.0","208252","p9qj0myo8ft","ono","turtle","22","female","yes","no","10","1.5","null","stimuli/sounds/bleep.wav","null","","","","","","",""
"","","","","","html-keyboard-response","281","2.0.0","208805","p9qj0myo8ft","ono","turtle","22","female","yes","no","10","1.5","452","<div style=""font-size:30px;"">Press space to start the trial</div>"," ","","","","","","",""
"","","","","","html-keyboard-response","282","2.0.0","209057","p9qj0myo8ft","ono","turtle","22","female","yes","no","10","1.5","null","<div style=""font-size:60px;"">+</div>","null","","","","","","",""
"","","","","","audio-keyboard-response","283","2.0.0","209656","p9qj0myo8ft","ono","turtle","22","female","yes","no","10","1.5","null","stimuli/sounds/hiccup_sound_B.wav","null","","","","","","",""
"","","","","","html-keyboard-response","284","2.0.0","210658","p9qj0myo8ft","ono","turtle","22","female","yes","no","10","1.5","null","","null","","","","","","",""
"","","","","","image-keyboard-response","285","2.0.0","211325","p9qj0myo8ft","ono","turtle","22","female","yes","no","10","1.5","666","stimuli/pictures/drop_single_1.jpg","0","0","","true","no","sound","stimuli/sounds/hiccup_sound_B.wav",""
"","","","","","audio-keyboard-response","286","2.0.0","212327","p9qj0myo8ft","ono","turtle","22","female","yes","no","10","1.5","null","stimuli/sounds/bleep.wav","null","","","","","","",""
"","","","","","html-keyboard-response","287","2.0.0","212813","p9qj0myo8ft","ono","turtle","22","female","yes","no","10","1.5","384","<div style=""font-size:30px;"">Press space to start the trial</div>"," ","","","","","","",""
"","","","","","html-keyboard-response","288","2.0.0","213065","p9qj0myo8ft","ono","turtle","22","female","yes","no","10","1.5","null","<div style=""font-size:60px;"">+</div>","null","","","","","","",""
"","","","","","audio-keyboard-response","289","2.0.0","213668","p9qj0myo8ft","ono","turtle","22","female","yes","no","10","1.5","null","stimuli/sounds/hiccup_sound_B.wav","null","","","","","","",""
"","","","","","html-keyboard-response","290","2.0.0","214669","p9qj0myo8ft","ono","turtle","22","female","yes","no","10","1.5","null","","null","","","","","","",""
"","","","","","image-keyboard-response","291","2.0.0","215146","p9qj0myo8ft","ono","turtle","22","female","yes","no","10","1.5","476","stimuli/pictures/drop_single_2.jpg","0","0","","true","no","sound","stimuli/sounds/hiccup_sound_B.wav",""
"","","","","","audio-keyboard-response","292","2.0.0","216149","p9qj0myo8ft","ono","turtle","22","female","yes","no","10","1.5","null","stimuli/sounds/bleep.wav","null","","","","","","",""
"","","","","","html-keyboard-response","293","2.0.0","216802","p9qj0myo8ft","ono","turtle","22","female","yes","no","10","1.5","551","<div style=""font-size:30px;"">Press space to start the trial</div>"," ","","","","","","",""
"","","","","","html-keyboard-response","294","2.0.0","217054","p9qj0myo8ft","ono","turtle","22","female","yes","no","10","1.5","null","<div style=""font-size:60px;"">+</div>","null","","","","","","",""
"","","","","","audio-keyboard-response","295","2.0.0","217638","p9qj0myo8ft","ono","turtle","22","female","yes","no","10","1.5","null","stimuli/sounds/drop_sound_A.wav","null","","","","","","",""
"","","","","","html-keyboard-response","296","2.0.0","218640","p9qj0myo8ft","ono","turtle","22","female","yes","no","10","1.5","null","","null","","","","","","",""
"","","","","","image-keyboard-response","297","2.0.0","219750","p9qj0myo8ft","ono","turtle","22","female","yes","no","10","1.5","1108","stimuli/pictures/drop_multi_2.jpg","1","1","","true","no","sound","stimuli/sounds/drop_sound_A.wav",""
"","","","","","audio-keyboard-response","298","2.0.0","220752","p9qj0myo8ft","ono","turtle","22","female","yes","no","10","1.5","null","stimuli/sounds/bleep.wav","null","","","","","","",""
"","","","","","html-keyboard-response","299","2.0.0","221321","p9qj0myo8ft","ono","turtle","22","female","yes","no","10","1.5","468","<div style=""font-size:30px;"">Press space to start the trial</div>"," ","","","","","","",""
"","","","","","html-keyboard-response","300","2.0.0","221573","p9qj0myo8ft","ono","turtle","22","female","yes","no","10","1.5","null","<div style=""font-size:60px;"">+</div>","null","","","","","","",""
"","","","","","audio-keyboard-response","301","2.0.0","222183","p9qj0myo8ft","ono","turtle","22","female","yes","no","10","1.5","null","stimuli/sounds/cough_label_B.wav","null","","","","","","",""
"","","","","","html-keyboard-response","302","2.0.0","223184","p9qj0myo8ft","ono","turtle","22","female","yes","no","10","1.5","null","","null","","","","","","",""
"","","","","","image-keyboard-response","303","2.0.0","223913","p9qj0myo8ft","ono","turtle","22","female","yes","no","10","1.5","728","stimuli/pictures/drop_single_1.jpg","0","0","","true","no","sound","stimuli/sounds/cough_label_B.wav",""
"","","","","","audio-keyboard-response","304","2.0.0","224915","p9qj0myo8ft","ono","turtle","22","female","yes","no","10","1.5","null","stimuli/sounds/bleep.wav","null","","","","","","",""
"","","","","","html-keyboard-response","305","2.0.0","225530","p9qj0myo8ft","ono","turtle","22","female","yes","no","10","1.5","513","<div style=""font-size:30px;"">Press space to start the trial</div>"," ","","","","","","",""
"","","","","","html-keyboard-response","306","2.0.0","225782","p9qj0myo8ft","ono","turtle","22","female","yes","no","10","1.5","null","<div style=""font-size:60px;"">+</div>","null","","","","","","",""
"","","","","","audio-keyboard-response","307","2.0.0","226450","p9qj0myo8ft","ono","turtle","22","female","yes","no","10","1.5","null","stimuli/sounds/cough_sound_A.wav","null","","","","","","",""
"","","","","","html-keyboard-response","308","2.0.0","227452","p9qj0myo8ft","ono","turtle","22","female","yes","no","10","1.5","null","","null","","","","","","",""
"","","","","","image-keyboard-response","309","2.0.0","227971","p9qj0myo8ft","ono","turtle","22","female","yes","no","10","1.5","518","stimuli/pictures/cough_man_1.jpg","1","1","","true","no","sound","stimuli/sounds/cough_sound_A.wav",""
"","","","","","audio-keyboard-response","310","2.0.0","228973","p9qj0myo8ft","ono","turtle","22","female","yes","no","10","1.5","null","stimuli/sounds/bleep.wav","null","","","","","","",""
"","","","","","html-keyboard-response","311","2.0.0","229541","p9qj0myo8ft","ono","turtle","22","female","yes","no","10","1.5","466","<div style=""font-size:30px;"">Press space to start the trial</div>"," ","","","","","","",""
"","","","","","html-keyboard-response","312","2.0.0","229794","p9qj0myo8ft","ono","turtle","22","female","yes","no","10","1.5","null","<div style=""font-size:60px;"">+</div>","null","","","","","","",""
"","","","","","audio-keyboard-response","313","2.0.0","230397","p9qj0myo8ft","ono","turtle","22","female","yes","no","10","1.5","null","stimuli/sounds/hiccup_sound_B.wav","null","","","","","","",""
"","","","","","html-keyboard-response","314","2.0.0","231400","p9qj0myo8ft","ono","turtle","22","female","yes","no","10","1.5","null","","null","","","","","","",""
"","","","","","image-keyboard-response","315","2.0.0","232269","p9qj0myo8ft","ono","turtle","22","female","yes","no","10","1.5","868","stimuli/pictures/hiccup_wom_1.jpg","1","1","","true","no","sound","stimuli/sounds/hiccup_sound_B.wav",""
"","","","","","audio-keyboard-response","316","2.0.0","233272","p9qj0myo8ft","ono","turtle","22","female","yes","no","10","1.5","null","stimuli/sounds/bleep.wav","null","","","","","","",""
"","","","","","html-keyboard-response","317","2.0.0","233749","p9qj0myo8ft","ono","turtle","22","female","yes","no","10","1.5","375","<div style=""font-size:30px;"">Press space to start the trial</div>"," ","","","","","","",""
"","","","","","html-keyboard-response","318","2.0.0","234001","p9qj0myo8ft","ono","turtle","22","female","yes","no","10","1.5","null","<div style=""font-size:60px;"">+</div>","null","","","","","","",""
"","","","","","audio-keyboard-response","319","2.0.0","234600","p9qj0myo8ft","ono","turtle","22","female","yes","no","10","1.5","null","stimuli/sounds/dog_sound_A.wav","null","","","","","","",""
"","","","","","html-keyboard-response","320","2.0.0","235602","p9qj0myo8ft","ono","turtle","22","female","yes","no","10","1.5","null","","null","","","","","","",""
"","","","","","image-keyboard-response","321","2.0.0","236444","p9qj0myo8ft","ono","turtle","22","female","yes","no","10","1.5","841","stimuli/pictures/dog_york_2.jpg","1","1","","true","no","sound","stimuli/sounds/dog_sound_A.wav",""
"","","","","","audio-keyboard-response","322","2.0.0","237446","p9qj0myo8ft","ono","turtle","22","female","yes","no","10","1.5","null","stimuli/sounds/bleep.wav","null","","","","","","",""
"","","","","","html-keyboard-response","323","2.0.0","238189","p9qj0myo8ft","ono","turtle","22","female","yes","no","10","1.5","641","<div style=""font-size:30px;"">Press space to start the trial</div>"," ","","","","","","",""
"","","","","","html-keyboard-response","324","2.0.0","238441","p9qj0myo8ft","ono","turtle","22","female","yes","no","10","1.5","null","<div style=""font-size:60px;"">+</div>","null","","","","","","",""
"","","","","","audio-keyboard-response","325","2.0.0","239041","p9qj0myo8ft","ono","turtle","22","female","yes","no","10","1.5","null","stimuli/sounds/motor_label_B.wav","null","","","","","","",""
"","","","","","html-keyboard-response","326","2.0.0","240043","p9qj0myo8ft","ono","turtle","22","female","yes","no","10","1.5","null","","null","","","","","","",""
"","","","","","image-keyboard-response","327","2.0.0","240560","p9qj0myo8ft","ono","turtle","22","female","yes","no","10","1.5","516","stimuli/pictures/motor_dirt_2.jpg","1","1","","true","yes","sound","stimuli/sounds/motor_label_B.wav",""
"","","","","","audio-keyboard-response","328","2.0.0","241563","p9qj0myo8ft","ono","turtle","22","female","yes","no","10","1.5","null","stimuli/sounds/bleep.wav","null","","","","","","",""
"","","","","","html-keyboard-response","329","2.0.0","242275","p9qj0myo8ft","ono","turtle","22","female","yes","no","10","1.5","611","<div style=""font-size:30px;"">Press space to start the trial</div>"," ","","","","","","",""
"","","","","","html-keyboard-response","330","2.0.0","242528","p9qj0myo8ft","ono","turtle","22","female","yes","no","10","1.5","null","<div style=""font-size:60px;"">+</div>","null","","","","","","",""
"","","","","","audio-keyboard-response","331","2.0.0","243133","p9qj0myo8ft","ono","turtle","22","female","yes","no","10","1.5","null","stimuli/sounds/cough_label_B.wav","null","","","","","","",""
"","","","","","html-keyboard-response","332","2.0.0","244136","p9qj0myo8ft","ono","turtle","22","female","yes","no","10","1.5","null","","null","","","","","","",""
"","","","","","image-keyboard-response","333","2.0.0","244689","p9qj0myo8ft","ono","turtle","22","female","yes","no","10","1.5","552","stimuli/pictures/drop_multi_1.jpg","0","0","","true","no","sound","stimuli/sounds/cough_label_B.wav",""
"","","","","","audio-keyboard-response","334","2.0.0","245692","p9qj0myo8ft","ono","turtle","22","female","yes","no","10","1.5","null","stimuli/sounds/bleep.wav","null","","","","","","",""
"","","","","","html-keyboard-response","335","2.0.0","246344","p9qj0myo8ft","ono","turtle","22","female","yes","no","10","1.5","551","<div style=""font-size:30px;"">Press space to start the trial</div>"," ","","","","","","",""
"","","","","","html-keyboard-response","336","2.0.0","246596","p9qj0myo8ft","ono","turtle","22","female","yes","no","10","1.5","null","<div style=""font-size:60px;"">+</div>","null","","","","","","",""
"","","","","","audio-keyboard-response","337","2.0.0","247133","p9qj0myo8ft","ono","turtle","22","female","yes","no","10","1.5","null","stimuli/sounds/hiccup_label_A.wav","null","","","","","","",""
"","","","","","html-keyboard-response","338","2.0.0","248135","p9qj0myo8ft","ono","turtle","22","female","yes","no","10","1.5","null","","null","","","","","","",""
"","","","","","image-keyboard-response","339","2.0.0","249021","p9qj0myo8ft","ono","turtle","22","female","yes","no","10","1.5","885","stimuli/pictures/cough_man_2.jpg","0","0","","true","no","sound","stimuli/sounds/hiccup_label_A.wav",""
"","","","","","audio-keyboard-response","340","2.0.0","250024","p9qj0myo8ft","ono","turtle","22","female","yes","no","10","1.5","null","stimuli/sounds/bleep.wav","null","","","","","","",""
"","","","","","html-keyboard-response","341","2.0.0","250507","p9qj0myo8ft","ono","turtle","22","female","yes","no","10","1.5","381","<div style=""font-size:30px;"">Press space to start the trial</div>"," ","","","","","","",""
"","","","","","html-keyboard-response","342","2.0.0","250759","p9qj0myo8ft","ono","turtle","22","female","yes","no","10","1.5","null","<div style=""font-size:60px;"">+</div>","null","","","","","","",""
"","","","","","audio-keyboard-response","343","2.0.0","251359","p9qj0myo8ft","ono","turtle","22","female","yes","no","10","1.5","null","stimuli/sounds/drop_sound_B.wav","null","","","","","","",""
"","","","","","html-keyboard-response","344","2.0.0","252361","p9qj0myo8ft","ono","turtle","22","female","yes","no","10","1.5","null","","null","","","","","","",""
"","","","","","image-keyboard-response","345","2.0.0","252831","p9qj0myo8ft","ono","turtle","22","female","yes","no","10","1.5","469","stimuli/pictures/drop_multi_2.jpg","1","1","","true","yes","sound","stimuli/sounds/drop_sound_B.wav",""
"","","","","","audio-keyboard-response","346","2.0.0","253833","p9qj0myo8ft","ono","turtle","22","female","yes","no","10","1.5","null","stimuli/sounds/bleep.wav","null","","","","","","",""
"","","","","","html-keyboard-response","347","2.0.0","254470","p9qj0myo8ft","ono","turtle","22","female","yes","no","10","1.5","535","<div style=""font-size:30px;"">Press space to start the trial</div>"," ","","","","","","",""
"","","","","","html-keyboard-response","348","2.0.0","254722","p9qj0myo8ft","ono","turtle","22","female","yes","no","10","1.5","null","<div style=""font-size:60px;"">+</div>","null","","","","","","",""
"","","","","","audio-keyboard-response","349","2.0.0","255324","p9qj0myo8ft","ono","turtle","22","female","yes","no","10","1.5","null","stimuli/sounds/motor_sound_A.wav","null","","","","","","",""
"","","","","","html-keyboard-response","350","2.0.0","256326","p9qj0myo8ft","ono","turtle","22","female","yes","no","10","1.5","null","","null","","","","","","",""
"","","","","","image-keyboard-response","351","2.0.0","256927","p9qj0myo8ft","ono","turtle","22","female","yes","no","10","1.5","600","stimuli/pictures/motor_dirt_1.jpg","1","1","","true","yes","sound","stimuli/sounds/motor_sound_A.wav",""
"","","","","","audio-keyboard-response","352","2.0.0","257929","p9qj0myo8ft","ono","turtle","22","female","yes","no","10","1.5","null","stimuli/sounds/bleep.wav","null","","","","","","",""
"","","","","","html-keyboard-response","353","2.0.0","258385","p9qj0myo8ft","ono","turtle","22","female","yes","no","10","1.5","354","<div style=""font-size:30px;"">Press space to start the trial</div>"," ","","","","","","",""
"","","","","","html-keyboard-response","354","2.0.0","258637","p9qj0myo8ft","ono","turtle","22","female","yes","no","10","1.5","null","<div style=""font-size:60px;"">+</div>","null","","","","","","",""
"","","","","","audio-keyboard-response","355","2.0.0","259265","p9qj0myo8ft","ono","turtle","22","female","yes","no","10","1.5","null","stimuli/sounds/cough_label_A.wav","null","","","","","","",""
"","","","","","html-keyboard-response","356","2.0.0","260268","p9qj0myo8ft","ono","turtle","22","female","yes","no","10","1.5","null","","null","","","","","","",""
"","","","","","image-keyboard-response","357","2.0.0","260780","p9qj0myo8ft","ono","turtle","22","female","yes","no","10","1.5","511","stimuli/pictures/cough_wom_1.jpg","1","1","","true","yes","sound","stimuli/sounds/cough_label_A.wav",""
"","","","","","audio-keyboard-response","358","2.0.0","261783","p9qj0myo8ft","ono","turtle","22","female","yes","no","10","1.5","null","stimuli/sounds/bleep.wav","null","","","","","","",""
"","","","","","html-keyboard-response","359","2.0.0","262421","p9qj0myo8ft","ono","turtle","22","female","yes","no","10","1.5","537","<div style=""font-size:30px;"">Press space to start the trial</div>"," ","","","","","","",""
"","","","","","html-keyboard-response","360","2.0.0","262673","p9qj0myo8ft","ono","turtle","22","female","yes","no","10","1.5","null","<div style=""font-size:60px;"">+</div>","null","","","","","","",""
"","","","","","audio-keyboard-response","361","2.0.0","263277","p9qj0myo8ft","ono","turtle","22","female","yes","no","10","1.5","null","stimuli/sounds/hiccup_sound_A.wav","null","","","","","","",""
"","","","","","html-keyboard-response","362","2.0.0","264279","p9qj0myo8ft","ono","turtle","22","female","yes","no","10","1.5","null","","null","","","","","","",""
"","","","","","image-keyboard-response","363","2.0.0","264972","p9qj0myo8ft","ono","turtle","22","female","yes","no","10","1.5","692","stimuli/pictures/motor_harley_2.jpg","0","0","","true","no","sound","stimuli/sounds/hiccup_sound_A.wav",""
"","","","","","audio-keyboard-response","364","2.0.0","265974","p9qj0myo8ft","ono","turtle","22","female","yes","no","10","1.5","null","stimuli/sounds/bleep.wav","null","","","","","","",""
"","","","","","html-keyboard-response","365","2.0.0","266693","p9qj0myo8ft","ono","turtle","22","female","yes","no","10","1.5","617","<div style=""font-size:30px;"">Press space to start the trial</div>"," ","","","","","","",""
"","","","","","html-keyboard-response","366","2.0.0","266945","p9qj0myo8ft","ono","turtle","22","female","yes","no","10","1.5","null","<div style=""font-size:60px;"">+</div>","null","","","","","","",""
"","","","","","audio-keyboard-response","367","2.0.0","267578","p9qj0myo8ft","ono","turtle","22","female","yes","no","10","1.5","null","stimuli/sounds/cough_label_A.wav","null","","","","","","",""
"","","","","","html-keyboard-response","368","2.0.0","268580","p9qj0myo8ft","ono","turtle","22","female","yes","no","10","1.5","null","","null","","","","","","",""
"","","","","","image-keyboard-response","369","2.0.0","269055","p9qj0myo8ft","ono","turtle","22","female","yes","no","10","1.5","474","stimuli/pictures/motor_dirt_1.jpg","0","0","","true","no","sound","stimuli/sounds/cough_label_A.wav",""
"","","","","","audio-keyboard-response","370","2.0.0","270058","p9qj0myo8ft","ono","turtle","22","female","yes","no","10","1.5","null","stimuli/sounds/bleep.wav","null","","","","","","",""
"","","","","","html-keyboard-response","371","2.0.0","270617","p9qj0myo8ft","ono","turtle","22","female","yes","no","10","1.5","457","<div style=""font-size:30px;"">Press space to start the trial</div>"," ","","","","","","",""
"","","","","","html-keyboard-response","372","2.0.0","270869","p9qj0myo8ft","ono","turtle","22","female","yes","no","10","1.5","null","<div style=""font-size:60px;"">+</div>","null","","","","","","",""
"","","","","","audio-keyboard-response","373","2.0.0","271468","p9qj0myo8ft","ono","turtle","22","female","yes","no","10","1.5","null","stimuli/sounds/motor_label_A.wav","null","","","","","","",""
"","","","","","html-keyboard-response","374","2.0.0","272470","p9qj0myo8ft","ono","turtle","22","female","yes","no","10","1.5","null","","null","","","","","","",""
"","","","","","image-keyboard-response","375","2.0.0","272949","p9qj0myo8ft","ono","turtle","22","female","yes","no","10","1.5","478","stimuli/pictures/dog_york_2.jpg","0","0","","true","no","sound","stimuli/sounds/motor_label_A.wav",""
"","","","","","audio-keyboard-response","376","2.0.0","273952","p9qj0myo8ft","ono","turtle","22","female","yes","no","10","1.5","null","stimuli/sounds/bleep.wav","null","","","","","","",""
"","","","","","html-keyboard-response","377","2.0.0","274533","p9qj0myo8ft","ono","turtle","22","female","yes","no","10","1.5","480","<div style=""font-size:30px;"">Press space to start the trial</div>"," ","","","","","","",""
"","","","","","html-keyboard-response","378","2.0.0","274785","p9qj0myo8ft","ono","turtle","22","female","yes","no","10","1.5","null","<div style=""font-size:60px;"">+</div>","null","","","","","","",""
"","","","","","audio-keyboard-response","379","2.0.0","275386","p9qj0myo8ft","ono","turtle","22","female","yes","no","10","1.5","null","stimuli/sounds/motor_label_B.wav","null","","","","","","",""
"","","","","","html-keyboard-response","380","2.0.0","276388","p9qj0myo8ft","ono","turtle","22","female","yes","no","10","1.5","null","","null","","","","","","",""
"","","","","","image-keyboard-response","381","2.0.0","276929","p9qj0myo8ft","ono","turtle","22","female","yes","no","10","1.5","541","stimuli/pictures/motor_harley_2.jpg","1","1","","true","yes","sound","stimuli/sounds/motor_label_B.wav",""
"","","","","","audio-keyboard-response","382","2.0.0","277932","p9qj0myo8ft","ono","turtle","22","female","yes","no","10","1.5","null","stimuli/sounds/bleep.wav","null","","","","","","",""
"","","","","","html-keyboard-response","383","2.0.0","278688","p9qj0myo8ft","ono","turtle","22","female","yes","no","10","1.5","654","<div style=""font-size:30px;"">Press space to start the trial</div>"," ","","","","","","",""
"","","","","","html-keyboard-response","384","2.0.0","278939","p9qj0myo8ft","ono","turtle","22","female","yes","no","10","1.5","null","<div style=""font-size:60px;"">+</div>","null","","","","","","",""
"","","","","","audio-keyboard-response","385","2.0.0","279542","p9qj0myo8ft","ono","turtle","22","female","yes","no","10","1.5","null","stimuli/sounds/hiccup_sound_A.wav","null","","","","","","",""
"","","","","","html-keyboard-response","386","2.0.0","280545","p9qj0myo8ft","ono","turtle","22","female","yes","no","10","1.5","null","","null","","","","","","",""
"","","","","","image-keyboard-response","387","2.0.0","281063","p9qj0myo8ft","ono","turtle","22","female","yes","no","10","1.5","517","stimuli/pictures/hiccup_wom_1.jpg","1","1","","true","yes","sound","stimuli/sounds/hiccup_sound_A.wav",""
"","","","","","audio-keyboard-response","388","2.0.0","282066","p9qj0myo8ft","ono","turtle","22","female","yes","no","10","1.5","null","stimuli/sounds/bleep.wav","null","","","","","","",""
"","","","","","html-keyboard-response","389","2.0.0","283282","p9qj0myo8ft","ono","turtle","22","female","yes","no","10","1.5","1115","<p>You have completed a block. Press R when you are ready to continue</p>","r","","","","","","",""
"","","","","","html-keyboard-response","390","2.0.0","284396","p9qj0myo8ft","ono","turtle","22","female","yes","no","10","1.5","1113","<div style=""font-size:30px;"">Press space to start the trial</div>"," ","","","","","","",""
"","","","","","html-keyboard-response","391","2.0.0","284647","p9qj0myo8ft","ono","turtle","22","female","yes","no","10","1.5","null","<div style=""font-size:60px;"">+</div>","null","","","","","","",""
"","","","","","audio-keyboard-response","392","2.0.0","285249","p9qj0myo8ft","ono","turtle","22","female","yes","no","10","1.5","null","stimuli/sounds/dog_label_B.wav","null","","","","","","",""
"","","","","","html-keyboard-response","393","2.0.0","286251","p9qj0myo8ft","ono","turtle","22","female","yes","no","10","1.5","null","","null","","","","","","",""
"","","","","","image-keyboard-response","394","2.0.0","286702","p9qj0myo8ft","ono","turtle","22","female","yes","no","10","1.5","450","stimuli/pictures/cough_man_2.jpg","0","0","","true","no","sound","stimuli/sounds/dog_label_B.wav",""
"","","","","","audio-keyboard-response","395","2.0.0","287704","p9qj0myo8ft","ono","turtle","22","female","yes","no","10","1.5","null","stimuli/sounds/bleep.wav","null","","","","","","",""
"","","","","","html-keyboard-response","396","2.0.0","288380","p9qj0myo8ft","ono","turtle","22","female","yes","no","10","1.5","574","<div style=""font-size:30px;"">Press space to start the trial</div>"," ","","","","","","",""
"","","","","","html-keyboard-response","397","2.0.0","288632","p9qj0myo8ft","ono","turtle","22","female","yes","no","10","1.5","null","<div style=""font-size:60px;"">+</div>","null","","","","","","",""
"","","","","","audio-keyboard-response","398","2.0.0","289237","p9qj0myo8ft","ono","turtle","22","female","yes","no","10","1.5","null","stimuli/sounds/hiccup_label_B.wav","null","","","","","","",""
"","","","","","html-keyboard-response","399","2.0.0","290239","p9qj0myo8ft","ono","turtle","22","female","yes","no","10","1.5","null","","null","","","","","","",""
"","","","","","image-keyboard-response","400","2.0.0","290719","p9qj0myo8ft","ono","turtle","22","female","yes","no","10","1.5","479","stimuli/pictures/dog_rott_1.jpg","0","0","","true","no","sound","stimuli/sounds/hiccup_label_B.wav",""
"","","","","","audio-keyboard-response","401","2.0.0","291721","p9qj0myo8ft","ono","turtle","22","female","yes","no","10","1.5","null","stimuli/sounds/bleep.wav","null","","","","","","",""
"","","","","","html-keyboard-response","402","2.0.0","292471","p9qj0myo8ft","ono","turtle","22","female","yes","no","10","1.5","648","<div style=""font-size:30px;"">Press space to start the trial</div>"," ","","","","","","",""
"","","","","","html-keyboard-response","403","2.0.0","292723","p9qj0myo8ft","ono","turtle","22","female","yes","no","10","1.5","null","<div style=""font-size:60px;"">+</div>","null","","","","","","",""
"","","","","","audio-keyboard-response","404","2.0.0","293387","p9qj0myo8ft","ono","turtle","22","female","yes","no","10","1.5","null","stimuli/sounds/cough_sound_A.wav","null","","","","","","",""
"","","","","","html-keyboard-response","405","2.0.0","294389","p9qj0myo8ft","ono","turtle","22","female","yes","no","10","1.5","null","","null","","","","","","",""
"","","","","","image-keyboard-response","406","2.0.0","294835","p9qj0myo8ft","ono","turtle","22","female","yes","no","10","1.5","444","stimuli/pictures/cough_wom_1.jpg","1","1","","true","yes","sound","stimuli/sounds/cough_sound_A.wav",""
"","","","","","audio-keyboard-response","407","2.0.0","295837","p9qj0myo8ft","ono","turtle","22","female","yes","no","10","1.5","null","stimuli/sounds/bleep.wav","null","","","","","","",""
"","","","","","html-keyboard-response","408","2.0.0","296905","p9qj0myo8ft","ono","turtle","22","female","yes","no","10","1.5","967","<div style=""font-size:30px;"">Press space to start the trial</div>"," ","","","","","","",""
"","","","","","html-keyboard-response","409","2.0.0","297158","p9qj0myo8ft","ono","turtle","22","female","yes","no","10","1.5","null","<div style=""font-size:60px;"">+</div>","null","","","","","","",""
"","","","","","audio-keyboard-response","410","2.0.0","297758","p9qj0myo8ft","ono","turtle","22","female","yes","no","10","1.5","null","stimuli/sounds/hiccup_sound_B.wav","null","","","","","","",""
"","","","","","html-keyboard-response","411","2.0.0","298761","p9qj0myo8ft","ono","turtle","22","female","yes","no","10","1.5","null","","null","","","","","","",""
"","","","","","image-keyboard-response","412","2.0.0","299247","p9qj0myo8ft","ono","turtle","22","female","yes","no","10","1.5","485","stimuli/pictures/hiccup_man_1.jpg","1","1","","true","yes","sound","stimuli/sounds/hiccup_sound_B.wav",""
"","","","","","audio-keyboard-response","413","2.0.0","300249","p9qj0myo8ft","ono","turtle","22","female","yes","no","10","1.5","null","stimuli/sounds/bleep.wav","null","","","","","","",""
"","","","","","html-keyboard-response","414","2.0.0","300847","p9qj0myo8ft","ono","turtle","22","female","yes","no","10","1.5","496","<div style=""font-size:30px;"">Press space to start the trial</div>"," ","","","","","","",""
"","","","","","html-keyboard-response","415","2.0.0","301099","p9qj0myo8ft","ono","turtle","22","female","yes","no","10","1.5","null","<div style=""font-size:60px;"">+</div>","null","","","","","","",""
"","","","","","audio-keyboard-response","416","2.0.0","301700","p9qj0myo8ft","ono","turtle","22","female","yes","no","10","1.5","null","stimuli/sounds/dog_label_A.wav","null","","","","","","",""
"","","","","","html-keyboard-response","417","2.0.0","302702","p9qj0myo8ft","ono","turtle","22","female","yes","no","10","1.5","null","","null","","","","","","",""
"","","","","","image-keyboard-response","418","2.0.0","303289","p9qj0myo8ft","ono","turtle","22","female","yes","no","10","1.5","585","stimuli/pictures/dog_rott_2.jpg","1","1","","true","yes","sound","stimuli/sounds/dog_label_A.wav",""
"","","","","","audio-keyboard-response","419","2.0.0","304291","p9qj0myo8ft","ono","turtle","22","female","yes","no","10","1.5","null","stimuli/sounds/bleep.wav","null","","","","","","",""
"","","","","","html-keyboard-response","420","2.0.0","305074","p9qj0myo8ft","ono","turtle","22","female","yes","no","10","1.5","682","<div style=""font-size:30px;"">Press space to start the trial</div>"," ","","","","","","",""
"","","","","","html-keyboard-response","421","2.0.0","305327","p9qj0myo8ft","ono","turtle","22","female","yes","no","10","1.5","null","<div style=""font-size:60px;"">+</div>","null","","","","","","",""
"","","","","","audio-keyboard-response","422","2.0.0","305932","p9qj0myo8ft","ono","turtle","22","female","yes","no","10","1.5","null","stimuli/sounds/drop_label_B.wav","null","","","","","","",""
"","","","","","html-keyboard-response","423","2.0.0","306934","p9qj0myo8ft","ono","turtle","22","female","yes","no","10","1.5","null","","null","","","","","","",""
"","","","","","image-keyboard-response","424","2.0.0","307476","p9qj0myo8ft","ono","turtle","22","female","yes","no","10","1.5","541","stimuli/pictures/drop_single_2.jpg","0","1","","false","yes","sound","stimuli/sounds/drop_label_B.wav",""
"","","","","","audio-keyboard-response","425","2.0.0","308478","p9qj0myo8ft","ono","turtle","22","female","yes","no","10","1.5","null","stimuli/sounds/buzz.wav","null","","","","","","",""
"","","","","","html-keyboard-response","426","2.0.0","309146","p9qj0myo8ft","ono","turtle","22","female","yes","no","10","1.5","566","<div style=""font-size:30px;"">Press space to start the trial</div>"," ","","","","","","",""
"","","","","","html-keyboard-response","427","2.0.0","309398","p9qj0myo8ft","ono","turtle","22","female","yes","no","10","1.5","null","<div style=""font-size:60px;"">+</div>","null","","","","","","",""
"","","","","","audio-keyboard-response","428","2.0.0","310001","p9qj0myo8ft","ono","turtle","22","female","yes","no","10","1.5","null","stimuli/sounds/hiccup_sound_B.wav","null","","","","","","",""
"","","","","","html-keyboard-response","429","2.0.0","311003","p9qj0myo8ft","ono","turtle","22","female","yes","no","10","1.5","null","","null","","","","","","",""
"","","","","","image-keyboard-response","430","2.0.0","311996","p9qj0myo8ft","ono","turtle","22","female","yes","no","10","1.5","992","stimuli/pictures/hiccup_wom_2.jpg","1","1","","true","no","sound","stimuli/sounds/hiccup_sound_B.wav",""
"","","","","","audio-keyboard-response","431","2.0.0","312999","p9qj0myo8ft","ono","turtle","22","female","yes","no","10","1.5","null","stimuli/sounds/bleep.wav","null","","","","","","",""
"","","","","","html-keyboard-response","432","2.0.0","313454","p9qj0myo8ft","ono","turtle","22","female","yes","no","10","1.5","353","<div style=""font-size:30px;"">Press space to start the trial</div>"," ","","","","","","",""
"","","","","","html-keyboard-response","433","2.0.0","313706","p9qj0myo8ft","ono","turtle","22","female","yes","no","10","1.5","null","<div style=""font-size:60px;"">+</div>","null","","","","","","",""
"","","","","","audio-keyboard-response","434","2.0.0","314308","p9qj0myo8ft","ono","turtle","22","female","yes","no","10","1.5","null","stimuli/sounds/motor_label_B.wav","null","","","","","","",""
"","","","","","html-keyboard-response","435","2.0.0","315310","p9qj0myo8ft","ono","turtle","22","female","yes","no","10","1.5","null","","null","","","","","","",""
"","","","","","image-keyboard-response","436","2.0.0","316662","p9qj0myo8ft","ono","turtle","22","female","yes","no","10","1.5","1351","stimuli/pictures/hiccup_man_1.jpg","0","0","","true","no","sound","stimuli/sounds/motor_label_B.wav",""
"","","","","","audio-keyboard-response","437","2.0.0","317665","p9qj0myo8ft","ono","turtle","22","female","yes","no","10","1.5","null","stimuli/sounds/bleep.wav","null","","","","","","",""
"","","","","","html-keyboard-response","438","2.0.0","318231","p9qj0myo8ft","ono","turtle","22","female","yes","no","10","1.5","464","<div style=""font-size:30px;"">Press space to start the trial</div>"," ","","","","","","",""
"","","","","","html-keyboard-response","439","2.0.0","318482","p9qj0myo8ft","ono","turtle","22","female","yes","no","10","1.5","null","<div style=""font-size:60px;"">+</div>","null","","","","","","",""
"","","","","","audio-keyboard-response","440","2.0.0","319086","p9qj0myo8ft","ono","turtle","22","female","yes","no","10","1.5","null","stimuli/sounds/motor_sound_B.wav","null","","","","","","",""
"","","","","","html-keyboard-response","441","2.0.0","320088","p9qj0myo8ft","ono","turtle","22","female","yes","no","10","1.5","null","","null","","","","","","",""
"","","","","","image-keyboard-response","442","2.0.0","321035","p9qj0myo8ft","ono","turtle","22","female","yes","no","10","1.5","946","stimuli/pictures/cough_man_1.jpg","0","0","","true","no","sound","stimuli/sounds/motor_sound_B.wav",""
"","","","","","audio-keyboard-response","443","2.0.0","322038","p9qj0myo8ft","ono","turtle","22","female","yes","no","10","1.5","null","stimuli/sounds/bleep.wav","null","","","","","","",""
"","","","","","html-keyboard-response","444","2.0.0","322514","p9qj0myo8ft","ono","turtle","22","female","yes","no","10","1.5","374","<div style=""font-size:30px;"">Press space to start the trial</div>"," ","","","","","","",""
"","","","","","html-keyboard-response","445","2.0.0","322766","p9qj0myo8ft","ono","turtle","22","female","yes","no","10","1.5","null","<div style=""font-size:60px;"">+</div>","null","","","","","","",""
"","","","","","audio-keyboard-response","446","2.0.0","323376","p9qj0myo8ft","ono","turtle","22","female","yes","no","10","1.5","null","stimuli/sounds/hiccup_label_B.wav","null","","","","","","",""
"","","","","","html-keyboard-response","447","2.0.0","324377","p9qj0myo8ft","ono","turtle","22","female","yes","no","10","1.5","null","","null","","","","","","",""
"","","","","","image-keyboard-response","448","2.0.0","324926","p9qj0myo8ft","ono","turtle","22","female","yes","no","10","1.5","548","stimuli/pictures/hiccup_wom_1.jpg","1","1","","true","yes","sound","stimuli/sounds/hiccup_label_B.wav",""
"","","","","","audio-keyboard-response","449","2.0.0","325928","p9qj0myo8ft","ono","turtle","22","female","yes","no","10","1.5","null","stimuli/sounds/bleep.wav","null","","","","","","",""
"","","","","","html-keyboard-response","450","2.0.0","326489","p9qj0myo8ft","ono","turtle","22","female","yes","no","10","1.5","459","<div style=""font-size:30px;"">Press space to start the trial</div>"," ","","","","","","",""
"","","","","","html-keyboard-response","451","2.0.0","326741","p9qj0myo8ft","ono","turtle","22","female","yes","no","10","1.5","null","<div style=""font-size:60px;"">+</div>","null","","","","","","",""
"","","","","","audio-keyboard-response","452","2.0.0","327340","p9qj0myo8ft","ono","turtle","22","female","yes","no","10","1.5","null","stimuli/sounds/motor_label_B.wav","null","","","","","","",""
"","","","","","html-keyboard-response","453","2.0.0","328342","p9qj0myo8ft","ono","turtle","22","female","yes","no","10","1.5","null","","null","","","","","","",""
"","","","","","image-keyboard-response","454","2.0.0","328909","p9qj0myo8ft","ono","turtle","22","female","yes","no","10","1.5","566","stimuli/pictures/motor_harley_1.jpg","1","1","","true","yes","sound","stimuli/sounds/motor_label_B.wav",""
"","","","","","audio-keyboard-response","455","2.0.0","329911","p9qj0myo8ft","ono","turtle","22","female","yes","no","10","1.5","null","stimuli/sounds/bleep.wav","null","","","","","","",""
"","","","","","html-keyboard-response","456","2.0.0","330424","p9qj0myo8ft","ono","turtle","22","female","yes","no","10","1.5","411","<div style=""font-size:30px;"">Press space to start the trial</div>"," ","","","","","","",""
"","","","","","html-keyboard-response","457","2.0.0","330677","p9qj0myo8ft","ono","turtle","22","female","yes","no","10","1.5","null","<div style=""font-size:60px;"">+</div>","null","","","","","","",""
"","","","","","audio-keyboard-response","458","2.0.0","331276","p9qj0myo8ft","ono","turtle","22","female","yes","no","10","1.5","null","stimuli/sounds/dog_label_A.wav","null","","","","","","",""
"","","","","","html-keyboard-response","459","2.0.0","332278","p9qj0myo8ft","ono","turtle","22","female","yes","no","10","1.5","null","","null","","","","","","",""
"","","","","","image-keyboard-response","460","2.0.0","332792","p9qj0myo8ft","ono","turtle","22","female","yes","no","10","1.5","513","stimuli/pictures/drop_multi_2.jpg","0","0","","true","no","sound","stimuli/sounds/dog_label_A.wav",""
"","","","","","audio-keyboard-response","461","2.0.0","333794","p9qj0myo8ft","ono","turtle","22","female","yes","no","10","1.5","null","stimuli/sounds/bleep.wav","null","","","","","","",""
"","","","","","html-keyboard-response","462","2.0.0","334314","p9qj0myo8ft","ono","turtle","22","female","yes","no","10","1.5","418","<div style=""font-size:30px;"">Press space to start the trial</div>"," ","","","","","","",""
"","","","","","html-keyboard-response","463","2.0.0","334565","p9qj0myo8ft","ono","turtle","22","female","yes","no","10","1.5","null","<div style=""font-size:60px;"">+</div>","null","","","","","","",""
"","","","","","audio-keyboard-response","464","2.0.0","335194","p9qj0myo8ft","ono","turtle","22","female","yes","no","10","1.5","null","stimuli/sounds/cough_label_A.wav","null","","","","","","",""
"","","","","","html-keyboard-response","465","2.0.0","336196","p9qj0myo8ft","ono","turtle","22","female","yes","no","10","1.5","null","","null","","","","","","",""
"","","","","","image-keyboard-response","466","2.0.0","336682","p9qj0myo8ft","ono","turtle","22","female","yes","no","10","1.5","485","stimuli/pictures/motor_harley_2.jpg","0","0","","true","no","sound","stimuli/sounds/cough_label_A.wav",""
"","","","","","audio-keyboard-response","467","2.0.0","337685","p9qj0myo8ft","ono","turtle","22","female","yes","no","10","1.5","null","stimuli/sounds/bleep.wav","null","","","","","","",""
"","","","","","html-keyboard-response","468","2.0.0","338207","p9qj0myo8ft","ono","turtle","22","female","yes","no","10","1.5","420","<div style=""font-size:30px;"">Press space to start the trial</div>"," ","","","","","","",""
"","","","","","html-keyboard-response","469","2.0.0","338459","p9qj0myo8ft","ono","turtle","22","female","yes","no","10","1.5","null","<div style=""font-size:60px;"">+</div>","null","","","","","","",""
"","","","","","audio-keyboard-response","470","2.0.0","339061","p9qj0myo8ft","ono","turtle","22","female","yes","no","10","1.5","null","stimuli/sounds/dog_sound_B.wav","null","","","","","","",""
"","","","","","html-keyboard-response","471","2.0.0","340063","p9qj0myo8ft","ono","turtle","22","female","yes","no","10","1.5","null","","null","","","","","","",""
"","","","","","image-keyboard-response","472","2.0.0","340571","p9qj0myo8ft","ono","turtle","22","female","yes","no","10","1.5","507","stimuli/pictures/dog_rott_2.jpg","1","1","","true","no","sound","stimuli/sounds/dog_sound_B.wav",""
"","","","","","audio-keyboard-response","473","2.0.0","341574","p9qj0myo8ft","ono","turtle","22","female","yes","no","10","1.5","null","stimuli/sounds/bleep.wav","null","","","","","","",""
"","","","","","html-keyboard-response","474","2.0.0","342027","p9qj0myo8ft","ono","turtle","22","female","yes","no","10","1.5","351","<div style=""font-size:30px;"">Press space to start the trial</div>"," ","","","","","","",""
"","","","","","html-keyboard-response","475","2.0.0","342277","p9qj0myo8ft","ono","turtle","22","female","yes","no","10","1.5","null","<div style=""font-size:60px;"">+</div>","null","","","","","","",""
"","","","","","audio-keyboard-response","476","2.0.0","342956","p9qj0myo8ft","ono","turtle","22","female","yes","no","10","1.5","null","stimuli/sounds/cough_sound_B.wav","null","","","","","","",""
"","","","","","html-keyboard-response","477","2.0.0","343957","p9qj0myo8ft","ono","turtle","22","female","yes","no","10","1.5","null","","null","","","","","","",""
"","","","","","image-keyboard-response","478","2.0.0","344480","p9qj0myo8ft","ono","turtle","22","female","yes","no","10","1.5","521","stimuli/pictures/hiccup_man_2.jpg","1","0","","false","no","sound","stimuli/sounds/cough_sound_B.wav",""
"","","","","","audio-keyboard-response","479","2.0.0","345482","p9qj0myo8ft","ono","turtle","22","female","yes","no","10","1.5","null","stimuli/sounds/buzz.wav","null","","","","","","",""
"","","","","","html-keyboard-response","480","2.0.0","345914","p9qj0myo8ft","ono","turtle","22","female","yes","no","10","1.5","330","<div style=""font-size:30px;"">Press space to start the trial</div>"," ","","","","","","",""
"","","","","","html-keyboard-response","481","2.0.0","346166","p9qj0myo8ft","ono","turtle","22","female","yes","no","10","1.5","null","<div style=""font-size:60px;"">+</div>","null","","","","","","",""
