"success","timeout","failed_images","failed_audio","failed_video","trial_type","trial_index","plugin_version","time_elapsed","random_id","condition","participant","age","gender_id","mus_exp","inst_exp","years_exp","mus_listening","rt","stimulus","response","correct_response","practice","correct","congruent","sound_type","audio","question_order"
"true","false","[]","[]","[]","preload","0","2.0.0","492","p9xsj08x5pv","mus","goldfish"," 21","male","yes","yes","3","1.5 hrs per day ","","","","","","","","","",""
"","","","","","html-keyboard-response","1","2.0.0","1417","p9xsj08x5pv","mus","goldfish"," 21","male","yes","yes","3","1.5 hrs per day ","924","Welcome to the experiment! Press any key to begin.","d","","","","","","",""
"true","","","","","fullscreen","2","null","3854","p9xsj08x5pv","mus","goldfish"," 21","male","yes","yes","3","1.5 hrs per day ","1433","","","","","","","","",""
"","","","","","survey-text","3","2.0.0","12728","p9xsj08x5pv","mus","goldfish"," 21","male","yes","yes","3","1.5 hrs per day ","8869","","{""participant_id"":""goldfish""}","","","","","","",""
"","","","","","html-keyboard-response","4","2.0.0","31725","p9xsj08x5pv","mus","goldfish"," 21","male","yes","yes","3","1.5 hrs per day ","18996","
    <p> Please use headphones for the duration of the study.</p>
    <p> Within each trial, you will hear a sound and then be presented with an image in the center of your screen.</p>
    <p>Press the <b>'1'</b> key if what you hear <u>matches</u> what you see.</p>
    <p>Press the <b>'0'</b> key if what you hear <u>does not match</u> what you see.</p>
    <p>Try to respond as quickly and accurately as you can.</p>
    <p> Press any key to begin.</p>
    "," ","","","","","","",""
"","","","","","html-keyboard-response","5","2.0.0","39095","p9xsj08x5pv","mus","goldfish"," 21","male","yes","yes","3","1.5 hrs per day ","7368","
    <div style=""font-size:28px;"">
      <p>You will now complete 4 short practice trials.</p>
      <p>This is just to help you get familiar with the task.</p>
      <p>Press any key to begin.</p>
    </div>
  ","j","","","","","","",""
"","","","","","html-keyboard-response","6","2.0.0","39597","p9xsj08x5pv","mus","goldfish"," 21","male","yes","yes","3","1.5 hrs per day ","null","<div style=""font-size:60px;"">+</div>","null","","","","","","",""
"","","","","","audio-keyboard-response","7","2.0.0","40283","p9xsj08x5pv","mus","goldfish"," 21","male","yes","yes","3","1.5 hrs per day ","null","stimuli/sounds/guitar_label_A.wav","null","","","","","","",""
"","","","","","image-keyboard-response","8","2.0.0","41096","p9xsj08x5pv","mus","goldfish"," 21","male","yes","yes","3","1.5 hrs per day ","809","stimuli/pictures/guitar_acoustic_1.jpg","1","1","true","true","","","",""
"","","","","","audio-keyboard-response","9","2.0.0","41900","p9xsj08x5pv","mus","goldfish"," 21","male","yes","yes","3","1.5 hrs per day ","null","stimuli/sounds/bleep.wav","null","","","","","","",""
"","","","","","html-keyboard-response","10","2.0.0","42603","p9xsj08x5pv","mus","goldfish"," 21","male","yes","yes","3","1.5 hrs per day ","null","<p style='color:green; font-size:30px;'>Correct!</p>","null","","","","","","",""
"","","","","","html-keyboard-response","11","2.0.0","43105","p9xsj08x5pv","mus","goldfish"," 21","male","yes","yes","3","1.5 hrs per day ","null","<div style=""font-size:60px;"">+</div>","null","","","","","","",""
"","","","","","audio-keyboard-response","12","2.0.0","43706","p9xsj08x5pv","mus","goldfish"," 21","male","yes","yes","3","1.5 hrs per day ","null","stimuli/sounds/guitar_sound_B.wav","null","","","","","","",""
"","","","","","image-keyboard-response","13","2.0.0","45073","p9xsj08x5pv","mus","goldfish"," 21","male","yes","yes","3","1.5 hrs per day ","1365","stimuli/pictures/guitar_acoustic_2.jpg","1","1","true","true","","","",""
"","","","","","audio-keyboard-response","14","2.0.0","45876","p9xsj08x5pv","mus","goldfish"," 21","male","yes","yes","3","1.5 hrs per day ","null","stimuli/sounds/bleep.wav","null","","","","","","",""
"","","","","","html-keyboard-response","15","2.0.0","46578","p9xsj08x5pv","mus","goldfish"," 21","male","yes","yes","3","1.5 hrs per day ","null","<p style='color:green; font-size:30px;'>Correct!</p>","null","","","","","","",""
"","","","","","html-keyboard-response","16","2.0.0","47081","p9xsj08x5pv","mus","goldfish"," 21","male","yes","yes","3","1.5 hrs per day ","null","<div style=""font-size:60px;"">+</div>","null","","","","","","",""
"","","","","","audio-keyboard-response","17","2.0.0","47680","p9xsj08x5pv","mus","goldfish"," 21","male","yes","yes","3","1.5 hrs per day ","null","stimuli/sounds/flute_sound_A.wav","null","","","","","","",""
"","","","","","image-keyboard-response","18","2.0.0","48311","p9xsj08x5pv","mus","goldfish"," 21","male","yes","yes","3","1.5 hrs per day ","630","stimuli/pictures/guitar_electric_1.jpg","0","0","true","true","","","",""
"","","","","","audio-keyboard-response","19","2.0.0","49114","p9xsj08x5pv","mus","goldfish"," 21","male","yes","yes","3","1.5 hrs per day ","null","stimuli/sounds/bleep.wav","null","","","","","","",""
"","","","","","html-keyboard-response","20","2.0.0","49816","p9xsj08x5pv","mus","goldfish"," 21","male","yes","yes","3","1.5 hrs per day ","null","<p style='color:green; font-size:30px;'>Correct!</p>","null","","","","","","",""
"","","","","","html-keyboard-response","21","2.0.0","50318","p9xsj08x5pv","mus","goldfish"," 21","male","yes","yes","3","1.5 hrs per day ","null","<div style=""font-size:60px;"">+</div>","null","","","","","","",""
"","","","","","audio-keyboard-response","22","2.0.0","50917","p9xsj08x5pv","mus","goldfish"," 21","male","yes","yes","3","1.5 hrs per day ","null","stimuli/sounds/guitar_sound_A.wav","null","","","","","","",""
"","","","","","image-keyboard-response","23","2.0.0","51614","p9xsj08x5pv","mus","goldfish"," 21","male","yes","yes","3","1.5 hrs per day ","696","stimuli/pictures/guitar_acoustic_1.jpg","1","1","true","true","","","",""
"","","","","","audio-keyboard-response","24","2.0.0","52418","p9xsj08x5pv","mus","goldfish"," 21","male","yes","yes","3","1.5 hrs per day ","null","stimuli/sounds/bleep.wav","null","","","","","","",""
"","","","","","html-keyboard-response","25","2.0.0","53120","p9xsj08x5pv","mus","goldfish"," 21","male","yes","yes","3","1.5 hrs per day ","null","<p style='color:green; font-size:30px;'>Correct!</p>","null","","","","","","",""
"","","","","","html-keyboard-response","26","2.0.0","58100","p9xsj08x5pv","mus","goldfish"," 21","male","yes","yes","3","1.5 hrs per day ","4979","<p>Practice complete. Press any key to begin the real experiment.</p>"," ","","","","","","",""
"","","","","","html-keyboard-response","27","2.0.0","60493","p9xsj08x5pv","mus","goldfish"," 21","male","yes","yes","3","1.5 hrs per day ","2392","<div style=""font-size:30px;"">Press space to start the trial</div>"," ","","","","","","",""
"","","","","","html-keyboard-response","28","2.0.0","60745","p9xsj08x5pv","mus","goldfish"," 21","male","yes","yes","3","1.5 hrs per day ","null","<div style=""font-size:60px;"">+</div>","null","","","","","","",""
"","","","","","audio-keyboard-response","29","2.0.0","61355","p9xsj08x5pv","mus","goldfish"," 21","male","yes","yes","3","1.5 hrs per day ","null","stimuli/sounds/flute_sound_B.wav","null","","","","","","",""
"","","","","","html-keyboard-response","30","2.0.0","62357","p9xsj08x5pv","mus","goldfish"," 21","male","yes","yes","3","1.5 hrs per day ","null","","null","","","","","","",""
"","","","","","image-keyboard-response","31","2.0.0","63928","p9xsj08x5pv","mus","goldfish"," 21","male","yes","yes","3","1.5 hrs per day ","1570","stimuli/pictures/bird_song_1.jpg","0","0","","true","no","sound","stimuli/sounds/flute_sound_B.wav",""
"","","","","","audio-keyboard-response","32","2.0.0","64932","p9xsj08x5pv","mus","goldfish"," 21","male","yes","yes","3","1.5 hrs per day ","null","stimuli/sounds/bleep.wav","null","","","","","","",""
"","","","","","html-keyboard-response","33","2.0.0","70468","p9xsj08x5pv","mus","goldfish"," 21","male","yes","yes","3","1.5 hrs per day ","5433","<div style=""font-size:30px;"">Press space to start the trial</div>"," ","","","","","","",""
"","","","","","html-keyboard-response","34","2.0.0","70720","p9xsj08x5pv","mus","goldfish"," 21","male","yes","yes","3","1.5 hrs per day ","null","<div style=""font-size:60px;"">+</div>","null","","","","","","",""
"","","","","","audio-keyboard-response","35","2.0.0","71323","p9xsj08x5pv","mus","goldfish"," 21","male","yes","yes","3","1.5 hrs per day ","null","stimuli/sounds/phone_label_A.wav","null","","","","","","",""
"","","","","","html-keyboard-response","36","2.0.0","72325","p9xsj08x5pv","mus","goldfish"," 21","male","yes","yes","3","1.5 hrs per day ","null","","null","","","","","","",""
"","","","","","image-keyboard-response","37","2.0.0","73130","p9xsj08x5pv","mus","goldfish"," 21","male","yes","yes","3","1.5 hrs per day ","803","stimuli/pictures/phone_cell_1.jpg","1","1","","true","yes","sound","stimuli/sounds/phone_label_A.wav",""
"","","","","","audio-keyboard-response","38","2.0.0","74132","p9xsj08x5pv","mus","goldfish"," 21","male","yes","yes","3","1.5 hrs per day ","null","stimuli/sounds/bleep.wav","null","","","","","","",""
"","","","","","html-keyboard-response","39","2.0.0","74943","p9xsj08x5pv","mus","goldfish"," 21","male","yes","yes","3","1.5 hrs per day ","708","<div style=""font-size:30px;"">Press space to start the trial</div>"," ","","","","","","",""
"","","","","","html-keyboard-response","40","2.0.0","75195","p9xsj08x5pv","mus","goldfish"," 21","male","yes","yes","3","1.5 hrs per day ","null","<div style=""font-size:60px;"">+</div>","null","","","","","","",""
"","","","","","audio-keyboard-response","41","2.0.0","75797","p9xsj08x5pv","mus","goldfish"," 21","male","yes","yes","3","1.5 hrs per day ","null","stimuli/sounds/drum_label_A.wav","null","","","","","","",""
"","","","","","html-keyboard-response","42","2.0.0","76799","p9xsj08x5pv","mus","goldfish"," 21","male","yes","yes","3","1.5 hrs per day ","null","","null","","","","","","",""
"","","","","","image-keyboard-response","43","2.0.0","77764","p9xsj08x5pv","mus","goldfish"," 21","male","yes","yes","3","1.5 hrs per day ","963","stimuli/pictures/drum_kit_1.jpg","1","1","","true","yes","sound","stimuli/sounds/drum_label_A.wav",""
"","","","","","audio-keyboard-response","44","2.0.0","78767","p9xsj08x5pv","mus","goldfish"," 21","male","yes","yes","3","1.5 hrs per day ","null","stimuli/sounds/bleep.wav","null","","","","","","",""
"","","","","","html-keyboard-response","45","2.0.0","79882","p9xsj08x5pv","mus","goldfish"," 21","male","yes","yes","3","1.5 hrs per day ","1012","<div style=""font-size:30px;"">Press space to start the trial</div>"," ","","","","","","",""
"","","","","","html-keyboard-response","46","2.0.0","80134","p9xsj08x5pv","mus","goldfish"," 21","male","yes","yes","3","1.5 hrs per day ","null","<div style=""font-size:60px;"">+</div>","null","","","","","","",""
"","","","","","audio-keyboard-response","47","2.0.0","80736","p9xsj08x5pv","mus","goldfish"," 21","male","yes","yes","3","1.5 hrs per day ","null","stimuli/sounds/flute_sound_A.wav","null","","","","","","",""
"","","","","","html-keyboard-response","48","2.0.0","81738","p9xsj08x5pv","mus","goldfish"," 21","male","yes","yes","3","1.5 hrs per day ","null","","null","","","","","","",""
"","","","","","image-keyboard-response","49","2.0.0","82103","p9xsj08x5pv","mus","goldfish"," 21","male","yes","yes","3","1.5 hrs per day ","363","stimuli/pictures/flute_metal_1.jpg","1","1","","true","yes","sound","stimuli/sounds/flute_sound_A.wav",""
"","","","","","audio-keyboard-response","50","2.0.0","83106","p9xsj08x5pv","mus","goldfish"," 21","male","yes","yes","3","1.5 hrs per day ","null","stimuli/sounds/bleep.wav","null","","","","","","",""
"","","","","","html-keyboard-response","51","2.0.0","83678","p9xsj08x5pv","mus","goldfish"," 21","male","yes","yes","3","1.5 hrs per day ","470","<div style=""font-size:30px;"">Press space to start the trial</div>"," ","","","","","","",""
"","","","","","html-keyboard-response","52","2.0.0","83930","p9xsj08x5pv","mus","goldfish"," 21","male","yes","yes","3","1.5 hrs per day ","null","<div style=""font-size:60px;"">+</div>","null","","","","","","",""
"","","","","","audio-keyboard-response","53","2.0.0","84533","p9xsj08x5pv","mus","goldfish"," 21","male","yes","yes","3","1.5 hrs per day ","null","stimuli/sounds/drum_sound_A.wav","null","","","","","","",""
"","","","","","html-keyboard-response","54","2.0.0","85536","p9xsj08x5pv","mus","goldfish"," 21","male","yes","yes","3","1.5 hrs per day ","null","","null","","","","","","",""
"","","","","","image-keyboard-response","55","2.0.0","86194","p9xsj08x5pv","mus","goldfish"," 21","male","yes","yes","3","1.5 hrs per day ","656","stimuli/pictures/flute_metal_1.jpg","0","0","","true","no","sound","stimuli/sounds/drum_sound_A.wav",""
"","","","","","audio-keyboard-response","56","2.0.0","87197","p9xsj08x5pv","mus","goldfish"," 21","male","yes","yes","3","1.5 hrs per day ","null","stimuli/sounds/bleep.wav","null","","","","","","",""
"","","","","","html-keyboard-response","57","2.0.0","87928","p9xsj08x5pv","mus","goldfish"," 21","male","yes","yes","3","1.5 hrs per day ","629","<div style=""font-size:30px;"">Press space to start the trial</div>"," ","","","","","","",""
"","","","","","html-keyboard-response","58","2.0.0","88180","p9xsj08x5pv","mus","goldfish"," 21","male","yes","yes","3","1.5 hrs per day ","null","<div style=""font-size:60px;"">+</div>","null","","","","","","",""
"","","","","","audio-keyboard-response","59","2.0.0","88789","p9xsj08x5pv","mus","goldfish"," 21","male","yes","yes","3","1.5 hrs per day ","null","stimuli/sounds/piano_sound_A.wav","null","","","","","","",""
"","","","","","html-keyboard-response","60","2.0.0","89792","p9xsj08x5pv","mus","goldfish"," 21","male","yes","yes","3","1.5 hrs per day ","null","","null","","","","","","",""
"","","","","","image-keyboard-response","61","2.0.0","90276","p9xsj08x5pv","mus","goldfish"," 21","male","yes","yes","3","1.5 hrs per day ","482","stimuli/pictures/piano_grand_1.jpg","1","1","","true","yes","sound","stimuli/sounds/piano_sound_A.wav",""
"","","","","","audio-keyboard-response","62","2.0.0","91279","p9xsj08x5pv","mus","goldfish"," 21","male","yes","yes","3","1.5 hrs per day ","null","stimuli/sounds/bleep.wav","null","","","","","","",""
"","","","","","html-keyboard-response","63","2.0.0","91933","p9xsj08x5pv","mus","goldfish"," 21","male","yes","yes","3","1.5 hrs per day ","552","<div style=""font-size:30px;"">Press space to start the trial</div>"," ","","","","","","",""
"","","","","","html-keyboard-response","64","2.0.0","92184","p9xsj08x5pv","mus","goldfish"," 21","male","yes","yes","3","1.5 hrs per day ","null","<div style=""font-size:60px;"">+</div>","null","","","","","","",""
"","","","","","audio-keyboard-response","65","2.0.0","92811","p9xsj08x5pv","mus","goldfish"," 21","male","yes","yes","3","1.5 hrs per day ","null","stimuli/sounds/piano_label_A.wav","null","","","","","","",""
"","","","","","html-keyboard-response","66","2.0.0","93813","p9xsj08x5pv","mus","goldfish"," 21","male","yes","yes","3","1.5 hrs per day ","null","","null","","","","","","",""
"","","","","","image-keyboard-response","67","2.0.0","94199","p9xsj08x5pv","mus","goldfish"," 21","male","yes","yes","3","1.5 hrs per day ","384","stimuli/pictures/phone_cell_1.jpg","0","0","","true","no","sound","stimuli/sounds/piano_label_A.wav",""
"","","","","","audio-keyboard-response","68","2.0.0","95201","p9xsj08x5pv","mus","goldfish"," 21","male","yes","yes","3","1.5 hrs per day ","null","stimuli/sounds/bleep.wav","null","","","","","","",""
"","","","","","html-keyboard-response","69","2.0.0","96230","p9xsj08x5pv","mus","goldfish"," 21","male","yes","yes","3","1.5 hrs per day ","926","<div style=""font-size:30px;"">Press space to start the trial</div>"," ","","","","","","",""
"","","","","","html-keyboard-response","70","2.0.0","96482","p9xsj08x5pv","mus","goldfish"," 21","male","yes","yes","3","1.5 hrs per day ","null","<div style=""font-size:60px;"">+</div>","null","","","","","","",""
"","","","","","audio-keyboard-response","71","2.0.0","97083","p9xsj08x5pv","mus","goldfish"," 21","male","yes","yes","3","1.5 hrs per day ","null","stimuli/sounds/phone_label_B.wav","null","","","","","","",""
"","","","","","html-keyboard-response","72","2.0.0","98085","p9xsj08x5pv","mus","goldfish"," 21","male","yes","yes","3","1.5 hrs per day ","null","","null","","","","","","",""
"","","","","","image-keyboard-response","73","2.0.0","98796","p9xsj08x5pv","mus","goldfish"," 21","male","yes","yes","3","1.5 hrs per day ","710","stimuli/pictures/flute_metal_1.jpg","1","0","","false","no","sound","stimuli/sounds/phone_label_B.wav",""
"","","","","","audio-keyboard-response","74","2.0.0","99799","p9xsj08x5pv","mus","goldfish"," 21","male","yes","yes","3","1.5 hrs per day ","null","stimuli/sounds/buzz.wav","null","","","","","","",""
"","","","","","html-keyboard-response","75","2.0.0","100511","p9xsj08x5pv","mus","goldfish"," 21","male","yes","yes","3","1.5 hrs per day ","609","<div style=""font-size:30px;"">Press space to start the trial</div>"," ","","","","","","",""
"","","","","","html-keyboard-response","76","2.0.0","100763","p9xsj08x5pv","mus","goldfish"," 21","male","yes","yes","3","1.5 hrs per day ","null","<div style=""font-size:60px;"">+</div>","null","","","","","","",""
"","","","","","audio-keyboard-response","77","2.0.0","101365","p9xsj08x5pv","mus","goldfish"," 21","male","yes","yes","3","1.5 hrs per day ","null","stimuli/sounds/phone_sound_A.wav","null","","","","","","",""
"","","","","","html-keyboard-response","78","2.0.0","102368","p9xsj08x5pv","mus","goldfish"," 21","male","yes","yes","3","1.5 hrs per day ","null","","null","","","","","","",""
"","","","","","image-keyboard-response","79","2.0.0","102926","p9xsj08x5pv","mus","goldfish"," 21","male","yes","yes","3","1.5 hrs per day ","557","stimuli/pictures/bird_hawk_1.jpg","0","0","","true","no","sound","stimuli/sounds/phone_sound_A.wav",""
"","","","","","audio-keyboard-response","80","2.0.0","103929","p9xsj08x5pv","mus","goldfish"," 21","male","yes","yes","3","1.5 hrs per day ","null","stimuli/sounds/bleep.wav","null","","","","","","",""
"","","","","","html-keyboard-response","81","2.0.0","104694","p9xsj08x5pv","mus","goldfish"," 21","male","yes","yes","3","1.5 hrs per day ","663","<div style=""font-size:30px;"">Press space to start the trial</div>"," ","","","","","","",""
"","","","","","html-keyboard-response","82","2.0.0","104947","p9xsj08x5pv","mus","goldfish"," 21","male","yes","yes","3","1.5 hrs per day ","null","<div style=""font-size:60px;"">+</div>","null","","","","","","",""
"","","","","","audio-keyboard-response","83","2.0.0","105552","p9xsj08x5pv","mus","goldfish"," 21","male","yes","yes","3","1.5 hrs per day ","null","stimuli/sounds/piano_sound_A.wav","null","","","","","","",""
"","","","","","html-keyboard-response","84","2.0.0","106555","p9xsj08x5pv","mus","goldfish"," 21","male","yes","yes","3","1.5 hrs per day ","null","","null","","","","","","",""
"","","","","","image-keyboard-response","85","2.0.0","107522","p9xsj08x5pv","mus","goldfish"," 21","male","yes","yes","3","1.5 hrs per day ","965","stimuli/pictures/drum_bongo_1.jpg","0","0","","true","no","sound","stimuli/sounds/piano_sound_A.wav",""
"","","","","","audio-keyboard-response","86","2.0.0","108524","p9xsj08x5pv","mus","goldfish"," 21","male","yes","yes","3","1.5 hrs per day ","null","stimuli/sounds/bleep.wav","null","","","","","","",""
"","","","","","html-keyboard-response","87","2.0.0","109051","p9xsj08x5pv","mus","goldfish"," 21","male","yes","yes","3","1.5 hrs per day ","425","<div style=""font-size:30px;"">Press space to start the trial</div>"," ","","","","","","",""
"","","","","","html-keyboard-response","88","2.0.0","109303","p9xsj08x5pv","mus","goldfish"," 21","male","yes","yes","3","1.5 hrs per day ","null","<div style=""font-size:60px;"">+</div>","null","","","","","","",""
"","","","","","audio-keyboard-response","89","2.0.0","109904","p9xsj08x5pv","mus","goldfish"," 21","male","yes","yes","3","1.5 hrs per day ","null","stimuli/sounds/phone_label_B.wav","null","","","","","","",""
"","","","","","html-keyboard-response","90","2.0.0","110906","p9xsj08x5pv","mus","goldfish"," 21","male","yes","yes","3","1.5 hrs per day ","null","","null","","","","","","",""
"","","","","","image-keyboard-response","91","2.0.0","111498","p9xsj08x5pv","mus","goldfish"," 21","male","yes","yes","3","1.5 hrs per day ","591","stimuli/pictures/flute_wooden_2.jpg","0","0","","true","no","sound","stimuli/sounds/phone_label_B.wav",""
"","","","","","audio-keyboard-response","92","2.0.0","112501","p9xsj08x5pv","mus","goldfish"," 21","male","yes","yes","3","1.5 hrs per day ","null","stimuli/sounds/bleep.wav","null","","","","","","",""
"","","","","","html-keyboard-response","93","2.0.0","112884","p9xsj08x5pv","mus","goldfish"," 21","male","yes","yes","3","1.5 hrs per day ","281","<div style=""font-size:30px;"">Press space to start the trial</div>"," ","","","","","","",""
"","","","","","html-keyboard-response","94","2.0.0","113137","p9xsj08x5pv","mus","goldfish"," 21","male","yes","yes","3","1.5 hrs per day ","null","<div style=""font-size:60px;"">+</div>","null","","","","","","",""
"","","","","","audio-keyboard-response","95","2.0.0","113739","p9xsj08x5pv","mus","goldfish"," 21","male","yes","yes","3","1.5 hrs per day ","null","stimuli/sounds/flute_label_A.wav","null","","","","","","",""
"","","","","","html-keyboard-response","96","2.0.0","114741","p9xsj08x5pv","mus","goldfish"," 21","male","yes","yes","3","1.5 hrs per day ","null","","null","","","","","","",""
"","","","","","image-keyboard-response","97","2.0.0","115118","p9xsj08x5pv","mus","goldfish"," 21","male","yes","yes","3","1.5 hrs per day ","375","stimuli/pictures/flute_metal_1.jpg","1","1","","true","yes","sound","stimuli/sounds/flute_label_A.wav",""
"","","","","","audio-keyboard-response","98","2.0.0","116121","p9xsj08x5pv","mus","goldfish"," 21","male","yes","yes","3","1.5 hrs per day ","null","stimuli/sounds/bleep.wav","null","","","","","","",""
"","","","","","html-keyboard-response","99","2.0.0","116721","p9xsj08x5pv","mus","goldfish"," 21","male","yes","yes","3","1.5 hrs per day ","498","<div style=""font-size:30px;"">Press space to start the trial</div>"," ","","","","","","",""
"","","","","","html-keyboard-response","100","2.0.0","116974","p9xsj08x5pv","mus","goldfish"," 21","male","yes","yes","3","1.5 hrs per day ","null","<div style=""font-size:60px;"">+</div>","null","","","","","","",""
"","","","","","audio-keyboard-response","101","2.0.0","117573","p9xsj08x5pv","mus","goldfish"," 21","male","yes","yes","3","1.5 hrs per day ","null","stimuli/sounds/phone_sound_A.wav","null","","","","","","",""
"","","","","","html-keyboard-response","102","2.0.0","118576","p9xsj08x5pv","mus","goldfish"," 21","male","yes","yes","3","1.5 hrs per day ","null","","null","","","","","","",""
"","","","","","image-keyboard-response","103","2.0.0","119327","p9xsj08x5pv","mus","goldfish"," 21","male","yes","yes","3","1.5 hrs per day ","750","stimuli/pictures/phone_cell_2.jpg","1","1","","true","yes","sound","stimuli/sounds/phone_sound_A.wav",""
"","","","","","audio-keyboard-response","104","2.0.0","120331","p9xsj08x5pv","mus","goldfish"," 21","male","yes","yes","3","1.5 hrs per day ","null","stimuli/sounds/bleep.wav","null","","","","","","",""
"","","","","","html-keyboard-response","105","2.0.0","120912","p9xsj08x5pv","mus","goldfish"," 21","male","yes","yes","3","1.5 hrs per day ","480","<div style=""font-size:30px;"">Press space to start the trial</div>"," ","","","","","","",""
"","","","","","html-keyboard-response","106","2.0.0","121165","p9xsj08x5pv","mus","goldfish"," 21","male","yes","yes","3","1.5 hrs per day ","null","<div style=""font-size:60px;"">+</div>","null","","","","","","",""
"","","","","","audio-keyboard-response","107","2.0.0","121765","p9xsj08x5pv","mus","goldfish"," 21","male","yes","yes","3","1.5 hrs per day ","null","stimuli/sounds/drum_sound_B.wav","null","","","","","","",""
"","","","","","html-keyboard-response","108","2.0.0","122767","p9xsj08x5pv","mus","goldfish"," 21","male","yes","yes","3","1.5 hrs per day ","null","","null","","","","","","",""
"","","","","","image-keyboard-response","109","2.0.0","123269","p9xsj08x5pv","mus","goldfish"," 21","male","yes","yes","3","1.5 hrs per day ","500","stimuli/pictures/phone_rotary_1.jpg","0","0","","true","no","sound","stimuli/sounds/drum_sound_B.wav",""
"","","","","","audio-keyboard-response","110","2.0.0","124271","p9xsj08x5pv","mus","goldfish"," 21","male","yes","yes","3","1.5 hrs per day ","null","stimuli/sounds/bleep.wav","null","","","","","","",""
"","","","","","html-keyboard-response","111","2.0.0","124649","p9xsj08x5pv","mus","goldfish"," 21","male","yes","yes","3","1.5 hrs per day ","276","<div style=""font-size:30px;"">Press space to start the trial</div>"," ","","","","","","",""
"","","","","","html-keyboard-response","112","2.0.0","124901","p9xsj08x5pv","mus","goldfish"," 21","male","yes","yes","3","1.5 hrs per day ","null","<div style=""font-size:60px;"">+</div>","null","","","","","","",""
"","","","","","audio-keyboard-response","113","2.0.0","125509","p9xsj08x5pv","mus","goldfish"," 21","male","yes","yes","3","1.5 hrs per day ","null","stimuli/sounds/piano_sound_A.wav","null","","","","","","",""
"","","","","","html-keyboard-response","114","2.0.0","126512","p9xsj08x5pv","mus","goldfish"," 21","male","yes","yes","3","1.5 hrs per day ","null","","null","","","","","","",""
"","","","","","image-keyboard-response","115","2.0.0","127372","p9xsj08x5pv","mus","goldfish"," 21","male","yes","yes","3","1.5 hrs per day ","859","stimuli/pictures/drum_bongo_2.jpg","0","0","","true","no","sound","stimuli/sounds/piano_sound_A.wav",""
"","","","","","audio-keyboard-response","116","2.0.0","128375","p9xsj08x5pv","mus","goldfish"," 21","male","yes","yes","3","1.5 hrs per day ","null","stimuli/sounds/bleep.wav","null","","","","","","",""
"","","","","","html-keyboard-response","117","2.0.0","128820","p9xsj08x5pv","mus","goldfish"," 21","male","yes","yes","3","1.5 hrs per day ","342","<div style=""font-size:30px;"">Press space to start the trial</div>"," ","","","","","","",""
"","","","","","html-keyboard-response","118","2.0.0","129072","p9xsj08x5pv","mus","goldfish"," 21","male","yes","yes","3","1.5 hrs per day ","null","<div style=""font-size:60px;"">+</div>","null","","","","","","",""
"","","","","","audio-keyboard-response","119","2.0.0","129675","p9xsj08x5pv","mus","goldfish"," 21","male","yes","yes","3","1.5 hrs per day ","null","stimuli/sounds/bird_sound_B.wav","null","","","","","","",""
"","","","","","html-keyboard-response","120","2.0.0","130676","p9xsj08x5pv","mus","goldfish"," 21","male","yes","yes","3","1.5 hrs per day ","null","","null","","","","","","",""
"","","","","","image-keyboard-response","121","2.0.0","131219","p9xsj08x5pv","mus","goldfish"," 21","male","yes","yes","3","1.5 hrs per day ","542","stimuli/pictures/drum_kit_2.jpg","0","0","","true","no","sound","stimuli/sounds/bird_sound_B.wav",""
"","","","","","audio-keyboard-response","122","2.0.0","132222","p9xsj08x5pv","mus","goldfish"," 21","male","yes","yes","3","1.5 hrs per day ","null","stimuli/sounds/bleep.wav","null","","","","","","",""
"","","","","","html-keyboard-response","123","2.0.0","132663","p9xsj08x5pv","mus","goldfish"," 21","male","yes","yes","3","1.5 hrs per day ","340","<div style=""font-size:30px;"">Press space to start the trial</div>"," ","","","","","","",""
"","","","","","html-keyboard-response","124","2.0.0","132916","p9xsj08x5pv","mus","goldfish"," 21","male","yes","yes","3","1.5 hrs per day ","null","<div style=""font-size:60px;"">+</div>","null","","","","","","",""
"","","","","","audio-keyboard-response","125","2.0.0","133515","p9xsj08x5pv","mus","goldfish"," 21","male","yes","yes","3","1.5 hrs per day ","null","stimuli/sounds/bird_sound_A.wav","null","","","","","","",""
"","","","","","html-keyboard-response","126","2.0.0","134517","p9xsj08x5pv","mus","goldfish"," 21","male","yes","yes","3","1.5 hrs per day ","null","","null","","","","","","",""
"","","","","","image-keyboard-response","127","2.0.0","135056","p9xsj08x5pv","mus","goldfish"," 21","male","yes","yes","3","1.5 hrs per day ","537","stimuli/pictures/piano_electric_2.jpg","0","0","","true","no","sound","stimuli/sounds/bird_sound_A.wav",""
"","","","","","audio-keyboard-response","128","2.0.0","136058","p9xsj08x5pv","mus","goldfish"," 21","male","yes","yes","3","1.5 hrs per day ","null","stimuli/sounds/bleep.wav","null","","","","","","",""
"","","","","","html-keyboard-response","129","2.0.0","136432","p9xsj08x5pv","mus","goldfish"," 21","male","yes","yes","3","1.5 hrs per day ","273","<div style=""font-size:30px;"">Press space to start the trial</div>"," ","","","","","","",""
"","","","","","html-keyboard-response","130","2.0.0","136684","p9xsj08x5pv","mus","goldfish"," 21","male","yes","yes","3","1.5 hrs per day ","null","<div style=""font-size:60px;"">+</div>","null","","","","","","",""
"","","","","","audio-keyboard-response","131","2.0.0","137291","p9xsj08x5pv","mus","goldfish"," 21","male","yes","yes","3","1.5 hrs per day ","null","stimuli/sounds/flute_label_B.wav","null","","","","","","",""
"","","","","","html-keyboard-response","132","2.0.0","138293","p9xsj08x5pv","mus","goldfish"," 21","male","yes","yes","3","1.5 hrs per day ","null","","null","","","","","","",""
"","","","","","image-keyboard-response","133","2.0.0","138712","p9xsj08x5pv","mus","goldfish"," 21","male","yes","yes","3","1.5 hrs per day ","417","stimuli/pictures/flute_wooden_2.jpg","0","1","","false","yes","sound","stimuli/sounds/flute_label_B.wav",""
"","","","","","audio-keyboard-response","134","2.0.0","139715","p9xsj08x5pv","mus","goldfish"," 21","male","yes","yes","3","1.5 hrs per day ","null","stimuli/sounds/buzz.wav","null","","","","","","",""
"","","","","","html-keyboard-response","135","2.0.0","140416","p9xsj08x5pv","mus","goldfish"," 21","male","yes","yes","3","1.5 hrs per day ","599","<div style=""font-size:30px;"">Press space to start the trial</div>"," ","","","","","","",""
"","","","","","html-keyboard-response","136","2.0.0","140668","p9xsj08x5pv","mus","goldfish"," 21","male","yes","yes","3","1.5 hrs per day ","null","<div style=""font-size:60px;"">+</div>","null","","","","","","",""
"","","","","","audio-keyboard-response","137","2.0.0","141269","p9xsj08x5pv","mus","goldfish"," 21","male","yes","yes","3","1.5 hrs per day ","null","stimuli/sounds/bird_sound_B.wav","null","","","","","","",""
"","","","","","html-keyboard-response","138","2.0.0","142271","p9xsj08x5pv","mus","goldfish"," 21","male","yes","yes","3","1.5 hrs per day ","null","","null","","","","","","",""
"","","","","","image-keyboard-response","139","2.0.0","142880","p9xsj08x5pv","mus","goldfish"," 21","male","yes","yes","3","1.5 hrs per day ","607","stimuli/pictures/drum_bongo_2.jpg","0","0","","true","no","sound","stimuli/sounds/bird_sound_B.wav",""
"","","","","","audio-keyboard-response","140","2.0.0","143883","p9xsj08x5pv","mus","goldfish"," 21","male","yes","yes","3","1.5 hrs per day ","null","stimuli/sounds/bleep.wav","null","","","","","","",""
"","","","","","html-keyboard-response","141","2.0.0","144414","p9xsj08x5pv","mus","goldfish"," 21","male","yes","yes","3","1.5 hrs per day ","429","<div style=""font-size:30px;"">Press space to start the trial</div>"," ","","","","","","",""
"","","","","","html-keyboard-response","142","2.0.0","144666","p9xsj08x5pv","mus","goldfish"," 21","male","yes","yes","3","1.5 hrs per day ","null","<div style=""font-size:60px;"">+</div>","null","","","","","","",""
"","","","","","audio-keyboard-response","143","2.0.0","145270","p9xsj08x5pv","mus","goldfish"," 21","male","yes","yes","3","1.5 hrs per day ","null","stimuli/sounds/bird_sound_A.wav","null","","","","","","",""
"","","","","","html-keyboard-response","144","2.0.0","146278","p9xsj08x5pv","mus","goldfish"," 21","male","yes","yes","3","1.5 hrs per day ","null","","null","","","","","","",""
"","","","","","image-keyboard-response","145","2.0.0","146675","p9xsj08x5pv","mus","goldfish"," 21","male","yes","yes","3","1.5 hrs per day ","395","stimuli/pictures/bird_hawk_1.jpg","1","1","","true","yes","sound","stimuli/sounds/bird_sound_A.wav",""
"","","","","","audio-keyboard-response","146","2.0.0","147678","p9xsj08x5pv","mus","goldfish"," 21","male","yes","yes","3","1.5 hrs per day ","null","stimuli/sounds/bleep.wav","null","","","","","","",""
"","","","","","html-keyboard-response","147","2.0.0","150144","p9xsj08x5pv","mus","goldfish"," 21","male","yes","yes","3","1.5 hrs per day ","2364","<p>You have completed a block. Press R when you are ready to continue</p>","r","","","","","","",""
"","","","","","html-keyboard-response","148","2.0.0","150910","p9xsj08x5pv","mus","goldfish"," 21","male","yes","yes","3","1.5 hrs per day ","765","<div style=""font-size:30px;"">Press space to start the trial</div>"," ","","","","","","",""
"","","","","","html-keyboard-response","149","2.0.0","151163","p9xsj08x5pv","mus","goldfish"," 21","male","yes","yes","3","1.5 hrs per day ","null","<div style=""font-size:60px;"">+</div>","null","","","","","","",""
"","","","","","audio-keyboard-response","150","2.0.0","151766","p9xsj08x5pv","mus","goldfish"," 21","male","yes","yes","3","1.5 hrs per day ","null","stimuli/sounds/drum_label_A.wav","null","","","","","","",""
"","","","","","html-keyboard-response","151","2.0.0","152767","p9xsj08x5pv","mus","goldfish"," 21","male","yes","yes","3","1.5 hrs per day ","null","","null","","","","","","",""
"","","","","","image-keyboard-response","152","2.0.0","153347","p9xsj08x5pv","mus","goldfish"," 21","male","yes","yes","3","1.5 hrs per day ","578","stimuli/pictures/drum_bongo_1.jpg","1","1","","true","yes","sound","stimuli/sounds/drum_label_A.wav",""
"","","","","","audio-keyboard-response","153","2.0.0","154350","p9xsj08x5pv","mus","goldfish"," 21","male","yes","yes","3","1.5 hrs per day ","null","stimuli/sounds/bleep.wav","null","","","","","","",""
"","","","","","html-keyboard-response","154","2.0.0","155022","p9xsj08x5pv","mus","goldfish"," 21","male","yes","yes","3","1.5 hrs per day ","570","<div style=""font-size:30px;"">Press space to start the trial</div>"," ","","","","","","",""
"","","","","","html-keyboard-response","155","2.0.0","155275","p9xsj08x5pv","mus","goldfish"," 21","male","yes","yes","3","1.5 hrs per day ","null","<div style=""font-size:60px;"">+</div>","null","","","","","","",""
"","","","","","audio-keyboard-response","156","2.0.0","155878","p9xsj08x5pv","mus","goldfish"," 21","male","yes","yes","3","1.5 hrs per day ","null","stimuli/sounds/flute_label_A.wav","null","","","","","","",""
"","","","","","html-keyboard-response","157","2.0.0","156880","p9xsj08x5pv","mus","goldfish"," 21","male","yes","yes","3","1.5 hrs per day ","null","","null","","","","","","",""
"","","","","","image-keyboard-response","158","2.0.0","157497","p9xsj08x5pv","mus","goldfish"," 21","male","yes","yes","3","1.5 hrs per day ","616","stimuli/pictures/piano_grand_2.jpg","0","0","","true","no","sound","stimuli/sounds/flute_label_A.wav",""
"","","","","","audio-keyboard-response","159","2.0.0","158500","p9xsj08x5pv","mus","goldfish"," 21","male","yes","yes","3","1.5 hrs per day ","null","stimuli/sounds/bleep.wav","null","","","","","","",""
"","","","","","html-keyboard-response","160","2.0.0","159137","p9xsj08x5pv","mus","goldfish"," 21","male","yes","yes","3","1.5 hrs per day ","535","<div style=""font-size:30px;"">Press space to start the trial</div>"," ","","","","","","",""
"","","","","","html-keyboard-response","161","2.0.0","159390","p9xsj08x5pv","mus","goldfish"," 21","male","yes","yes","3","1.5 hrs per day ","null","<div style=""font-size:60px;"">+</div>","null","","","","","","",""
"","","","","","audio-keyboard-response","162","2.0.0","159990","p9xsj08x5pv","mus","goldfish"," 21","male","yes","yes","3","1.5 hrs per day ","null","stimuli/sounds/drum_sound_B.wav","null","","","","","","",""
"","","","","","html-keyboard-response","163","2.0.0","160992","p9xsj08x5pv","mus","goldfish"," 21","male","yes","yes","3","1.5 hrs per day ","null","","null","","","","","","",""
"","","","","","image-keyboard-response","164","2.0.0","161746","p9xsj08x5pv","mus","goldfish"," 21","male","yes","yes","3","1.5 hrs per day ","752","stimuli/pictures/drum_bongo_1.jpg","1","1","","true","yes","sound","stimuli/sounds/drum_sound_B.wav",""
"","","","","","audio-keyboard-response","165","2.0.0","162748","p9xsj08x5pv","mus","goldfish"," 21","male","yes","yes","3","1.5 hrs per day ","null","stimuli/sounds/bleep.wav","null","","","","","","",""
"","","","","","html-keyboard-response","166","2.0.0","163487","p9xsj08x5pv","mus","goldfish"," 21","male","yes","yes","3","1.5 hrs per day ","636","<div style=""font-size:30px;"">Press space to start the trial</div>"," ","","","","","","",""
"","","","","","html-keyboard-response","167","2.0.0","163739","p9xsj08x5pv","mus","goldfish"," 21","male","yes","yes","3","1.5 hrs per day ","null","<div style=""font-size:60px;"">+</div>","null","","","","","","",""
"","","","","","audio-keyboard-response","168","2.0.0","164342","p9xsj08x5pv","mus","goldfish"," 21","male","yes","yes","3","1.5 hrs per day ","null","stimuli/sounds/drum_label_B.wav","null","","","","","","",""
"","","","","","html-keyboard-response","169","2.0.0","165344","p9xsj08x5pv","mus","goldfish"," 21","male","yes","yes","3","1.5 hrs per day ","null","","null","","","","","","",""
"","","","","","image-keyboard-response","170","2.0.0","165853","p9xsj08x5pv","mus","goldfish"," 21","male","yes","yes","3","1.5 hrs per day ","508","stimuli/pictures/piano_grand_2.jpg","0","0","","true","no","sound","stimuli/sounds/drum_label_B.wav",""
"","","","","","audio-keyboard-response","171","2.0.0","166856","p9xsj08x5pv","mus","goldfish"," 21","male","yes","yes","3","1.5 hrs per day ","null","stimuli/sounds/bleep.wav","null","","","","","","",""
"","","","","","html-keyboard-response","172","2.0.0","167539","p9xsj08x5pv","mus","goldfish"," 21","male","yes","yes","3","1.5 hrs per day ","581","<div style=""font-size:30px;"">Press space to start the trial</div>"," ","","","","","","",""
"","","","","","html-keyboard-response","173","2.0.0","167792","p9xsj08x5pv","mus","goldfish"," 21","male","yes","yes","3","1.5 hrs per day ","null","<div style=""font-size:60px;"">+</div>","null","","","","","","",""
"","","","","","audio-keyboard-response","174","2.0.0","168400","p9xsj08x5pv","mus","goldfish"," 21","male","yes","yes","3","1.5 hrs per day ","null","stimuli/sounds/piano_sound_A.wav","null","","","","","","",""
"","","","","","html-keyboard-response","175","2.0.0","169402","p9xsj08x5pv","mus","goldfish"," 21","male","yes","yes","3","1.5 hrs per day ","null","","null","","","","","","",""
"","","","","","image-keyboard-response","176","2.0.0","169885","p9xsj08x5pv","mus","goldfish"," 21","male","yes","yes","3","1.5 hrs per day ","482","stimuli/pictures/piano_electric_2.jpg","1","1","","true","no","sound","stimuli/sounds/piano_sound_A.wav",""
"","","","","","audio-keyboard-response","177","2.0.0","170887","p9xsj08x5pv","mus","goldfish"," 21","male","yes","yes","3","1.5 hrs per day ","null","stimuli/sounds/bleep.wav","null","","","","","","",""
"","","","","","html-keyboard-response","178","2.0.0","171567","p9xsj08x5pv","mus","goldfish"," 21","male","yes","yes","3","1.5 hrs per day ","577","<div style=""font-size:30px;"">Press space to start the trial</div>"," ","","","","","","",""
"","","","","","html-keyboard-response","179","2.0.0","171818","p9xsj08x5pv","mus","goldfish"," 21","male","yes","yes","3","1.5 hrs per day ","null","<div style=""font-size:60px;"">+</div>","null","","","","","","",""
"","","","","","audio-keyboard-response","180","2.0.0","172448","p9xsj08x5pv","mus","goldfish"," 21","male","yes","yes","3","1.5 hrs per day ","null","stimuli/sounds/piano_label_A.wav","null","","","","","","",""
"","","","","","html-keyboard-response","181","2.0.0","173450","p9xsj08x5pv","mus","goldfish"," 21","male","yes","yes","3","1.5 hrs per day ","null","","null","","","","","","",""
"","","","","","image-keyboard-response","182","2.0.0","173888","p9xsj08x5pv","mus","goldfish"," 21","male","yes","yes","3","1.5 hrs per day ","436","stimuli/pictures/piano_electric_1.jpg","1","1","","true","yes","sound","stimuli/sounds/piano_label_A.wav",""
"","","","","","audio-keyboard-response","183","2.0.0","174891","p9xsj08x5pv","mus","goldfish"," 21","male","yes","yes","3","1.5 hrs per day ","null","stimuli/sounds/bleep.wav","null","","","","","","",""
"","","","","","html-keyboard-response","184","2.0.0","175470","p9xsj08x5pv","mus","goldfish"," 21","male","yes","yes","3","1.5 hrs per day ","476","<div style=""font-size:30px;"">Press space to start the trial</div>"," ","","","","","","",""
"","","","","","html-keyboard-response","185","2.0.0","175722","p9xsj08x5pv","mus","goldfish"," 21","male","yes","yes","3","1.5 hrs per day ","null","<div style=""font-size:60px;"">+</div>","null","","","","","","",""
"","","","","","audio-keyboard-response","186","2.0.0","176326","p9xsj08x5pv","mus","goldfish"," 21","male","yes","yes","3","1.5 hrs per day ","null","stimuli/sounds/drum_label_B.wav","null","","","","","","",""
"","","","","","html-keyboard-response","187","2.0.0","177328","p9xsj08x5pv","mus","goldfish"," 21","male","yes","yes","3","1.5 hrs per day ","null","","null","","","","","","",""
"","","","","","image-keyboard-response","188","2.0.0","177846","p9xsj08x5pv","mus","goldfish"," 21","male","yes","yes","3","1.5 hrs per day ","516","stimuli/pictures/piano_grand_1.jpg","1","0","","false","no","sound","stimuli/sounds/drum_label_B.wav",""
"","","","","","audio-keyboard-response","189","2.0.0","178847","p9xsj08x5pv","mus","goldfish"," 21","male","yes","yes","3","1.5 hrs per day ","null","stimuli/sounds/buzz.wav","null","","","","","","",""
"","","","","","html-keyboard-response","190","2.0.0","179449","p9xsj08x5pv","mus","goldfish"," 21","male","yes","yes","3","1.5 hrs per day ","500","<div style=""font-size:30px;"">Press space to start the trial</div>"," ","","","","","","",""
"","","","","","html-keyboard-response","191","2.0.0","179701","p9xsj08x5pv","mus","goldfish"," 21","male","yes","yes","3","1.5 hrs per day ","null","<div style=""font-size:60px;"">+</div>","null","","","","","","",""
"","","","","","audio-keyboard-response","192","2.0.0","180304","p9xsj08x5pv","mus","goldfish"," 21","male","yes","yes","3","1.5 hrs per day ","null","stimuli/sounds/phone_label_B.wav","null","","","","","","",""
"","","","","","html-keyboard-response","193","2.0.0","181307","p9xsj08x5pv","mus","goldfish"," 21","male","yes","yes","3","1.5 hrs per day ","null","","null","","","","","","",""
"","","","","","image-keyboard-response","194","2.0.0","181717","p9xsj08x5pv","mus","goldfish"," 21","male","yes","yes","3","1.5 hrs per day ","408","stimuli/pictures/phone_cell_2.jpg","1","1","","true","yes","sound","stimuli/sounds/phone_label_B.wav",""
"","","","","","audio-keyboard-response","195","2.0.0","182720","p9xsj08x5pv","mus","goldfish"," 21","male","yes","yes","3","1.5 hrs per day ","null","stimuli/sounds/bleep.wav","null","","","","","","",""
"","","","","","html-keyboard-response","196","2.0.0","183478","p9xsj08x5pv","mus","goldfish"," 21","male","yes","yes","3","1.5 hrs per day ","657","<div style=""font-size:30px;"">Press space to start the trial</div>"," ","","","","","","",""
"","","","","","html-keyboard-response","197","2.0.0","183731","p9xsj08x5pv","mus","goldfish"," 21","male","yes","yes","3","1.5 hrs per day ","null","<div style=""font-size:60px;"">+</div>","null","","","","","","",""
"","","","","","audio-keyboard-response","198","2.0.0","184336","p9xsj08x5pv","mus","goldfish"," 21","male","yes","yes","3","1.5 hrs per day ","null","stimuli/sounds/flute_label_B.wav","null","","","","","","",""
"","","","","","html-keyboard-response","199","2.0.0","185338","p9xsj08x5pv","mus","goldfish"," 21","male","yes","yes","3","1.5 hrs per day ","null","","null","","","","","","",""
"","","","","","image-keyboard-response","200","2.0.0","185806","p9xsj08x5pv","mus","goldfish"," 21","male","yes","yes","3","1.5 hrs per day ","466","stimuli/pictures/flute_metal_1.jpg","0","1","","false","yes","sound","stimuli/sounds/flute_label_B.wav",""
"","","","","","audio-keyboard-response","201","2.0.0","186809","p9xsj08x5pv","mus","goldfish"," 21","male","yes","yes","3","1.5 hrs per day ","null","stimuli/sounds/buzz.wav","null","","","","","","",""
"","","","","","html-keyboard-response","202","2.0.0","187410","p9xsj08x5pv","mus","goldfish"," 21","male","yes","yes","3","1.5 hrs per day ","499","<div style=""font-size:30px;"">Press space to start the trial</div>"," ","","","","","","",""
"","","","","","html-keyboard-response","203","2.0.0","187663","p9xsj08x5pv","mus","goldfish"," 21","male","yes","yes","3","1.5 hrs per day ","null","<div style=""font-size:60px;"">+</div>","null","","","","","","",""
"","","","","","audio-keyboard-response","204","2.0.0","188262","p9xsj08x5pv","mus","goldfish"," 21","male","yes","yes","3","1.5 hrs per day ","null","stimuli/sounds/drum_sound_A.wav","null","","","","","","",""
"","","","","","html-keyboard-response","205","2.0.0","189264","p9xsj08x5pv","mus","goldfish"," 21","male","yes","yes","3","1.5 hrs per day ","null","","null","","","","","","",""
"","","","","","image-keyboard-response","206","2.0.0","189714","p9xsj08x5pv","mus","goldfish"," 21","male","yes","yes","3","1.5 hrs per day ","448","stimuli/pictures/drum_bongo_2.jpg","1","1","","true","no","sound","stimuli/sounds/drum_sound_A.wav",""
"","","","","","audio-keyboard-response","207","2.0.0","190717","p9xsj08x5pv","mus","goldfish"," 21","male","yes","yes","3","1.5 hrs per day ","null","stimuli/sounds/bleep.wav","null","","","","","","",""
"","","","","","html-keyboard-response","208","2.0.0","191397","p9xsj08x5pv","mus","goldfish"," 21","male","yes","yes","3","1.5 hrs per day ","579","<div style=""font-size:30px;"">Press space to start the trial</div>"," ","","","","","","",""
"","","","","","html-keyboard-response","209","2.0.0","191650","p9xsj08x5pv","mus","goldfish"," 21","male","yes","yes","3","1.5 hrs per day ","null","<div style=""font-size:60px;"">+</div>","null","","","","","","",""
"","","","","","audio-keyboard-response","210","2.0.0","192256","p9xsj08x5pv","mus","goldfish"," 21","male","yes","yes","3","1.5 hrs per day ","null","stimuli/sounds/piano_sound_B.wav","null","","","","","","",""
"","","","","","html-keyboard-response","211","2.0.0","193259","p9xsj08x5pv","mus","goldfish"," 21","male","yes","yes","3","1.5 hrs per day ","null","","null","","","","","","",""
"","","","","","image-keyboard-response","212","2.0.0","197092","p9xsj08x5pv","mus","goldfish"," 21","male","yes","yes","3","1.5 hrs per day ","3831","stimuli/pictures/piano_electric_1.jpg","1","1","","true","yes","sound","stimuli/sounds/piano_sound_B.wav",""
"","","","","","audio-keyboard-response","213","2.0.0","198095","p9xsj08x5pv","mus","goldfish"," 21","male","yes","yes","3","1.5 hrs per day ","null","stimuli/sounds/bleep.wav","null","","","","","","",""
"","","","","","html-keyboard-response","214","2.0.0","198692","p9xsj08x5pv","mus","goldfish"," 21","male","yes","yes","3","1.5 hrs per day ","495","<div style=""font-size:30px;"">Press space to start the trial</div>"," ","","","","","","",""
"","","","","","html-keyboard-response","215","2.0.0","198944","p9xsj08x5pv","mus","goldfish"," 21","male","yes","yes","3","1.5 hrs per day ","null","<div style=""font-size:60px;"">+</div>","null","","","","","","",""
"","","","","","audio-keyboard-response","216","2.0.0","199552","p9xsj08x5pv","mus","goldfish"," 21","male","yes","yes","3","1.5 hrs per day ","null","stimuli/sounds/piano_sound_B.wav","null","","","","","","",""
"","","","","","html-keyboard-response","217","2.0.0","200555","p9xsj08x5pv","mus","goldfish"," 21","male","yes","yes","3","1.5 hrs per day ","null","","null","","","","","","",""
"","","","","","image-keyboard-response","218","2.0.0","201243","p9xsj08x5pv","mus","goldfish"," 21","male","yes","yes","3","1.5 hrs per day ","686","stimuli/pictures/flute_metal_1.jpg","0","0","","true","no","sound","stimuli/sounds/piano_sound_B.wav",""
"","","","","","audio-keyboard-response","219","2.0.0","202246","p9xsj08x5pv","mus","goldfish"," 21","male","yes","yes","3","1.5 hrs per day ","null","stimuli/sounds/bleep.wav","null","","","","","","",""
"","","","","","html-keyboard-response","220","2.0.0","202824","p9xsj08x5pv","mus","goldfish"," 21","male","yes","yes","3","1.5 hrs per day ","476","<div style=""font-size:30px;"">Press space to start the trial</div>"," ","","","","","","",""
"","","","","","html-keyboard-response","221","2.0.0","203076","p9xsj08x5pv","mus","goldfish"," 21","male","yes","yes","3","1.5 hrs per day ","null","<div style=""font-size:60px;"">+</div>","null","","","","","","",""
"","","","","","audio-keyboard-response","222","2.0.0","203675","p9xsj08x5pv","mus","goldfish"," 21","male","yes","yes","3","1.5 hrs per day ","null","stimuli/sounds/piano_label_B.wav","null","","","","","","",""
"","","","","","html-keyboard-response","223","2.0.0","204676","p9xsj08x5pv","mus","goldfish"," 21","male","yes","yes","3","1.5 hrs per day ","null","","null","","","","","","",""
"","","","","","image-keyboard-response","224","2.0.0","205317","p9xsj08x5pv","mus","goldfish"," 21","male","yes","yes","3","1.5 hrs per day ","640","stimuli/pictures/piano_electric_2.jpg","1","1","","true","yes","sound","stimuli/sounds/piano_label_B.wav",""
"","","","","","audio-keyboard-response","225","2.0.0","206320","p9xsj08x5pv","mus","goldfish"," 21","male","yes","yes","3","1.5 hrs per day ","null","stimuli/sounds/bleep.wav","null","","","","","","",""
"","","","","","html-keyboard-response","226","2.0.0","207064","p9xsj08x5pv","mus","goldfish"," 21","male","yes","yes","3","1.5 hrs per day ","641","<div style=""font-size:30px;"">Press space to start the trial</div>"," ","","","","","","",""
"","","","","","html-keyboard-response","227","2.0.0","207316","p9xsj08x5pv","mus","goldfish"," 21","male","yes","yes","3","1.5 hrs per day ","null","<div style=""font-size:60px;"">+</div>","null","","","","","","",""
"","","","","","audio-keyboard-response","228","2.0.0","207915","p9xsj08x5pv","mus","goldfish"," 21","male","yes","yes","3","1.5 hrs per day ","null","stimuli/sounds/drum_sound_A.wav","null","","","","","","",""
"","","","","","html-keyboard-response","229","2.0.0","208918","p9xsj08x5pv","mus","goldfish"," 21","male","yes","yes","3","1.5 hrs per day ","null","","null","","","","","","",""
"","","","","","image-keyboard-response","230","2.0.0","210371","p9xsj08x5pv","mus","goldfish"," 21","male","yes","yes","3","1.5 hrs per day ","1451","stimuli/pictures/drum_kit_1.jpg","1","1","","true","yes","sound","stimuli/sounds/drum_sound_A.wav",""
"","","","","","audio-keyboard-response","231","2.0.0","211373","p9xsj08x5pv","mus","goldfish"," 21","male","yes","yes","3","1.5 hrs per day ","null","stimuli/sounds/bleep.wav","null","","","","","","",""
"","","","","","html-keyboard-response","232","2.0.0","213896","p9xsj08x5pv","mus","goldfish"," 21","male","yes","yes","3","1.5 hrs per day ","2420","<div style=""font-size:30px;"">Press space to start the trial</div>"," ","","","","","","",""
"","","","","","html-keyboard-response","233","2.0.0","214148","p9xsj08x5pv","mus","goldfish"," 21","male","yes","yes","3","1.5 hrs per day ","null","<div style=""font-size:60px;"">+</div>","null","","","","","","",""
"","","","","","audio-keyboard-response","234","2.0.0","214747","p9xsj08x5pv","mus","goldfish"," 21","male","yes","yes","3","1.5 hrs per day ","null","stimuli/sounds/bird_sound_B.wav","null","","","","","","",""
"","","","","","html-keyboard-response","235","2.0.0","215749","p9xsj08x5pv","mus","goldfish"," 21","male","yes","yes","3","1.5 hrs per day ","null","","null","","","","","","",""
"","","","","","image-keyboard-response","236","2.0.0","216369","p9xsj08x5pv","mus","goldfish"," 21","male","yes","yes","3","1.5 hrs per day ","618","stimuli/pictures/bird_hawk_1.jpg","1","1","","true","no","sound","stimuli/sounds/bird_sound_B.wav",""
"","","","","","audio-keyboard-response","237","2.0.0","217371","p9xsj08x5pv","mus","goldfish"," 21","male","yes","yes","3","1.5 hrs per day ","null","stimuli/sounds/bleep.wav","null","","","","","","",""
"","","","","","html-keyboard-response","238","2.0.0","217822","p9xsj08x5pv","mus","goldfish"," 21","male","yes","yes","3","1.5 hrs per day ","349","<div style=""font-size:30px;"">Press space to start the trial</div>"," ","","","","","","",""
"","","","","","html-keyboard-response","239","2.0.0","218074","p9xsj08x5pv","mus","goldfish"," 21","male","yes","yes","3","1.5 hrs per day ","null","<div style=""font-size:60px;"">+</div>","null","","","","","","",""
"","","","","","audio-keyboard-response","240","2.0.0","218678","p9xsj08x5pv","mus","goldfish"," 21","male","yes","yes","3","1.5 hrs per day ","null","stimuli/sounds/piano_label_B.wav","null","","","","","","",""
"","","","","","html-keyboard-response","241","2.0.0","219680","p9xsj08x5pv","mus","goldfish"," 21","male","yes","yes","3","1.5 hrs per day ","null","","null","","","","","","",""
"","","","","","image-keyboard-response","242","2.0.0","220338","p9xsj08x5pv","mus","goldfish"," 21","male","yes","yes","3","1.5 hrs per day ","656","stimuli/pictures/bird_hawk_1.jpg","0","0","","true","no","sound","stimuli/sounds/piano_label_B.wav",""
"","","","","","audio-keyboard-response","243","2.0.0","221341","p9xsj08x5pv","mus","goldfish"," 21","male","yes","yes","3","1.5 hrs per day ","null","stimuli/sounds/bleep.wav","null","","","","","","",""
"","","","","","html-keyboard-response","244","2.0.0","221646","p9xsj08x5pv","mus","goldfish"," 21","male","yes","yes","3","1.5 hrs per day ","204","<div style=""font-size:30px;"">Press space to start the trial</div>"," ","","","","","","",""
"","","","","","html-keyboard-response","245","2.0.0","221898","p9xsj08x5pv","mus","goldfish"," 21","male","yes","yes","3","1.5 hrs per day ","null","<div style=""font-size:60px;"">+</div>","null","","","","","","",""
"","","","","","audio-keyboard-response","246","2.0.0","222502","p9xsj08x5pv","mus","goldfish"," 21","male","yes","yes","3","1.5 hrs per day ","null","stimuli/sounds/flute_sound_A.wav","null","","","","","","",""
"","","","","","html-keyboard-response","247","2.0.0","223504","p9xsj08x5pv","mus","goldfish"," 21","male","yes","yes","3","1.5 hrs per day ","null","","null","","","","","","",""
"","","","","","image-keyboard-response","248","2.0.0","224276","p9xsj08x5pv","mus","goldfish"," 21","male","yes","yes","3","1.5 hrs per day ","771","stimuli/pictures/phone_cell_2.jpg","0","0","","true","no","sound","stimuli/sounds/flute_sound_A.wav",""
"","","","","","audio-keyboard-response","249","2.0.0","225279","p9xsj08x5pv","mus","goldfish"," 21","male","yes","yes","3","1.5 hrs per day ","null","stimuli/sounds/bleep.wav","null","","","","","","",""
"","","","","","html-keyboard-response","250","2.0.0","225583","p9xsj08x5pv","mus","goldfish"," 21","male","yes","yes","3","1.5 hrs per day ","201","<div style=""font-size:30px;"">Press space to start the trial</div>"," ","","","","","","",""
"","","","","","html-keyboard-response","251","2.0.0","225834","p9xsj08x5pv","mus","goldfish"," 21","male","yes","yes","3","1.5 hrs per day ","null","<div style=""font-size:60px;"">+</div>","null","","","","","","",""
"","","","","","audio-keyboard-response","252","2.0.0","226438","p9xsj08x5pv","mus","goldfish"," 21","male","yes","yes","3","1.5 hrs per day ","null","stimuli/sounds/phone_label_A.wav","null","","","","","","",""
"","","","","","html-keyboard-response","253","2.0.0","227441","p9xsj08x5pv","mus","goldfish"," 21","male","yes","yes","3","1.5 hrs per day ","null","","null","","","","","","",""
"","","","","","image-keyboard-response","254","2.0.0","227986","p9xsj08x5pv","mus","goldfish"," 21","male","yes","yes","3","1.5 hrs per day ","543","stimuli/pictures/drum_bongo_2.jpg","0","0","","true","no","sound","stimuli/sounds/phone_label_A.wav",""
"","","","","","audio-keyboard-response","255","2.0.0","228988","p9xsj08x5pv","mus","goldfish"," 21","male","yes","yes","3","1.5 hrs per day ","null","stimuli/sounds/bleep.wav","null","","","","","","",""
"","","","","","html-keyboard-response","256","2.0.0","229401","p9xsj08x5pv","mus","goldfish"," 21","male","yes","yes","3","1.5 hrs per day ","311","<div style=""font-size:30px;"">Press space to start the trial</div>"," ","","","","","","",""
"","","","","","html-keyboard-response","257","2.0.0","229654","p9xsj08x5pv","mus","goldfish"," 21","male","yes","yes","3","1.5 hrs per day ","null","<div style=""font-size:60px;"">+</div>","null","","","","","","",""
"","","","","","audio-keyboard-response","258","2.0.0","230262","p9xsj08x5pv","mus","goldfish"," 21","male","yes","yes","3","1.5 hrs per day ","null","stimuli/sounds/piano_sound_B.wav","null","","","","","","",""
"","","","","","html-keyboard-response","259","2.0.0","231264","p9xsj08x5pv","mus","goldfish"," 21","male","yes","yes","3","1.5 hrs per day ","null","","null","","","","","","",""
"","","","","","image-keyboard-response","260","2.0.0","231978","p9xsj08x5pv","mus","goldfish"," 21","male","yes","yes","3","1.5 hrs per day ","712","stimuli/pictures/flute_metal_2.jpg","0","0","","true","no","sound","stimuli/sounds/piano_sound_B.wav",""
"","","","","","audio-keyboard-response","261","2.0.0","232979","p9xsj08x5pv","mus","goldfish"," 21","male","yes","yes","3","1.5 hrs per day ","null","stimuli/sounds/bleep.wav","null","","","","","","",""
"","","","","","html-keyboard-response","262","2.0.0","233447","p9xsj08x5pv","mus","goldfish"," 21","male","yes","yes","3","1.5 hrs per day ","366","<div style=""font-size:30px;"">Press space to start the trial</div>"," ","","","","","","",""
"","","","","","html-keyboard-response","263","2.0.0","233699","p9xsj08x5pv","mus","goldfish"," 21","male","yes","yes","3","1.5 hrs per day ","null","<div style=""font-size:60px;"">+</div>","null","","","","","","",""
"","","","","","audio-keyboard-response","264","2.0.0","234299","p9xsj08x5pv","mus","goldfish"," 21","male","yes","yes","3","1.5 hrs per day ","null","stimuli/sounds/drum_label_A.wav","null","","","","","","",""
"","","","","","html-keyboard-response","265","2.0.0","235302","p9xsj08x5pv","mus","goldfish"," 21","male","yes","yes","3","1.5 hrs per day ","null","","null","","","","","","",""
"","","","","","image-keyboard-response","266","2.0.0","236500","p9xsj08x5pv","mus","goldfish"," 21","male","yes","yes","3","1.5 hrs per day ","1196","stimuli/pictures/bird_song_2.jpg","0","0","","true","no","sound","stimuli/sounds/drum_label_A.wav",""
"","","","","","audio-keyboard-response","267","2.0.0","237502","p9xsj08x5pv","mus","goldfish"," 21","male","yes","yes","3","1.5 hrs per day ","null","stimuli/sounds/bleep.wav","null","","","","","","",""
"","","","","","html-keyboard-response","268","2.0.0","240559","p9xsj08x5pv","mus","goldfish"," 21","male","yes","yes","3","1.5 hrs per day ","2955","<p>You have completed a block. Press R when you are ready to continue</p>","r","","","","","","",""
"","","","","","html-keyboard-response","269","2.0.0","241523","p9xsj08x5pv","mus","goldfish"," 21","male","yes","yes","3","1.5 hrs per day ","963","<div style=""font-size:30px;"">Press space to start the trial</div>"," ","","","","","","",""
"","","","","","html-keyboard-response","270","2.0.0","241775","p9xsj08x5pv","mus","goldfish"," 21","male","yes","yes","3","1.5 hrs per day ","null","<div style=""font-size:60px;"">+</div>","null","","","","","","",""
"","","","","","audio-keyboard-response","271","2.0.0","242379","p9xsj08x5pv","mus","goldfish"," 21","male","yes","yes","3","1.5 hrs per day ","null","stimuli/sounds/piano_sound_A.wav","null","","","","","","",""
"","","","","","html-keyboard-response","272","2.0.0","243381","p9xsj08x5pv","mus","goldfish"," 21","male","yes","yes","3","1.5 hrs per day ","null","","null","","","","","","",""
"","","","","","image-keyboard-response","273","2.0.0","243909","p9xsj08x5pv","mus","goldfish"," 21","male","yes","yes","3","1.5 hrs per day ","527","stimuli/pictures/drum_kit_1.jpg","0","0","","true","no","sound","stimuli/sounds/piano_sound_A.wav",""
"","","","","","audio-keyboard-response","274","2.0.0","244911","p9xsj08x5pv","mus","goldfish"," 21","male","yes","yes","3","1.5 hrs per day ","null","stimuli/sounds/bleep.wav","null","","","","","","",""
"","","","","","html-keyboard-response","275","2.0.0","245402","p9xsj08x5pv","mus","goldfish"," 21","male","yes","yes","3","1.5 hrs per day ","389","<div style=""font-size:30px;"">Press space to start the trial</div>"," ","","","","","","",""
"","","","","","html-keyboard-response","276","2.0.0","245654","p9xsj08x5pv","mus","goldfish"," 21","male","yes","yes","3","1.5 hrs per day ","null","<div style=""font-size:60px;"">+</div>","null","","","","","","",""
"","","","","","audio-keyboard-response","277","2.0.0","246262","p9xsj08x5pv","mus","goldfish"," 21","male","yes","yes","3","1.5 hrs per day ","null","stimuli/sounds/flute_label_B.wav","null","","","","","","",""
"","","","","","html-keyboard-response","278","2.0.0","247264","p9xsj08x5pv","mus","goldfish"," 21","male","yes","yes","3","1.5 hrs per day ","null","","null","","","","","","",""
"","","","","","image-keyboard-response","279","2.0.0","247890","p9xsj08x5pv","mus","goldfish"," 21","male","yes","yes","3","1.5 hrs per day ","624","stimuli/pictures/drum_kit_2.jpg","0","0","","true","no","sound","stimuli/sounds/flute_label_B.wav",""
"","","","","","audio-keyboard-response","280","2.0.0","248894","p9xsj08x5pv","mus","goldfish"," 21","male","yes","yes","3","1.5 hrs per day ","null","stimuli/sounds/bleep.wav","null","","","","","","",""
"","","","","","html-keyboard-response","281","2.0.0","249394","p9xsj08x5pv","mus","goldfish"," 21","male","yes","yes","3","1.5 hrs per day ","399","<div style=""font-size:30px;"">Press space to start the trial</div>"," ","","","","","","",""
"","","","","","html-keyboard-response","282","2.0.0","249646","p9xsj08x5pv","mus","goldfish"," 21","male","yes","yes","3","1.5 hrs per day ","null","<div style=""font-size:60px;"">+</div>","null","","","","","","",""
"","","","","","audio-keyboard-response","283","2.0.0","250251","p9xsj08x5pv","mus","goldfish"," 21","male","yes","yes","3","1.5 hrs per day ","null","stimuli/sounds/flute_label_B.wav","null","","","","","","",""
"","","","","","html-keyboard-response","284","2.0.0","251254","p9xsj08x5pv","mus","goldfish"," 21","male","yes","yes","3","1.5 hrs per day ","null","","null","","","","","","",""
"","","","","","image-keyboard-response","285","2.0.0","252109","p9xsj08x5pv","mus","goldfish"," 21","male","yes","yes","3","1.5 hrs per day ","853","stimuli/pictures/flute_wooden_1.jpg","1","1","","true","yes","sound","stimuli/sounds/flute_label_B.wav",""
"","","","","","audio-keyboard-response","286","2.0.0","253111","p9xsj08x5pv","mus","goldfish"," 21","male","yes","yes","3","1.5 hrs per day ","null","stimuli/sounds/bleep.wav","null","","","","","","",""
"","","","","","html-keyboard-response","287","2.0.0","253566","p9xsj08x5pv","mus","goldfish"," 21","male","yes","yes","3","1.5 hrs per day ","353","<div style=""font-size:30px;"">Press space to start the trial</div>"," ","","","","","","",""
"","","","","","html-keyboard-response","288","2.0.0","253818","p9xsj08x5pv","mus","goldfish"," 21","male","yes","yes","3","1.5 hrs per day ","null","<div style=""font-size:60px;"">+</div>","null","","","","","","",""
"","","","","","audio-keyboard-response","289","2.0.0","254422","p9xsj08x5pv","mus","goldfish"," 21","male","yes","yes","3","1.5 hrs per day ","null","stimuli/sounds/phone_sound_B.wav","null","","","","","","",""
"","","","","","html-keyboard-response","290","2.0.0","255424","p9xsj08x5pv","mus","goldfish"," 21","male","yes","yes","3","1.5 hrs per day ","null","","null","","","","","","",""
"","","","","","image-keyboard-response","291","2.0.0","256707","p9xsj08x5pv","mus","goldfish"," 21","male","yes","yes","3","1.5 hrs per day ","1281","stimuli/pictures/phone_cell_2.jpg","0","1","","false","no","sound","stimuli/sounds/phone_sound_B.wav",""
"","","","","","audio-keyboard-response","292","2.0.0","257709","p9xsj08x5pv","mus","goldfish"," 21","male","yes","yes","3","1.5 hrs per day ","null","stimuli/sounds/buzz.wav","null","","","","","","",""
"","","","","","html-keyboard-response","293","2.0.0","258352","p9xsj08x5pv","mus","goldfish"," 21","male","yes","yes","3","1.5 hrs per day ","540","<div style=""font-size:30px;"">Press space to start the trial</div>"," ","","","","","","",""
"","","","","","html-keyboard-response","294","2.0.0","258605","p9xsj08x5pv","mus","goldfish"," 21","male","yes","yes","3","1.5 hrs per day ","null","<div style=""font-size:60px;"">+</div>","null","","","","","","",""
"","","","","","audio-keyboard-response","295","2.0.0","259206","p9xsj08x5pv","mus","goldfish"," 21","male","yes","yes","3","1.5 hrs per day ","null","stimuli/sounds/phone_sound_A.wav","null","","","","","","",""
"","","","","","html-keyboard-response","296","2.0.0","260208","p9xsj08x5pv","mus","goldfish"," 21","male","yes","yes","3","1.5 hrs per day ","null","","null","","","","","","",""
"","","","","","image-keyboard-response","297","2.0.0","261623","p9xsj08x5pv","mus","goldfish"," 21","male","yes","yes","3","1.5 hrs per day ","1413","stimuli/pictures/phone_rotary_2.jpg","0","1","","false","no","sound","stimuli/sounds/phone_sound_A.wav",""
"","","","","","audio-keyboard-response","298","2.0.0","262625","p9xsj08x5pv","mus","goldfish"," 21","male","yes","yes","3","1.5 hrs per day ","null","stimuli/sounds/buzz.wav","null","","","","","","",""
"","","","","","html-keyboard-response","299","2.0.0","263742","p9xsj08x5pv","mus","goldfish"," 21","male","yes","yes","3","1.5 hrs per day ","1014","<div style=""font-size:30px;"">Press space to start the trial</div>"," ","","","","","","",""
"","","","","","html-keyboard-response","300","2.0.0","263994","p9xsj08x5pv","mus","goldfish"," 21","male","yes","yes","3","1.5 hrs per day ","null","<div style=""font-size:60px;"">+</div>","null","","","","","","",""
"","","","","","audio-keyboard-response","301","2.0.0","264593","p9xsj08x5pv","mus","goldfish"," 21","male","yes","yes","3","1.5 hrs per day ","null","stimuli/sounds/phone_label_B.wav","null","","","","","","",""
"","","","","","html-keyboard-response","302","2.0.0","265595","p9xsj08x5pv","mus","goldfish"," 21","male","yes","yes","3","1.5 hrs per day ","null","","null","","","","","","",""
"","","","","","image-keyboard-response","303","2.0.0","266295","p9xsj08x5pv","mus","goldfish"," 21","male","yes","yes","3","1.5 hrs per day ","699","stimuli/pictures/phone_rotary_1.jpg","1","1","","true","yes","sound","stimuli/sounds/phone_label_B.wav",""
"","","","","","audio-keyboard-response","304","2.0.0","267298","p9xsj08x5pv","mus","goldfish"," 21","male","yes","yes","3","1.5 hrs per day ","null","stimuli/sounds/bleep.wav","null","","","","","","",""
"","","","","","html-keyboard-response","305","2.0.0","267701","p9xsj08x5pv","mus","goldfish"," 21","male","yes","yes","3","1.5 hrs per day ","301","<div style=""font-size:30px;"">Press space to start the trial</div>"," ","","","","","","",""
"","","","","","html-keyboard-response","306","2.0.0","267953","p9xsj08x5pv","mus","goldfish"," 21","male","yes","yes","3","1.5 hrs per day ","null","<div style=""font-size:60px;"">+</div>","null","","","","","","",""
"","","","","","audio-keyboard-response","307","2.0.0","268555","p9xsj08x5pv","mus","goldfish"," 21","male","yes","yes","3","1.5 hrs per day ","null","stimuli/sounds/phone_label_B.wav","null","","","","","","",""
"","","","","","html-keyboard-response","308","2.0.0","269558","p9xsj08x5pv","mus","goldfish"," 21","male","yes","yes","3","1.5 hrs per day ","null","","null","","","","","","",""
"","","","","","image-keyboard-response","309","2.0.0","270199","p9xsj08x5pv","mus","goldfish"," 21","male","yes","yes","3","1.5 hrs per day ","639","stimuli/pictures/flute_metal_2.jpg","0","0","","true","no","sound","stimuli/sounds/phone_label_B.wav",""
"","","","","","audio-keyboard-response","310","2.0.0","271202","p9xsj08x5pv","mus","goldfish"," 21","male","yes","yes","3","1.5 hrs per day ","null","stimuli/sounds/bleep.wav","null","","","","","","",""
"","","","","","html-keyboard-response","311","2.0.0","271809","p9xsj08x5pv","mus","goldfish"," 21","male","yes","yes","3","1.5 hrs per day ","505","<div style=""font-size:30px;"">Press space to start the trial</div>"," ","","","","","","",""
"","","","","","html-keyboard-response","312","2.0.0","272061","p9xsj08x5pv","mus","goldfish"," 21","male","yes","yes","3","1.5 hrs per day ","null","<div style=""font-size:60px;"">+</div>","null","","","","","","",""
"","","","","","audio-keyboard-response","313","2.0.0","272689","p9xsj08x5pv","mus","goldfish"," 21","male","yes","yes","3","1.5 hrs per day ","null","stimuli/sounds/piano_label_A.wav","null","","","","","","",""
"","","","","","html-keyboard-response","314","2.0.0","273691","p9xsj08x5pv","mus","goldfish"," 21","male","yes","yes","3","1.5 hrs per day ","null","","null","","","","","","",""
"","","","","","image-keyboard-response","315","2.0.0","274132","p9xsj08x5pv","mus","goldfish"," 21","male","yes","yes","3","1.5 hrs per day ","439","stimuli/pictures/piano_grand_1.jpg","1","1","","true","yes","sound","stimuli/sounds/piano_label_A.wav",""
"","","","","","audio-keyboard-response","316","2.0.0","275134","p9xsj08x5pv","mus","goldfish"," 21","male","yes","yes","3","1.5 hrs per day ","null","stimuli/sounds/bleep.wav","null","","","","","","",""
"","","","","","html-keyboard-response","317","2.0.0","275789","p9xsj08x5pv","mus","goldfish"," 21","male","yes","yes","3","1.5 hrs per day ","553","<div style=""font-size:30px;"">Press space to start the trial</div>"," ","","","","","","",""
"","","","","","html-keyboard-response","318","2.0.0","276042","p9xsj08x5pv","mus","goldfish"," 21","male","yes","yes","3","1.5 hrs per day ","null","<div style=""font-size:60px;"">+</div>","null","","","","","","",""
"","","","","","audio-keyboard-response","319","2.0.0","276641","p9xsj08x5pv","mus","goldfish"," 21","male","yes","yes","3","1.5 hrs per day ","null","stimuli/sounds/bird_label_A.wav","null","","","","","","",""
"","","","","","html-keyboard-response","320","2.0.0","277643","p9xsj08x5pv","mus","goldfish"," 21","male","yes","yes","3","1.5 hrs per day ","null","","null","","","","","","",""
"","","","","","image-keyboard-response","321","2.0.0","278040","p9xsj08x5pv","mus","goldfish"," 21","male","yes","yes","3","1.5 hrs per day ","395","stimuli/pictures/bird_hawk_1.jpg","1","1","","true","yes","sound","stimuli/sounds/bird_label_A.wav",""
"","","","","","audio-keyboard-response","322","2.0.0","279043","p9xsj08x5pv","mus","goldfish"," 21","male","yes","yes","3","1.5 hrs per day ","null","stimuli/sounds/bleep.wav","null","","","","","","",""
"","","","","","html-keyboard-response","323","2.0.0","279572","p9xsj08x5pv","mus","goldfish"," 21","male","yes","yes","3","1.5 hrs per day ","428","<div style=""font-size:30px;"">Press space to start the trial</div>"," ","","","","","","",""
"","","","","","html-keyboard-response","324","2.0.0","279825","p9xsj08x5pv","mus","goldfish"," 21","male","yes","yes","3","1.5 hrs per day ","null","<div style=""font-size:60px;"">+</div>","null","","","","","","",""
"","","","","","audio-keyboard-response","325","2.0.0","280427","p9xsj08x5pv","mus","goldfish"," 21","male","yes","yes","3","1.5 hrs per day ","null","stimuli/sounds/bird_label_A.wav","null","","","","","","",""
"","","","","","html-keyboard-response","326","2.0.0","281429","p9xsj08x5pv","mus","goldfish"," 21","male","yes","yes","3","1.5 hrs per day ","null","","null","","","","","","",""
"","","","","","image-keyboard-response","327","2.0.0","281863","p9xsj08x5pv","mus","goldfish"," 21","male","yes","yes","3","1.5 hrs per day ","432","stimuli/pictures/flute_metal_1.jpg","0","0","","true","no","sound","stimuli/sounds/bird_label_A.wav",""
"","","","","","audio-keyboard-response","328","2.0.0","282865","p9xsj08x5pv","mus","goldfish"," 21","male","yes","yes","3","1.5 hrs per day ","null","stimuli/sounds/bleep.wav","null","","","","","","",""
"","","","","","html-keyboard-response","329","2.0.0","283263","p9xsj08x5pv","mus","goldfish"," 21","male","yes","yes","3","1.5 hrs per day ","296","<div style=""font-size:30px;"">Press space to start the trial</div>"," ","","","","","","",""
"","","","","","html-keyboard-response","330","2.0.0","283515","p9xsj08x5pv","mus","goldfish"," 21","male","yes","yes","3","1.5 hrs per day ","null","<div style=""font-size:60px;"">+</div>","null","","","","","","",""
"","","","","","audio-keyboard-response","331","2.0.0","284118","p9xsj08x5pv","mus","goldfish"," 21","male","yes","yes","3","1.5 hrs per day ","null","stimuli/sounds/flute_sound_A.wav","null","","","","","","",""
"","","","","","html-keyboard-response","332","2.0.0","285120","p9xsj08x5pv","mus","goldfish"," 21","male","yes","yes","3","1.5 hrs per day ","null","","null","","","","","","",""
"","","","","","image-keyboard-response","333","2.0.0","285669","p9xsj08x5pv","mus","goldfish"," 21","male","yes","yes","3","1.5 hrs per day ","547","stimuli/pictures/flute_metal_2.jpg","1","1","","true","yes","sound","stimuli/sounds/flute_sound_A.wav",""
"","","","","","audio-keyboard-response","334","2.0.0","286672","p9xsj08x5pv","mus","goldfish"," 21","male","yes","yes","3","1.5 hrs per day ","null","stimuli/sounds/bleep.wav","null","","","","","","",""
"","","","","","html-keyboard-response","335","2.0.0","287165","p9xsj08x5pv","mus","goldfish"," 21","male","yes","yes","3","1.5 hrs per day ","391","<div style=""font-size:30px;"">Press space to start the trial</div>"," ","","","","","","",""
"","","","","","html-keyboard-response","336","2.0.0","287418","p9xsj08x5pv","mus","goldfish"," 21","male","yes","yes","3","1.5 hrs per day ","null","<div style=""font-size:60px;"">+</div>","null","","","","","","",""
"","","","","","audio-keyboard-response","337","2.0.0","288017","p9xsj08x5pv","mus","goldfish"," 21","male","yes","yes","3","1.5 hrs per day ","null","stimuli/sounds/bird_label_A.wav","null","","","","","","",""
"","","","","","html-keyboard-response","338","2.0.0","289019","p9xsj08x5pv","mus","goldfish"," 21","male","yes","yes","3","1.5 hrs per day ","null","","null","","","","","","",""
"","","","","","image-keyboard-response","339","2.0.0","289583","p9xsj08x5pv","mus","goldfish"," 21","male","yes","yes","3","1.5 hrs per day ","562","stimuli/pictures/flute_wooden_2.jpg","0","0","","true","no","sound","stimuli/sounds/bird_label_A.wav",""
"","","","","","audio-keyboard-response","340","2.0.0","290585","p9xsj08x5pv","mus","goldfish"," 21","male","yes","yes","3","1.5 hrs per day ","null","stimuli/sounds/bleep.wav","null","","","","","","",""
"","","","","","html-keyboard-response","341","2.0.0","291743","p9xsj08x5pv","mus","goldfish"," 21","male","yes","yes","3","1.5 hrs per day ","1055","<div style=""font-size:30px;"">Press space to start the trial</div>"," ","","","","","","",""
"","","","","","html-keyboard-response","342","2.0.0","292002","p9xsj08x5pv","mus","goldfish"," 21","male","yes","yes","3","1.5 hrs per day ","null","<div style=""font-size:60px;"">+</div>","null","","","","","","",""
"","","","","","audio-keyboard-response","343","2.0.0","292603","p9xsj08x5pv","mus","goldfish"," 21","male","yes","yes","3","1.5 hrs per day ","null","stimuli/sounds/drum_sound_A.wav","null","","","","","","",""
"","","","","","html-keyboard-response","344","2.0.0","293605","p9xsj08x5pv","mus","goldfish"," 21","male","yes","yes","3","1.5 hrs per day ","null","","null","","","","","","",""
"","","","","","image-keyboard-response","345","2.0.0","294261","p9xsj08x5pv","mus","goldfish"," 21","male","yes","yes","3","1.5 hrs per day ","654","stimuli/pictures/flute_wooden_2.jpg","0","0","","true","no","sound","stimuli/sounds/drum_sound_A.wav",""
"","","","","","audio-keyboard-response","346","2.0.0","295264","p9xsj08x5pv","mus","goldfish"," 21","male","yes","yes","3","1.5 hrs per day ","null","stimuli/sounds/bleep.wav","null","","","","","","",""
"","","","","","html-keyboard-response","347","2.0.0","295875","p9xsj08x5pv","mus","goldfish"," 21","male","yes","yes","3","1.5 hrs per day ","509","<div style=""font-size:30px;"">Press space to start the trial</div>"," ","","","","","","",""
"","","","","","html-keyboard-response","348","2.0.0","296127","p9xsj08x5pv","mus","goldfish"," 21","male","yes","yes","3","1.5 hrs per day ","null","<div style=""font-size:60px;"">+</div>","null","","","","","","",""
"","","","","","audio-keyboard-response","349","2.0.0","296731","p9xsj08x5pv","mus","goldfish"," 21","male","yes","yes","3","1.5 hrs per day ","null","stimuli/sounds/flute_sound_B.wav","null","","","","","","",""
"","","","","","html-keyboard-response","350","2.0.0","297734","p9xsj08x5pv","mus","goldfish"," 21","male","yes","yes","3","1.5 hrs per day ","null","","null","","","","","","",""
"","","","","","image-keyboard-response","351","2.0.0","298129","p9xsj08x5pv","mus","goldfish"," 21","male","yes","yes","3","1.5 hrs per day ","393","stimuli/pictures/flute_wooden_2.jpg","1","1","","true","yes","sound","stimuli/sounds/flute_sound_B.wav",""
"","","","","","audio-keyboard-response","352","2.0.0","299131","p9xsj08x5pv","mus","goldfish"," 21","male","yes","yes","3","1.5 hrs per day ","null","stimuli/sounds/bleep.wav","null","","","","","","",""
"","","","","","html-keyboard-response","353","2.0.0","299543","p9xsj08x5pv","mus","goldfish"," 21","male","yes","yes","3","1.5 hrs per day ","309","<div style=""font-size:30px;"">Press space to start the trial</div>"," ","","","","","","",""
"","","","","","html-keyboard-response","354","2.0.0","299795","p9xsj08x5pv","mus","goldfish"," 21","male","yes","yes","3","1.5 hrs per day ","null","<div style=""font-size:60px;"">+</div>","null","","","","","","",""
"","","","","","audio-keyboard-response","355","2.0.0","300395","p9xsj08x5pv","mus","goldfish"," 21","male","yes","yes","3","1.5 hrs per day ","null","stimuli/sounds/piano_label_B.wav","null","","","","","","",""
"","","","","","html-keyboard-response","356","2.0.0","301398","p9xsj08x5pv","mus","goldfish"," 21","male","yes","yes","3","1.5 hrs per day ","null","","null","","","","","","",""
"","","","","","image-keyboard-response","357","2.0.0","301999","p9xsj08x5pv","mus","goldfish"," 21","male","yes","yes","3","1.5 hrs per day ","600","stimuli/pictures/piano_grand_2.jpg","1","1","","true","yes","sound","stimuli/sounds/piano_label_B.wav",""
"","","","","","audio-keyboard-response","358","2.0.0","303002","p9xsj08x5pv","mus","goldfish"," 21","male","yes","yes","3","1.5 hrs per day ","null","stimuli/sounds/bleep.wav","null","","","","","","",""
"","","","","","html-keyboard-response","359","2.0.0","303402","p9xsj08x5pv","mus","goldfish"," 21","male","yes","yes","3","1.5 hrs per day ","297","<div style=""font-size:30px;"">Press space to start the trial</div>"," ","","","","","","",""
"","","","","","html-keyboard-response","360","2.0.0","303654","p9xsj08x5pv","mus","goldfish"," 21","male","yes","yes","3","1.5 hrs per day ","null","<div style=""font-size:60px;"">+</div>","null","","","","","","",""
"","","","","","audio-keyboard-response","361","2.0.0","304257","p9xsj08x5pv","mus","goldfish"," 21","male","yes","yes","3","1.5 hrs per day ","null","stimuli/sounds/flute_label_A.wav","null","","","","","","",""
"","","","","","html-keyboard-response","362","2.0.0","305259","p9xsj08x5pv","mus","goldfish"," 21","male","yes","yes","3","1.5 hrs per day ","null","","null","","","","","","",""
"","","","","","image-keyboard-response","363","2.0.0","305563","p9xsj08x5pv","mus","goldfish"," 21","male","yes","yes","3","1.5 hrs per day ","302","stimuli/pictures/flute_metal_2.jpg","1","1","","true","yes","sound","stimuli/sounds/flute_label_A.wav",""
"","","","","","audio-keyboard-response","364","2.0.0","306566","p9xsj08x5pv","mus","goldfish"," 21","male","yes","yes","3","1.5 hrs per day ","null","stimuli/sounds/bleep.wav","null","","","","","","",""
"","","","","","html-keyboard-response","365","2.0.0","306987","p9xsj08x5pv","mus","goldfish"," 21","male","yes","yes","3","1.5 hrs per day ","319","<div style=""font-size:30px;"">Press space to start the trial</div>"," ","","","","","","",""
"","","","","","html-keyboard-response","366","2.0.0","307239","p9xsj08x5pv","mus","goldfish"," 21","male","yes","yes","3","1.5 hrs per day ","null","<div style=""font-size:60px;"">+</div>","null","","","","","","",""
"","","","","","audio-keyboard-response","367","2.0.0","307841","p9xsj08x5pv","mus","goldfish"," 21","male","yes","yes","3","1.5 hrs per day ","null","stimuli/sounds/drum_sound_A.wav","null","","","","","","",""
"","","","","","html-keyboard-response","368","2.0.0","308843","p9xsj08x5pv","mus","goldfish"," 21","male","yes","yes","3","1.5 hrs per day ","null","","null","","","","","","",""
"","","","","","image-keyboard-response","369","2.0.0","309412","p9xsj08x5pv","mus","goldfish"," 21","male","yes","yes","3","1.5 hrs per day ","568","stimuli/pictures/flute_metal_2.jpg","0","0","","true","no","sound","stimuli/sounds/drum_sound_A.wav",""
"","","","","","audio-keyboard-response","370","2.0.0","310415","p9xsj08x5pv","mus","goldfish"," 21","male","yes","yes","3","1.5 hrs per day ","null","stimuli/sounds/bleep.wav","null","","","","","","",""
"","","","","","html-keyboard-response","371","2.0.0","311384","p9xsj08x5pv","mus","goldfish"," 21","male","yes","yes","3","1.5 hrs per day ","868","<div style=""font-size:30px;"">Press space to start the trial</div>"," ","","","","","","",""
"","","","","","html-keyboard-response","372","2.0.0","311637","p9xsj08x5pv","mus","goldfish"," 21","male","yes","yes","3","1.5 hrs per day ","null","<div style=""font-size:60px;"">+</div>","null","","","","","","",""
"","","","","","audio-keyboard-response","373","2.0.0","312236","p9xsj08x5pv","mus","goldfish"," 21","male","yes","yes","3","1.5 hrs per day ","null","stimuli/sounds/bird_label_B.wav","null","","","","","","",""
"","","","","","html-keyboard-response","374","2.0.0","313238","p9xsj08x5pv","mus","goldfish"," 21","male","yes","yes","3","1.5 hrs per day ","null","","null","","","","","","",""
"","","","","","image-keyboard-response","375","2.0.0","314117","p9xsj08x5pv","mus","goldfish"," 21","male","yes","yes","3","1.5 hrs per day ","877","stimuli/pictures/phone_rotary_2.jpg","0","0","","true","no","sound","stimuli/sounds/bird_label_B.wav",""
"","","","","","audio-keyboard-response","376","2.0.0","315120","p9xsj08x5pv","mus","goldfish"," 21","male","yes","yes","3","1.5 hrs per day ","null","stimuli/sounds/bleep.wav","null","","","","","","",""
"","","","","","html-keyboard-response","377","2.0.0","315631","p9xsj08x5pv","mus","goldfish"," 21","male","yes","yes","3","1.5 hrs per day ","408","<div style=""font-size:30px;"">Press space to start the trial</div>"," ","","","","","","",""
"","","","","","html-keyboard-response","378","2.0.0","315883","p9xsj08x5pv","mus","goldfish"," 21","male","yes","yes","3","1.5 hrs per day ","null","<div style=""font-size:60px;"">+</div>","null","","","","","","",""
"","","","","","audio-keyboard-response","379","2.0.0","316486","p9xsj08x5pv","mus","goldfish"," 21","male","yes","yes","3","1.5 hrs per day ","null","stimuli/sounds/phone_label_A.wav","null","","","","","","",""
"","","","","","html-keyboard-response","380","2.0.0","317489","p9xsj08x5pv","mus","goldfish"," 21","male","yes","yes","3","1.5 hrs per day ","null","","null","","","","","","",""
"","","","","","image-keyboard-response","381","2.0.0","318167","p9xsj08x5pv","mus","goldfish"," 21","male","yes","yes","3","1.5 hrs per day ","677","stimuli/pictures/phone_cell_2.jpg","1","1","","true","yes","sound","stimuli/sounds/phone_label_A.wav",""
"","","","","","audio-keyboard-response","382","2.0.0","319170","p9xsj08x5pv","mus","goldfish"," 21","male","yes","yes","3","1.5 hrs per day ","null","stimuli/sounds/bleep.wav","null","","","","","","",""
"","","","","","html-keyboard-response","383","2.0.0","319613","p9xsj08x5pv","mus","goldfish"," 21","male","yes","yes","3","1.5 hrs per day ","340","<div style=""font-size:30px;"">Press space to start the trial</div>"," ","","","","","","",""
"","","","","","html-keyboard-response","384","2.0.0","319865","p9xsj08x5pv","mus","goldfish"," 21","male","yes","yes","3","1.5 hrs per day ","null","<div style=""font-size:60px;"">+</div>","null","","","","","","",""
"","","","","","audio-keyboard-response","385","2.0.0","320465","p9xsj08x5pv","mus","goldfish"," 21","male","yes","yes","3","1.5 hrs per day ","null","stimuli/sounds/flute_label_A.wav","null","","","","","","",""
"","","","","","html-keyboard-response","386","2.0.0","321467","p9xsj08x5pv","mus","goldfish"," 21","male","yes","yes","3","1.5 hrs per day ","null","","null","","","","","","",""
"","","","","","image-keyboard-response","387","2.0.0","323761","p9xsj08x5pv","mus","goldfish"," 21","male","yes","yes","3","1.5 hrs per day ","2292","stimuli/pictures/flute_wooden_1.jpg","1","1","","true","yes","sound","stimuli/sounds/flute_label_A.wav",""
"","","","","","audio-keyboard-response","388","2.0.0","324764","p9xsj08x5pv","mus","goldfish"," 21","male","yes","yes","3","1.5 hrs per day ","null","stimuli/sounds/bleep.wav","null","","","","","","",""
"","","","","","html-keyboard-response","389","2.0.0","328476","p9xsj08x5pv","mus","goldfish"," 21","male","yes","yes","3","1.5 hrs per day ","3610","<p>You have completed a block. Press R when you are ready to continue</p>","r","","","","","","",""
"","","","","","html-keyboard-response","390","2.0.0","329252","p9xsj08x5pv","mus","goldfish"," 21","male","yes","yes","3","1.5 hrs per day ","775","<div style=""font-size:30px;"">Press space to start the trial</div>"," ","","","","","","",""
"","","","","","html-keyboard-response","391","2.0.0","329505","p9xsj08x5pv","mus","goldfish"," 21","male","yes","yes","3","1.5 hrs per day ","null","<div style=""font-size:60px;"">+</div>","null","","","","","","",""
"","","","","","audio-keyboard-response","392","2.0.0","330107","p9xsj08x5pv","mus","goldfish"," 21","male","yes","yes","3","1.5 hrs per day ","null","stimuli/sounds/bird_label_A.wav","null","","","","","","",""
"","","","","","html-keyboard-response","393","2.0.0","331110","p9xsj08x5pv","mus","goldfish"," 21","male","yes","yes","3","1.5 hrs per day ","null","","null","","","","","","",""
"","","","","","image-keyboard-response","394","2.0.0","331786","p9xsj08x5pv","mus","goldfish"," 21","male","yes","yes","3","1.5 hrs per day ","674","stimuli/pictures/bird_song_1.jpg","1","1","","true","yes","sound","stimuli/sounds/bird_label_A.wav",""
"","","","","","audio-keyboard-response","395","2.0.0","332789","p9xsj08x5pv","mus","goldfish"," 21","male","yes","yes","3","1.5 hrs per day ","null","stimuli/sounds/bleep.wav","null","","","","","","",""
"","","","","","html-keyboard-response","396","2.0.0","333967","p9xsj08x5pv","mus","goldfish"," 21","male","yes","yes","3","1.5 hrs per day ","1076","<div style=""font-size:30px;"">Press space to start the trial</div>"," ","","","","","","",""
"","","","","","html-keyboard-response","397","2.0.0","334219","p9xsj08x5pv","mus","goldfish"," 21","male","yes","yes","3","1.5 hrs per day ","null","<div style=""font-size:60px;"">+</div>","null","","","","","","",""
"","","","","","audio-keyboard-response","398","2.0.0","334822","p9xsj08x5pv","mus","goldfish"," 21","male","yes","yes","3","1.5 hrs per day ","null","stimuli/sounds/drum_label_B.wav","null","","","","","","",""
"","","","","","html-keyboard-response","399","2.0.0","335825","p9xsj08x5pv","mus","goldfish"," 21","male","yes","yes","3","1.5 hrs per day ","null","","null","","","","","","",""
"","","","","","image-keyboard-response","400","2.0.0","336534","p9xsj08x5pv","mus","goldfish"," 21","male","yes","yes","3","1.5 hrs per day ","707","stimuli/pictures/piano_electric_2.jpg","0","0","","true","no","sound","stimuli/sounds/drum_label_B.wav",""
"","","","","","audio-keyboard-response","401","2.0.0","337536","p9xsj08x5pv","mus","goldfish"," 21","male","yes","yes","3","1.5 hrs per day ","null","stimuli/sounds/bleep.wav","null","","","","","","",""
"","","","","","html-keyboard-response","402","2.0.0","338023","p9xsj08x5pv","mus","goldfish"," 21","male","yes","yes","3","1.5 hrs per day ","385","<div style=""font-size:30px;"">Press space to start the trial</div>"," ","","","","","","",""
"","","","","","html-keyboard-response","403","2.0.0","338275","p9xsj08x5pv","mus","goldfish"," 21","male","yes","yes","3","1.5 hrs per day ","null","<div style=""font-size:60px;"">+</div>","null","","","","","","",""
"","","","","","audio-keyboard-response","404","2.0.0","338876","p9xsj08x5pv","mus","goldfish"," 21","male","yes","yes","3","1.5 hrs per day ","null","stimuli/sounds/phone_label_A.wav","null","","","","","","",""
"","","","","","html-keyboard-response","405","2.0.0","339878","p9xsj08x5pv","mus","goldfish"," 21","male","yes","yes","3","1.5 hrs per day ","null","","null","","","","","","",""
"","","","","","image-keyboard-response","406","2.0.0","340333","p9xsj08x5pv","mus","goldfish"," 21","male","yes","yes","3","1.5 hrs per day ","453","stimuli/pictures/phone_rotary_2.jpg","1","1","","true","yes","sound","stimuli/sounds/phone_label_A.wav",""
"","","","","","audio-keyboard-response","407","2.0.0","341336","p9xsj08x5pv","mus","goldfish"," 21","male","yes","yes","3","1.5 hrs per day ","null","stimuli/sounds/bleep.wav","null","","","","","","",""
"","","","","","html-keyboard-response","408","2.0.0","341735","p9xsj08x5pv","mus","goldfish"," 21","male","yes","yes","3","1.5 hrs per day ","297","<div style=""font-size:30px;"">Press space to start the trial</div>"," ","","","","","","",""
"","","","","","html-keyboard-response","409","2.0.0","341988","p9xsj08x5pv","mus","goldfish"," 21","male","yes","yes","3","1.5 hrs per day ","null","<div style=""font-size:60px;"">+</div>","null","","","","","","",""
"","","","","","audio-keyboard-response","410","2.0.0","342593","p9xsj08x5pv","mus","goldfish"," 21","male","yes","yes","3","1.5 hrs per day ","null","stimuli/sounds/piano_sound_A.wav","null","","","","","","",""
"","","","","","html-keyboard-response","411","2.0.0","343596","p9xsj08x5pv","mus","goldfish"," 21","male","yes","yes","3","1.5 hrs per day ","null","","null","","","","","","",""
"","","","","","image-keyboard-response","412","2.0.0","344189","p9xsj08x5pv","mus","goldfish"," 21","male","yes","yes","3","1.5 hrs per day ","591","stimuli/pictures/piano_electric_1.jpg","1","1","","true","no","sound","stimuli/sounds/piano_sound_A.wav",""
"","","","","","audio-keyboard-response","413","2.0.0","345191","p9xsj08x5pv","mus","goldfish"," 21","male","yes","yes","3","1.5 hrs per day ","null","stimuli/sounds/bleep.wav","null","","","","","","",""
"","","","","","html-keyboard-response","414","2.0.0","345516","p9xsj08x5pv","mus","goldfish"," 21","male","yes","yes","3","1.5 hrs per day ","224","<div style=""font-size:30px;"">Press space to start the trial</div>"," ","","","","","","",""
"","","","","","html-keyboard-response","415","2.0.0","345769","p9xsj08x5pv","mus","goldfish"," 21","male","yes","yes","3","1.5 hrs per day ","null","<div style=""font-size:60px;"">+</div>","null","","","","","","",""
"","","","","","audio-keyboard-response","416","2.0.0","346369","p9xsj08x5pv","mus","goldfish"," 21","male","yes","yes","3","1.5 hrs per day ","null","stimuli/sounds/drum_sound_B.wav","null","","","","","","",""
"","","","","","html-keyboard-response","417","2.0.0","347371","p9xsj08x5pv","mus","goldfish"," 21","male","yes","yes","3","1.5 hrs per day ","null","","null","","","","","","",""
"","","","","","image-keyboard-response","418","2.0.0","347942","p9xsj08x5pv","mus","goldfish"," 21","male","yes","yes","3","1.5 hrs per day ","569","stimuli/pictures/phone_cell_2.jpg","0","0","","true","no","sound","stimuli/sounds/drum_sound_B.wav",""
"","","","","","audio-keyboard-response","419","2.0.0","348945","p9xsj08x5pv","mus","goldfish"," 21","male","yes","yes","3","1.5 hrs per day ","null","stimuli/sounds/bleep.wav","null","","","","","","",""
"","","","","","html-keyboard-response","420","2.0.0","349346","p9xsj08x5pv","mus","goldfish"," 21","male","yes","yes","3","1.5 hrs per day ","299","<div style=""font-size:30px;"">Press space to start the trial</div>"," ","","","","","","",""
"","","","","","html-keyboard-response","421","2.0.0","349597","p9xsj08x5pv","mus","goldfish"," 21","male","yes","yes","3","1.5 hrs per day ","null","<div style=""font-size:60px;"">+</div>","null","","","","","","",""
"","","","","","audio-keyboard-response","422","2.0.0","350198","p9xsj08x5pv","mus","goldfish"," 21","male","yes","yes","3","1.5 hrs per day ","null","stimuli/sounds/bird_label_A.wav","null","","","","","","",""
"","","","","","html-keyboard-response","423","2.0.0","351201","p9xsj08x5pv","mus","goldfish"," 21","male","yes","yes","3","1.5 hrs per day ","null","","null","","","","","","",""
"","","","","","image-keyboard-response","424","2.0.0","351794","p9xsj08x5pv","mus","goldfish"," 21","male","yes","yes","3","1.5 hrs per day ","592","stimuli/pictures/flute_metal_2.jpg","0","0","","true","no","sound","stimuli/sounds/bird_label_A.wav",""
"","","","","","audio-keyboard-response","425","2.0.0","352796","p9xsj08x5pv","mus","goldfish"," 21","male","yes","yes","3","1.5 hrs per day ","null","stimuli/sounds/bleep.wav","null","","","","","","",""
"","","","","","html-keyboard-response","426","2.0.0","353212","p9xsj08x5pv","mus","goldfish"," 21","male","yes","yes","3","1.5 hrs per day ","313","<div style=""font-size:30px;"">Press space to start the trial</div>"," ","","","","","","",""
"","","","","","html-keyboard-response","427","2.0.0","353464","p9xsj08x5pv","mus","goldfish"," 21","male","yes","yes","3","1.5 hrs per day ","null","<div style=""font-size:60px;"">+</div>","null","","","","","","",""
"","","","","","audio-keyboard-response","428","2.0.0","354092","p9xsj08x5pv","mus","goldfish"," 21","male","yes","yes","3","1.5 hrs per day ","null","stimuli/sounds/piano_label_A.wav","null","","","","","","",""
"","","","","","html-keyboard-response","429","2.0.0","355094","p9xsj08x5pv","mus","goldfish"," 21","male","yes","yes","3","1.5 hrs per day ","null","","null","","","","","","",""
"","","","","","image-keyboard-response","430","2.0.0","355665","p9xsj08x5pv","mus","goldfish"," 21","male","yes","yes","3","1.5 hrs per day ","568","stimuli/pictures/phone_rotary_1.jpg","0","0","","true","no","sound","stimuli/sounds/piano_label_A.wav",""
"","","","","","audio-keyboard-response","431","2.0.0","356667","p9xsj08x5pv","mus","goldfish"," 21","male","yes","yes","3","1.5 hrs per day ","null","stimuli/sounds/bleep.wav","null","","","","","","",""
"","","","","","html-keyboard-response","432","2.0.0","357126","p9xsj08x5pv","mus","goldfish"," 21","male","yes","yes","3","1.5 hrs per day ","357","<div style=""font-size:30px;"">Press space to start the trial</div>"," ","","","","","","",""
"","","","","","html-keyboard-response","433","2.0.0","357379","p9xsj08x5pv","mus","goldfish"," 21","male","yes","yes","3","1.5 hrs per day ","null","<div style=""font-size:60px;"">+</div>","null","","","","","","",""
"","","","","","audio-keyboard-response","434","2.0.0","357980","p9xsj08x5pv","mus","goldfish"," 21","male","yes","yes","3","1.5 hrs per day ","null","stimuli/sounds/bird_label_B.wav","null","","","","","","",""
"","","","","","html-keyboard-response","435","2.0.0","358982","p9xsj08x5pv","mus","goldfish"," 21","male","yes","yes","3","1.5 hrs per day ","null","","null","","","","","","",""
"","","","","","image-keyboard-response","436","2.0.0","359453","p9xsj08x5pv","mus","goldfish"," 21","male","yes","yes","3","1.5 hrs per day ","469","stimuli/pictures/phone_cell_1.jpg","0","0","","true","no","sound","stimuli/sounds/bird_label_B.wav",""
"","","","","","audio-keyboard-response","437","2.0.0","360456","p9xsj08x5pv","mus","goldfish"," 21","male","yes","yes","3","1.5 hrs per day ","null","stimuli/sounds/bleep.wav","null","","","","","","",""
"","","","","","html-keyboard-response","438","2.0.0","361243","p9xsj08x5pv","mus","goldfish"," 21","male","yes","yes","3","1.5 hrs per day ","685","<div style=""font-size:30px;"">Press space to start the trial</div>"," ","","","","","","",""
"","","","","","html-keyboard-response","439","2.0.0","361495","p9xsj08x5pv","mus","goldfish"," 21","male","yes","yes","3","1.5 hrs per day ","null","<div style=""font-size:60px;"">+</div>","null","","","","","","",""
"","","","","","audio-keyboard-response","440","2.0.0","362097","p9xsj08x5pv","mus","goldfish"," 21","male","yes","yes","3","1.5 hrs per day ","null","stimuli/sounds/phone_sound_B.wav","null","","","","","","",""
"","","","","","html-keyboard-response","441","2.0.0","363099","p9xsj08x5pv","mus","goldfish"," 21","male","yes","yes","3","1.5 hrs per day ","null","","null","","","","","","",""
"","","","","","image-keyboard-response","442","2.0.0","363835","p9xsj08x5pv","mus","goldfish"," 21","male","yes","yes","3","1.5 hrs per day ","734","stimuli/pictures/phone_cell_1.jpg","1","1","","true","no","sound","stimuli/sounds/phone_sound_B.wav",""
"","","","","","audio-keyboard-response","443","2.0.0","364838","p9xsj08x5pv","mus","goldfish"," 21","male","yes","yes","3","1.5 hrs per day ","null","stimuli/sounds/bleep.wav","null","","","","","","",""
"","","","","","html-keyboard-response","444","2.0.0","365477","p9xsj08x5pv","mus","goldfish"," 21","male","yes","yes","3","1.5 hrs per day ","537","<div style=""font-size:30px;"">Press space to start the trial</div>"," ","","","","","","",""
"","","","","","html-keyboard-response","445","2.0.0","365729","p9xsj08x5pv","mus","goldfish"," 21","male","yes","yes","3","1.5 hrs per day ","null","<div style=""font-size:60px;"">+</div>","null","","","","","","",""
"","","","","","audio-keyboard-response","446","2.0.0","366332","p9xsj08x5pv","mus","goldfish"," 21","male","yes","yes","3","1.5 hrs per day ","null","stimuli/sounds/bird_sound_A.wav","null","","","","","","",""
"","","","","","html-keyboard-response","447","2.0.0","367334","p9xsj08x5pv","mus","goldfish"," 21","male","yes","yes","3","1.5 hrs per day ","null","","null","","","","","","",""
"","","","","","image-keyboard-response","448","2.0.0","368191","p9xsj08x5pv","mus","goldfish"," 21","male","yes","yes","3","1.5 hrs per day ","856","stimuli/pictures/piano_electric_1.jpg","0","0","","true","no","sound","stimuli/sounds/bird_sound_A.wav",""
"","","","","","audio-keyboard-response","449","2.0.0","369194","p9xsj08x5pv","mus","goldfish"," 21","male","yes","yes","3","1.5 hrs per day ","null","stimuli/sounds/bleep.wav","null","","","","","","",""
"","","","","","html-keyboard-response","450","2.0.0","369644","p9xsj08x5pv","mus","goldfish"," 21","male","yes","yes","3","1.5 hrs per day ","348","<div style=""font-size:30px;"">Press space to start the trial</div>"," ","","","","","","",""
