"success","timeout","failed_images","failed_audio","failed_video","trial_type","trial_index","plugin_version","time_elapsed","random_id","condition","participant","age","gender_id","mus_exp","inst_exp","years_exp","mus_listening","rt","stimulus","response","correct_response","practice","correct","congruent","sound_type","audio","question_order"
"true","false","[]","[]","[]","preload","0","2.0.0","336","pa5xtfb7nz2","mus","sloth","20","female","yes","yes","10","3","","","","","","","","","",""
"","","","","","html-keyboard-response","1","2.0.0","3316","pa5xtfb7nz2","mus","sloth","20","female","yes","yes","10","3","2977","Welcome to the experiment! Press any key to begin.","AudioVolumeUp","","","","","","",""
"true","","","","","fullscreen","2","null","8119","pa5xtfb7nz2","mus","sloth","20","female","yes","yes","10","3","3790","","","","","","","","",""
"","","","","","survey-text","3","2.0.0","11257","pa5xtfb7nz2","mus","sloth","20","female","yes","yes","10","3","3132","","{""participant_id"":""sloth""}","","","","","","",""
"","","","","","html-keyboard-response","4","2.0.0","26480","pa5xtfb7nz2","mus","sloth","20","female","yes","yes","10","3","15221","
    <p> Please use headphones for the duration of the study.</p>
    <p> Within each trial, you will hear a sound and then be presented with an image in the center of your screen.</p>
    <p>Press the <b>'1'</b> key if what you hear <u>matches</u> what you see.</p>
    <p>Press the <b>'0'</b> key if what you hear <u>does not match</u> what you see.</p>
    <p>Try to respond as quickly and accurately as you can.</p>
    <p> Press any key to begin.</p>
    "," ","","","","","","",""
"","","","","","html-keyboard-response","5","2.0.0","31207","pa5xtfb7nz2","mus","sloth","20","female","yes","yes","10","3","4726","
    <div style=""font-size:28px;"">
      <p>You will now complete 4 short practice trials.</p>
      <p>This is just to help you get familiar with the task.</p>
      <p>Press any key to begin.</p>
    </div>
  "," ","","","","","","",""
"","","","","","html-keyboard-response","6","2.0.0","31714","pa5xtfb7nz2","mus","sloth","20","female","yes","yes","10","3","null","<div style=""font-size:60px;"">+</div>","null","","","","","","",""
"","","","","","audio-keyboard-response","7","2.0.0","33302","pa5xtfb7nz2","mus","sloth","20","female","yes","yes","10","3","null","stimuli/sounds/guitar_label_A.wav","null","","","","","","",""
"","","","","","image-keyboard-response","8","2.0.0","33920","pa5xtfb7nz2","mus","sloth","20","female","yes","yes","10","3","613","stimuli/pictures/guitar_acoustic_1.jpg","1","1","true","true","","","",""
"","","","","","audio-keyboard-response","9","2.0.0","34730","pa5xtfb7nz2","mus","sloth","20","female","yes","yes","10","3","null","stimuli/sounds/bleep.wav","null","","","","","","",""
"","","","","","html-keyboard-response","10","2.0.0","35448","pa5xtfb7nz2","mus","sloth","20","female","yes","yes","10","3","null","<p style='color:green; font-size:30px;'>Correct!</p>","null","","","","","","",""
"","","","","","html-keyboard-response","11","2.0.0","35957","pa5xtfb7nz2","mus","sloth","20","female","yes","yes","10","3","null","<div style=""font-size:60px;"">+</div>","null","","","","","","",""
"","","","","","audio-keyboard-response","12","2.0.0","36550","pa5xtfb7nz2","mus","sloth","20","female","yes","yes","10","3","null","stimuli/sounds/guitar_sound_B.wav","null","","","","","","",""
"","","","","","image-keyboard-response","13","2.0.0","37260","pa5xtfb7nz2","mus","sloth","20","female","yes","yes","10","3","709","stimuli/pictures/guitar_acoustic_2.jpg","1","1","true","true","","","",""
"","","","","","audio-keyboard-response","14","2.0.0","38068","pa5xtfb7nz2","mus","sloth","20","female","yes","yes","10","3","null","stimuli/sounds/bleep.wav","null","","","","","","",""
"","","","","","html-keyboard-response","15","2.0.0","38773","pa5xtfb7nz2","mus","sloth","20","female","yes","yes","10","3","null","<p style='color:green; font-size:30px;'>Correct!</p>","null","","","","","","",""
"","","","","","html-keyboard-response","16","2.0.0","39284","pa5xtfb7nz2","mus","sloth","20","female","yes","yes","10","3","null","<div style=""font-size:60px;"">+</div>","null","","","","","","",""
"","","","","","audio-keyboard-response","17","2.0.0","39891","pa5xtfb7nz2","mus","sloth","20","female","yes","yes","10","3","null","stimuli/sounds/flute_sound_A.wav","null","","","","","","",""
"","","","","","image-keyboard-response","18","2.0.0","40641","pa5xtfb7nz2","mus","sloth","20","female","yes","yes","10","3","748","stimuli/pictures/guitar_electric_1.jpg","1","0","true","false","","","",""
"","","","","","audio-keyboard-response","19","2.0.0","41451","pa5xtfb7nz2","mus","sloth","20","female","yes","yes","10","3","null","stimuli/sounds/buzz.wav","null","","","","","","",""
"","","","","","html-keyboard-response","20","2.0.0","42159","pa5xtfb7nz2","mus","sloth","20","female","yes","yes","10","3","null","<p style='color:red; font-size:30px;'>Incorrect</p>","null","","","","","","",""
"","","","","","html-keyboard-response","21","2.0.0","42677","pa5xtfb7nz2","mus","sloth","20","female","yes","yes","10","3","null","<div style=""font-size:60px;"">+</div>","null","","","","","","",""
"","","","","","audio-keyboard-response","22","2.0.0","43270","pa5xtfb7nz2","mus","sloth","20","female","yes","yes","10","3","null","stimuli/sounds/guitar_sound_A.wav","null","","","","","","",""
"","","","","","image-keyboard-response","23","2.0.0","44085","pa5xtfb7nz2","mus","sloth","20","female","yes","yes","10","3","814","stimuli/pictures/guitar_acoustic_1.jpg","0","1","true","false","","","",""
"","","","","","audio-keyboard-response","24","2.0.0","44895","pa5xtfb7nz2","mus","sloth","20","female","yes","yes","10","3","null","stimuli/sounds/buzz.wav","null","","","","","","",""
"","","","","","html-keyboard-response","25","2.0.0","45602","pa5xtfb7nz2","mus","sloth","20","female","yes","yes","10","3","null","<p style='color:red; font-size:30px;'>Incorrect</p>","null","","","","","","",""
"","","","","","html-keyboard-response","26","2.0.0","48732","pa5xtfb7nz2","mus","sloth","20","female","yes","yes","10","3","3129","<p>Practice complete. Press any key to begin the real experiment.</p>"," ","","","","","","",""
"","","","","","html-keyboard-response","27","2.0.0","50687","pa5xtfb7nz2","mus","sloth","20","female","yes","yes","10","3","1954","<div style=""font-size:30px;"">Press space to start the trial</div>"," ","","","","","","",""
"","","","","","html-keyboard-response","28","2.0.0","50944","pa5xtfb7nz2","mus","sloth","20","female","yes","yes","10","3","null","<div style=""font-size:60px;"">+</div>","null","","","","","","",""
"","","","","","audio-keyboard-response","29","2.0.0","51541","pa5xtfb7nz2","mus","sloth","20","female","yes","yes","10","3","null","stimuli/sounds/bird_sound_B.wav","null","","","","","","",""
"","","","","","html-keyboard-response","30","2.0.0","52550","pa5xtfb7nz2","mus","sloth","20","female","yes","yes","10","3","null","","null","","","","","","",""
"","","","","","image-keyboard-response","31","2.0.0","53498","pa5xtfb7nz2","mus","sloth","20","female","yes","yes","10","3","946","stimuli/pictures/drum_kit_1.jpg","0","0","","true","no","sound","stimuli/sounds/bird_sound_B.wav",""
"","","","","","audio-keyboard-response","32","2.0.0","54501","pa5xtfb7nz2","mus","sloth","20","female","yes","yes","10","3","null","stimuli/sounds/bleep.wav","null","","","","","","",""
"","","","","","html-keyboard-response","33","2.0.0","58257","pa5xtfb7nz2","mus","sloth","20","female","yes","yes","10","3","3647","<div style=""font-size:30px;"">Press space to start the trial</div>"," ","","","","","","",""
"","","","","","html-keyboard-response","34","2.0.0","58524","pa5xtfb7nz2","mus","sloth","20","female","yes","yes","10","3","null","<div style=""font-size:60px;"">+</div>","null","","","","","","",""
"","","","","","audio-keyboard-response","35","2.0.0","59130","pa5xtfb7nz2","mus","sloth","20","female","yes","yes","10","3","null","stimuli/sounds/piano_sound_A.wav","null","","","","","","",""
"","","","","","html-keyboard-response","36","2.0.0","60139","pa5xtfb7nz2","mus","sloth","20","female","yes","yes","10","3","null","","null","","","","","","",""
"","","","","","image-keyboard-response","37","2.0.0","60870","pa5xtfb7nz2","mus","sloth","20","female","yes","yes","10","3","729","stimuli/pictures/piano_grand_1.jpg","1","1","","true","yes","sound","stimuli/sounds/piano_sound_A.wav",""
"","","","","","audio-keyboard-response","38","2.0.0","61876","pa5xtfb7nz2","mus","sloth","20","female","yes","yes","10","3","null","stimuli/sounds/bleep.wav","null","","","","","","",""
"","","","","","html-keyboard-response","39","2.0.0","63038","pa5xtfb7nz2","mus","sloth","20","female","yes","yes","10","3","1054","<div style=""font-size:30px;"">Press space to start the trial</div>"," ","","","","","","",""
"","","","","","html-keyboard-response","40","2.0.0","63293","pa5xtfb7nz2","mus","sloth","20","female","yes","yes","10","3","null","<div style=""font-size:60px;"">+</div>","null","","","","","","",""
"","","","","","audio-keyboard-response","41","2.0.0","63890","pa5xtfb7nz2","mus","sloth","20","female","yes","yes","10","3","null","stimuli/sounds/bird_sound_B.wav","null","","","","","","",""
"","","","","","html-keyboard-response","42","2.0.0","64896","pa5xtfb7nz2","mus","sloth","20","female","yes","yes","10","3","null","","null","","","","","","",""
"","","","","","image-keyboard-response","43","2.0.0","65868","pa5xtfb7nz2","mus","sloth","20","female","yes","yes","10","3","970","stimuli/pictures/bird_song_2.jpg","1","1","","true","yes","sound","stimuli/sounds/bird_sound_B.wav",""
"","","","","","audio-keyboard-response","44","2.0.0","66884","pa5xtfb7nz2","mus","sloth","20","female","yes","yes","10","3","null","stimuli/sounds/bleep.wav","null","","","","","","",""
"","","","","","html-keyboard-response","45","2.0.0","68565","pa5xtfb7nz2","mus","sloth","20","female","yes","yes","10","3","1572","<div style=""font-size:30px;"">Press space to start the trial</div>"," ","","","","","","",""
"","","","","","html-keyboard-response","46","2.0.0","68817","pa5xtfb7nz2","mus","sloth","20","female","yes","yes","10","3","null","<div style=""font-size:60px;"">+</div>","null","","","","","","",""
"","","","","","audio-keyboard-response","47","2.0.0","69421","pa5xtfb7nz2","mus","sloth","20","female","yes","yes","10","3","null","stimuli/sounds/flute_sound_A.wav","null","","","","","","",""
"","","","","","html-keyboard-response","48","2.0.0","70424","pa5xtfb7nz2","mus","sloth","20","female","yes","yes","10","3","null","","null","","","","","","",""
"","","","","","image-keyboard-response","49","2.0.0","71450","pa5xtfb7nz2","mus","sloth","20","female","yes","yes","10","3","1024","stimuli/pictures/flute_wooden_1.jpg","1","1","","true","no","sound","stimuli/sounds/flute_sound_A.wav",""
"","","","","","audio-keyboard-response","50","2.0.0","72451","pa5xtfb7nz2","mus","sloth","20","female","yes","yes","10","3","null","stimuli/sounds/bleep.wav","null","","","","","","",""
"","","","","","html-keyboard-response","51","2.0.0","73068","pa5xtfb7nz2","mus","sloth","20","female","yes","yes","10","3","508","<div style=""font-size:30px;"">Press space to start the trial</div>"," ","","","","","","",""
"","","","","","html-keyboard-response","52","2.0.0","73323","pa5xtfb7nz2","mus","sloth","20","female","yes","yes","10","3","null","<div style=""font-size:60px;"">+</div>","null","","","","","","",""
"","","","","","audio-keyboard-response","53","2.0.0","73930","pa5xtfb7nz2","mus","sloth","20","female","yes","yes","10","3","null","stimuli/sounds/flute_sound_A.wav","null","","","","","","",""
"","","","","","html-keyboard-response","54","2.0.0","74934","pa5xtfb7nz2","mus","sloth","20","female","yes","yes","10","3","null","","null","","","","","","",""
"","","","","","image-keyboard-response","55","2.0.0","75539","pa5xtfb7nz2","mus","sloth","20","female","yes","yes","10","3","603","stimuli/pictures/phone_rotary_1.jpg","0","0","","true","no","sound","stimuli/sounds/flute_sound_A.wav",""
"","","","","","audio-keyboard-response","56","2.0.0","76549","pa5xtfb7nz2","mus","sloth","20","female","yes","yes","10","3","null","stimuli/sounds/bleep.wav","null","","","","","","",""
"","","","","","html-keyboard-response","57","2.0.0","76940","pa5xtfb7nz2","mus","sloth","20","female","yes","yes","10","3","281","<div style=""font-size:30px;"">Press space to start the trial</div>"," ","","","","","","",""
"","","","","","html-keyboard-response","58","2.0.0","77201","pa5xtfb7nz2","mus","sloth","20","female","yes","yes","10","3","null","<div style=""font-size:60px;"">+</div>","null","","","","","","",""
"","","","","","audio-keyboard-response","59","2.0.0","77810","pa5xtfb7nz2","mus","sloth","20","female","yes","yes","10","3","null","stimuli/sounds/flute_sound_B.wav","null","","","","","","",""
"","","","","","html-keyboard-response","60","2.0.0","78818","pa5xtfb7nz2","mus","sloth","20","female","yes","yes","10","3","null","","null","","","","","","",""
"","","","","","image-keyboard-response","61","2.0.0","79687","pa5xtfb7nz2","mus","sloth","20","female","yes","yes","10","3","868","stimuli/pictures/flute_wooden_2.jpg","1","1","","true","yes","sound","stimuli/sounds/flute_sound_B.wav",""
"","","","","","audio-keyboard-response","62","2.0.0","80696","pa5xtfb7nz2","mus","sloth","20","female","yes","yes","10","3","null","stimuli/sounds/bleep.wav","null","","","","","","",""
"","","","","","html-keyboard-response","63","2.0.0","81788","pa5xtfb7nz2","mus","sloth","20","female","yes","yes","10","3","976","<div style=""font-size:30px;"">Press space to start the trial</div>"," ","","","","","","",""
"","","","","","html-keyboard-response","64","2.0.0","82049","pa5xtfb7nz2","mus","sloth","20","female","yes","yes","10","3","null","<div style=""font-size:60px;"">+</div>","null","","","","","","",""
"","","","","","audio-keyboard-response","65","2.0.0","82661","pa5xtfb7nz2","mus","sloth","20","female","yes","yes","10","3","null","stimuli/sounds/piano_sound_B.wav","null","","","","","","",""
"","","","","","html-keyboard-response","66","2.0.0","83669","pa5xtfb7nz2","mus","sloth","20","female","yes","yes","10","3","null","","null","","","","","","",""
"","","","","","image-keyboard-response","67","2.0.0","84399","pa5xtfb7nz2","mus","sloth","20","female","yes","yes","10","3","729","stimuli/pictures/flute_wooden_2.jpg","0","0","","true","no","sound","stimuli/sounds/piano_sound_B.wav",""
"","","","","","audio-keyboard-response","68","2.0.0","85409","pa5xtfb7nz2","mus","sloth","20","female","yes","yes","10","3","null","stimuli/sounds/bleep.wav","null","","","","","","",""
"","","","","","html-keyboard-response","69","2.0.0","86015","pa5xtfb7nz2","mus","sloth","20","female","yes","yes","10","3","498","<div style=""font-size:30px;"">Press space to start the trial</div>"," ","","","","","","",""
"","","","","","html-keyboard-response","70","2.0.0","86268","pa5xtfb7nz2","mus","sloth","20","female","yes","yes","10","3","null","<div style=""font-size:60px;"">+</div>","null","","","","","","",""
"","","","","","audio-keyboard-response","71","2.0.0","86871","pa5xtfb7nz2","mus","sloth","20","female","yes","yes","10","3","null","stimuli/sounds/piano_sound_A.wav","null","","","","","","",""
"","","","","","html-keyboard-response","72","2.0.0","87873","pa5xtfb7nz2","mus","sloth","20","female","yes","yes","10","3","null","","null","","","","","","",""
"","","","","","image-keyboard-response","73","2.0.0","88602","pa5xtfb7nz2","mus","sloth","20","female","yes","yes","10","3","726","stimuli/pictures/drum_bongo_2.jpg","0","0","","true","no","sound","stimuli/sounds/piano_sound_A.wav",""
"","","","","","audio-keyboard-response","74","2.0.0","89610","pa5xtfb7nz2","mus","sloth","20","female","yes","yes","10","3","null","stimuli/sounds/bleep.wav","null","","","","","","",""
"","","","","","html-keyboard-response","75","2.0.0","90136","pa5xtfb7nz2","mus","sloth","20","female","yes","yes","10","3","418","<div style=""font-size:30px;"">Press space to start the trial</div>"," ","","","","","","",""
"","","","","","html-keyboard-response","76","2.0.0","90390","pa5xtfb7nz2","mus","sloth","20","female","yes","yes","10","3","null","<div style=""font-size:60px;"">+</div>","null","","","","","","",""
"","","","","","audio-keyboard-response","77","2.0.0","91020","pa5xtfb7nz2","mus","sloth","20","female","yes","yes","10","3","null","stimuli/sounds/piano_label_A.wav","null","","","","","","",""
"","","","","","html-keyboard-response","78","2.0.0","92031","pa5xtfb7nz2","mus","sloth","20","female","yes","yes","10","3","null","","null","","","","","","",""
"","","","","","image-keyboard-response","79","2.0.0","93873","pa5xtfb7nz2","mus","sloth","20","female","yes","yes","10","3","1841","stimuli/pictures/piano_electric_2.jpg","1","1","","true","yes","sound","stimuli/sounds/piano_label_A.wav",""
"","","","","","audio-keyboard-response","80","2.0.0","94885","pa5xtfb7nz2","mus","sloth","20","female","yes","yes","10","3","null","stimuli/sounds/bleep.wav","null","","","","","","",""
"","","","","","html-keyboard-response","81","2.0.0","95639","pa5xtfb7nz2","mus","sloth","20","female","yes","yes","10","3","646","<div style=""font-size:30px;"">Press space to start the trial</div>"," ","","","","","","",""
"","","","","","html-keyboard-response","82","2.0.0","95901","pa5xtfb7nz2","mus","sloth","20","female","yes","yes","10","3","null","<div style=""font-size:60px;"">+</div>","null","","","","","","",""
"","","","","","audio-keyboard-response","83","2.0.0","96501","pa5xtfb7nz2","mus","sloth","20","female","yes","yes","10","3","null","stimuli/sounds/drum_label_A.wav","null","","","","","","",""
"","","","","","html-keyboard-response","84","2.0.0","97518","pa5xtfb7nz2","mus","sloth","20","female","yes","yes","10","3","null","","null","","","","","","",""
"","","","","","image-keyboard-response","85","2.0.0","98107","pa5xtfb7nz2","mus","sloth","20","female","yes","yes","10","3","587","stimuli/pictures/bird_song_1.jpg","0","0","","true","no","sound","stimuli/sounds/drum_label_A.wav",""
"","","","","","audio-keyboard-response","86","2.0.0","99114","pa5xtfb7nz2","mus","sloth","20","female","yes","yes","10","3","null","stimuli/sounds/bleep.wav","null","","","","","","",""
"","","","","","html-keyboard-response","87","2.0.0","99716","pa5xtfb7nz2","mus","sloth","20","female","yes","yes","10","3","500","<div style=""font-size:30px;"">Press space to start the trial</div>"," ","","","","","","",""
"","","","","","html-keyboard-response","88","2.0.0","99983","pa5xtfb7nz2","mus","sloth","20","female","yes","yes","10","3","null","<div style=""font-size:60px;"">+</div>","null","","","","","","",""
"","","","","","audio-keyboard-response","89","2.0.0","100610","pa5xtfb7nz2","mus","sloth","20","female","yes","yes","10","3","null","stimuli/sounds/piano_label_A.wav","null","","","","","","",""
"","","","","","html-keyboard-response","90","2.0.0","101626","pa5xtfb7nz2","mus","sloth","20","female","yes","yes","10","3","null","","null","","","","","","",""
"","","","","","image-keyboard-response","91","2.0.0","102120","pa5xtfb7nz2","mus","sloth","20","female","yes","yes","10","3","493","stimuli/pictures/phone_rotary_2.jpg","0","0","","true","no","sound","stimuli/sounds/piano_label_A.wav",""
"","","","","","audio-keyboard-response","92","2.0.0","103126","pa5xtfb7nz2","mus","sloth","20","female","yes","yes","10","3","null","stimuli/sounds/bleep.wav","null","","","","","","",""
"","","","","","html-keyboard-response","93","2.0.0","103404","pa5xtfb7nz2","mus","sloth","20","female","yes","yes","10","3","161","<div style=""font-size:30px;"">Press space to start the trial</div>"," ","","","","","","",""
"","","","","","html-keyboard-response","94","2.0.0","103659","pa5xtfb7nz2","mus","sloth","20","female","yes","yes","10","3","null","<div style=""font-size:60px;"">+</div>","null","","","","","","",""
"","","","","","audio-keyboard-response","95","2.0.0","104261","pa5xtfb7nz2","mus","sloth","20","female","yes","yes","10","3","null","stimuli/sounds/flute_sound_B.wav","null","","","","","","",""
"","","","","","html-keyboard-response","96","2.0.0","105268","pa5xtfb7nz2","mus","sloth","20","female","yes","yes","10","3","null","","null","","","","","","",""
"","","","","","image-keyboard-response","97","2.0.0","105774","pa5xtfb7nz2","mus","sloth","20","female","yes","yes","10","3","504","stimuli/pictures/bird_song_1.jpg","0","0","","true","no","sound","stimuli/sounds/flute_sound_B.wav",""
"","","","","","audio-keyboard-response","98","2.0.0","106790","pa5xtfb7nz2","mus","sloth","20","female","yes","yes","10","3","null","stimuli/sounds/bleep.wav","null","","","","","","",""
"","","","","","html-keyboard-response","99","2.0.0","107205","pa5xtfb7nz2","mus","sloth","20","female","yes","yes","10","3","304","<div style=""font-size:30px;"">Press space to start the trial</div>"," ","","","","","","",""
"","","","","","html-keyboard-response","100","2.0.0","107468","pa5xtfb7nz2","mus","sloth","20","female","yes","yes","10","3","null","<div style=""font-size:60px;"">+</div>","null","","","","","","",""
"","","","","","audio-keyboard-response","101","2.0.0","108060","pa5xtfb7nz2","mus","sloth","20","female","yes","yes","10","3","null","stimuli/sounds/drum_label_A.wav","null","","","","","","",""
"","","","","","html-keyboard-response","102","2.0.0","109075","pa5xtfb7nz2","mus","sloth","20","female","yes","yes","10","3","null","","null","","","","","","",""
"","","","","","image-keyboard-response","103","2.0.0","109581","pa5xtfb7nz2","mus","sloth","20","female","yes","yes","10","3","504","stimuli/pictures/drum_bongo_2.jpg","1","1","","true","yes","sound","stimuli/sounds/drum_label_A.wav",""
"","","","","","audio-keyboard-response","104","2.0.0","110585","pa5xtfb7nz2","mus","sloth","20","female","yes","yes","10","3","null","stimuli/sounds/bleep.wav","null","","","","","","",""
"","","","","","html-keyboard-response","105","2.0.0","110997","pa5xtfb7nz2","mus","sloth","20","female","yes","yes","10","3","303","<div style=""font-size:30px;"">Press space to start the trial</div>"," ","","","","","","",""
"","","","","","html-keyboard-response","106","2.0.0","111256","pa5xtfb7nz2","mus","sloth","20","female","yes","yes","10","3","null","<div style=""font-size:60px;"">+</div>","null","","","","","","",""
"","","","","","audio-keyboard-response","107","2.0.0","111850","pa5xtfb7nz2","mus","sloth","20","female","yes","yes","10","3","null","stimuli/sounds/phone_sound_A.wav","null","","","","","","",""
"","","","","","html-keyboard-response","108","2.0.0","112856","pa5xtfb7nz2","mus","sloth","20","female","yes","yes","10","3","null","","null","","","","","","",""
"","","","","","image-keyboard-response","109","2.0.0","113648","pa5xtfb7nz2","mus","sloth","20","female","yes","yes","10","3","791","stimuli/pictures/bird_hawk_1.jpg","0","0","","true","no","sound","stimuli/sounds/phone_sound_A.wav",""
"","","","","","audio-keyboard-response","110","2.0.0","114656","pa5xtfb7nz2","mus","sloth","20","female","yes","yes","10","3","null","stimuli/sounds/bleep.wav","null","","","","","","",""
"","","","","","html-keyboard-response","111","2.0.0","115171","pa5xtfb7nz2","mus","sloth","20","female","yes","yes","10","3","404","<div style=""font-size:30px;"">Press space to start the trial</div>"," ","","","","","","",""
"","","","","","html-keyboard-response","112","2.0.0","115426","pa5xtfb7nz2","mus","sloth","20","female","yes","yes","10","3","null","<div style=""font-size:60px;"">+</div>","null","","","","","","",""
"","","","","","audio-keyboard-response","113","2.0.0","116050","pa5xtfb7nz2","mus","sloth","20","female","yes","yes","10","3","null","stimuli/sounds/piano_label_A.wav","null","","","","","","",""
"","","","","","html-keyboard-response","114","2.0.0","117059","pa5xtfb7nz2","mus","sloth","20","female","yes","yes","10","3","null","","null","","","","","","",""
"","","","","","image-keyboard-response","115","2.0.0","117517","pa5xtfb7nz2","mus","sloth","20","female","yes","yes","10","3","456","stimuli/pictures/phone_cell_1.jpg","0","0","","true","no","sound","stimuli/sounds/piano_label_A.wav",""
"","","","","","audio-keyboard-response","116","2.0.0","118534","pa5xtfb7nz2","mus","sloth","20","female","yes","yes","10","3","null","stimuli/sounds/bleep.wav","null","","","","","","",""
"","","","","","html-keyboard-response","117","2.0.0","118905","pa5xtfb7nz2","mus","sloth","20","female","yes","yes","10","3","268","<div style=""font-size:30px;"">Press space to start the trial</div>"," ","","","","","","",""
"","","","","","html-keyboard-response","118","2.0.0","119161","pa5xtfb7nz2","mus","sloth","20","female","yes","yes","10","3","null","<div style=""font-size:60px;"">+</div>","null","","","","","","",""
"","","","","","audio-keyboard-response","119","2.0.0","119770","pa5xtfb7nz2","mus","sloth","20","female","yes","yes","10","3","null","stimuli/sounds/piano_sound_B.wav","null","","","","","","",""
"","","","","","html-keyboard-response","120","2.0.0","120776","pa5xtfb7nz2","mus","sloth","20","female","yes","yes","10","3","null","","null","","","","","","",""
"","","","","","image-keyboard-response","121","2.0.0","121412","pa5xtfb7nz2","mus","sloth","20","female","yes","yes","10","3","634","stimuli/pictures/piano_electric_1.jpg","1","1","","true","yes","sound","stimuli/sounds/piano_sound_B.wav",""
"","","","","","audio-keyboard-response","122","2.0.0","122414","pa5xtfb7nz2","mus","sloth","20","female","yes","yes","10","3","null","stimuli/sounds/bleep.wav","null","","","","","","",""
"","","","","","html-keyboard-response","123","2.0.0","122821","pa5xtfb7nz2","mus","sloth","20","female","yes","yes","10","3","305","<div style=""font-size:30px;"">Press space to start the trial</div>"," ","","","","","","",""
"","","","","","html-keyboard-response","124","2.0.0","123077","pa5xtfb7nz2","mus","sloth","20","female","yes","yes","10","3","null","<div style=""font-size:60px;"">+</div>","null","","","","","","",""
"","","","","","audio-keyboard-response","125","2.0.0","123681","pa5xtfb7nz2","mus","sloth","20","female","yes","yes","10","3","null","stimuli/sounds/flute_sound_A.wav","null","","","","","","",""
"","","","","","html-keyboard-response","126","2.0.0","124684","pa5xtfb7nz2","mus","sloth","20","female","yes","yes","10","3","null","","null","","","","","","",""
"","","","","","image-keyboard-response","127","2.0.0","125462","pa5xtfb7nz2","mus","sloth","20","female","yes","yes","10","3","777","stimuli/pictures/flute_wooden_2.jpg","1","1","","true","no","sound","stimuli/sounds/flute_sound_A.wav",""
"","","","","","audio-keyboard-response","128","2.0.0","126471","pa5xtfb7nz2","mus","sloth","20","female","yes","yes","10","3","null","stimuli/sounds/bleep.wav","null","","","","","","",""
"","","","","","html-keyboard-response","129","2.0.0","126871","pa5xtfb7nz2","mus","sloth","20","female","yes","yes","10","3","297","<div style=""font-size:30px;"">Press space to start the trial</div>"," ","","","","","","",""
"","","","","","html-keyboard-response","130","2.0.0","127125","pa5xtfb7nz2","mus","sloth","20","female","yes","yes","10","3","null","<div style=""font-size:60px;"">+</div>","null","","","","","","",""
"","","","","","audio-keyboard-response","131","2.0.0","127720","pa5xtfb7nz2","mus","sloth","20","female","yes","yes","10","3","null","stimuli/sounds/drum_sound_B.wav","null","","","","","","",""
"","","","","","html-keyboard-response","132","2.0.0","128724","pa5xtfb7nz2","mus","sloth","20","female","yes","yes","10","3","null","","null","","","","","","",""
"","","","","","image-keyboard-response","133","2.0.0","129231","pa5xtfb7nz2","mus","sloth","20","female","yes","yes","10","3","506","stimuli/pictures/drum_bongo_1.jpg","1","1","","true","yes","sound","stimuli/sounds/drum_sound_B.wav",""
"","","","","","audio-keyboard-response","134","2.0.0","130240","pa5xtfb7nz2","mus","sloth","20","female","yes","yes","10","3","null","stimuli/sounds/bleep.wav","null","","","","","","",""
"","","","","","html-keyboard-response","135","2.0.0","130758","pa5xtfb7nz2","mus","sloth","20","female","yes","yes","10","3","410","<div style=""font-size:30px;"">Press space to start the trial</div>"," ","","","","","","",""
"","","","","","html-keyboard-response","136","2.0.0","131009","pa5xtfb7nz2","mus","sloth","20","female","yes","yes","10","3","null","<div style=""font-size:60px;"">+</div>","null","","","","","","",""
"","","","","","audio-keyboard-response","137","2.0.0","131611","pa5xtfb7nz2","mus","sloth","20","female","yes","yes","10","3","null","stimuli/sounds/phone_sound_B.wav","null","","","","","","",""
"","","","","","html-keyboard-response","138","2.0.0","132620","pa5xtfb7nz2","mus","sloth","20","female","yes","yes","10","3","null","","null","","","","","","",""
"","","","","","image-keyboard-response","139","2.0.0","133144","pa5xtfb7nz2","mus","sloth","20","female","yes","yes","10","3","522","stimuli/pictures/piano_electric_2.jpg","0","0","","true","no","sound","stimuli/sounds/phone_sound_B.wav",""
"","","","","","audio-keyboard-response","140","2.0.0","134148","pa5xtfb7nz2","mus","sloth","20","female","yes","yes","10","3","null","stimuli/sounds/bleep.wav","null","","","","","","",""
"","","","","","html-keyboard-response","141","2.0.0","134502","pa5xtfb7nz2","mus","sloth","20","female","yes","yes","10","3","247","<div style=""font-size:30px;"">Press space to start the trial</div>"," ","","","","","","",""
"","","","","","html-keyboard-response","142","2.0.0","134760","pa5xtfb7nz2","mus","sloth","20","female","yes","yes","10","3","null","<div style=""font-size:60px;"">+</div>","null","","","","","","",""
"","","","","","audio-keyboard-response","143","2.0.0","135371","pa5xtfb7nz2","mus","sloth","20","female","yes","yes","10","3","null","stimuli/sounds/flute_sound_B.wav","null","","","","","","",""
"","","","","","html-keyboard-response","144","2.0.0","136378","pa5xtfb7nz2","mus","sloth","20","female","yes","yes","10","3","null","","null","","","","","","",""
"","","","","","image-keyboard-response","145","2.0.0","136735","pa5xtfb7nz2","mus","sloth","20","female","yes","yes","10","3","355","stimuli/pictures/bird_hawk_1.jpg","0","0","","true","no","sound","stimuli/sounds/flute_sound_B.wav",""
"","","","","","audio-keyboard-response","146","2.0.0","137743","pa5xtfb7nz2","mus","sloth","20","female","yes","yes","10","3","null","stimuli/sounds/bleep.wav","null","","","","","","",""
"","","","","","html-keyboard-response","147","2.0.0","139751","pa5xtfb7nz2","mus","sloth","20","female","yes","yes","10","3","1906","<p>You have completed a block. Press R when you are ready to continue</p>","r","","","","","","",""
"","","","","","html-keyboard-response","148","2.0.0","142106","pa5xtfb7nz2","mus","sloth","20","female","yes","yes","10","3","2354","<div style=""font-size:30px;"">Press space to start the trial</div>"," ","","","","","","",""
"","","","","","html-keyboard-response","149","2.0.0","142364","pa5xtfb7nz2","mus","sloth","20","female","yes","yes","10","3","null","<div style=""font-size:60px;"">+</div>","null","","","","","","",""
"","","","","","audio-keyboard-response","150","2.0.0","142961","pa5xtfb7nz2","mus","sloth","20","female","yes","yes","10","3","null","stimuli/sounds/phone_label_B.wav","null","","","","","","",""
"","","","","","html-keyboard-response","151","2.0.0","143966","pa5xtfb7nz2","mus","sloth","20","female","yes","yes","10","3","null","","null","","","","","","",""
"","","","","","image-keyboard-response","152","2.0.0","144582","pa5xtfb7nz2","mus","sloth","20","female","yes","yes","10","3","614","stimuli/pictures/phone_cell_1.jpg","1","1","","true","yes","sound","stimuli/sounds/phone_label_B.wav",""
"","","","","","audio-keyboard-response","153","2.0.0","145595","pa5xtfb7nz2","mus","sloth","20","female","yes","yes","10","3","null","stimuli/sounds/bleep.wav","null","","","","","","",""
"","","","","","html-keyboard-response","154","2.0.0","146092","pa5xtfb7nz2","mus","sloth","20","female","yes","yes","10","3","393","<div style=""font-size:30px;"">Press space to start the trial</div>"," ","","","","","","",""
"","","","","","html-keyboard-response","155","2.0.0","146348","pa5xtfb7nz2","mus","sloth","20","female","yes","yes","10","3","null","<div style=""font-size:60px;"">+</div>","null","","","","","","",""
"","","","","","audio-keyboard-response","156","2.0.0","146950","pa5xtfb7nz2","mus","sloth","20","female","yes","yes","10","3","null","stimuli/sounds/flute_label_A.wav","null","","","","","","",""
"","","","","","html-keyboard-response","157","2.0.0","147956","pa5xtfb7nz2","mus","sloth","20","female","yes","yes","10","3","null","","null","","","","","","",""
"","","","","","image-keyboard-response","158","2.0.0","148481","pa5xtfb7nz2","mus","sloth","20","female","yes","yes","10","3","522","stimuli/pictures/piano_electric_2.jpg","0","0","","true","no","sound","stimuli/sounds/flute_label_A.wav",""
"","","","","","audio-keyboard-response","159","2.0.0","149490","pa5xtfb7nz2","mus","sloth","20","female","yes","yes","10","3","null","stimuli/sounds/bleep.wav","null","","","","","","",""
"","","","","","html-keyboard-response","160","2.0.0","150150","pa5xtfb7nz2","mus","sloth","20","female","yes","yes","10","3","559","<div style=""font-size:30px;"">Press space to start the trial</div>"," ","","","","","","",""
"","","","","","html-keyboard-response","161","2.0.0","150406","pa5xtfb7nz2","mus","sloth","20","female","yes","yes","10","3","null","<div style=""font-size:60px;"">+</div>","null","","","","","","",""
"","","","","","audio-keyboard-response","162","2.0.0","151010","pa5xtfb7nz2","mus","sloth","20","female","yes","yes","10","3","null","stimuli/sounds/piano_label_B.wav","null","","","","","","",""
"","","","","","html-keyboard-response","163","2.0.0","152020","pa5xtfb7nz2","mus","sloth","20","female","yes","yes","10","3","null","","null","","","","","","",""
"","","","","","image-keyboard-response","164","2.0.0","152471","pa5xtfb7nz2","mus","sloth","20","female","yes","yes","10","3","449","stimuli/pictures/bird_song_2.jpg","0","0","","true","no","sound","stimuli/sounds/piano_label_B.wav",""
"","","","","","audio-keyboard-response","165","2.0.0","153476","pa5xtfb7nz2","mus","sloth","20","female","yes","yes","10","3","null","stimuli/sounds/bleep.wav","null","","","","","","",""
"","","","","","html-keyboard-response","166","2.0.0","154181","pa5xtfb7nz2","mus","sloth","20","female","yes","yes","10","3","589","<div style=""font-size:30px;"">Press space to start the trial</div>"," ","","","","","","",""
"","","","","","html-keyboard-response","167","2.0.0","154435","pa5xtfb7nz2","mus","sloth","20","female","yes","yes","10","3","null","<div style=""font-size:60px;"">+</div>","null","","","","","","",""
"","","","","","audio-keyboard-response","168","2.0.0","155031","pa5xtfb7nz2","mus","sloth","20","female","yes","yes","10","3","null","stimuli/sounds/bird_sound_B.wav","null","","","","","","",""
"","","","","","html-keyboard-response","169","2.0.0","156042","pa5xtfb7nz2","mus","sloth","20","female","yes","yes","10","3","null","","null","","","","","","",""
"","","","","","image-keyboard-response","170","2.0.0","156696","pa5xtfb7nz2","mus","sloth","20","female","yes","yes","10","3","653","stimuli/pictures/bird_hawk_1.jpg","1","1","","true","no","sound","stimuli/sounds/bird_sound_B.wav",""
"","","","","","audio-keyboard-response","171","2.0.0","157708","pa5xtfb7nz2","mus","sloth","20","female","yes","yes","10","3","null","stimuli/sounds/bleep.wav","null","","","","","","",""
"","","","","","html-keyboard-response","172","2.0.0","158365","pa5xtfb7nz2","mus","sloth","20","female","yes","yes","10","3","551","<div style=""font-size:30px;"">Press space to start the trial</div>"," ","","","","","","",""
"","","","","","html-keyboard-response","173","2.0.0","158621","pa5xtfb7nz2","mus","sloth","20","female","yes","yes","10","3","null","<div style=""font-size:60px;"">+</div>","null","","","","","","",""
"","","","","","audio-keyboard-response","174","2.0.0","159220","pa5xtfb7nz2","mus","sloth","20","female","yes","yes","10","3","null","stimuli/sounds/bird_label_A.wav","null","","","","","","",""
"","","","","","html-keyboard-response","175","2.0.0","160225","pa5xtfb7nz2","mus","sloth","20","female","yes","yes","10","3","null","","null","","","","","","",""
"","","","","","image-keyboard-response","176","2.0.0","160670","pa5xtfb7nz2","mus","sloth","20","female","yes","yes","10","3","443","stimuli/pictures/flute_wooden_1.jpg","0","0","","true","no","sound","stimuli/sounds/bird_label_A.wav",""
"","","","","","audio-keyboard-response","177","2.0.0","161678","pa5xtfb7nz2","mus","sloth","20","female","yes","yes","10","3","null","stimuli/sounds/bleep.wav","null","","","","","","",""
"","","","","","html-keyboard-response","178","2.0.0","162103","pa5xtfb7nz2","mus","sloth","20","female","yes","yes","10","3","317","<div style=""font-size:30px;"">Press space to start the trial</div>"," ","","","","","","",""
"","","","","","html-keyboard-response","179","2.0.0","162361","pa5xtfb7nz2","mus","sloth","20","female","yes","yes","10","3","null","<div style=""font-size:60px;"">+</div>","null","","","","","","",""
"","","","","","audio-keyboard-response","180","2.0.0","162970","pa5xtfb7nz2","mus","sloth","20","female","yes","yes","10","3","null","stimuli/sounds/flute_sound_A.wav","null","","","","","","",""
"","","","","","html-keyboard-response","181","2.0.0","163974","pa5xtfb7nz2","mus","sloth","20","female","yes","yes","10","3","null","","null","","","","","","",""
"","","","","","image-keyboard-response","182","2.0.0","164457","pa5xtfb7nz2","mus","sloth","20","female","yes","yes","10","3","481","stimuli/pictures/phone_rotary_2.jpg","0","0","","true","no","sound","stimuli/sounds/flute_sound_A.wav",""
"","","","","","audio-keyboard-response","183","2.0.0","165475","pa5xtfb7nz2","mus","sloth","20","female","yes","yes","10","3","null","stimuli/sounds/bleep.wav","null","","","","","","",""
"","","","","","html-keyboard-response","184","2.0.0","165831","pa5xtfb7nz2","mus","sloth","20","female","yes","yes","10","3","246","<div style=""font-size:30px;"">Press space to start the trial</div>"," ","","","","","","",""
"","","","","","html-keyboard-response","185","2.0.0","166098","pa5xtfb7nz2","mus","sloth","20","female","yes","yes","10","3","null","<div style=""font-size:60px;"">+</div>","null","","","","","","",""
"","","","","","audio-keyboard-response","186","2.0.0","166690","pa5xtfb7nz2","mus","sloth","20","female","yes","yes","10","3","null","stimuli/sounds/bird_label_A.wav","null","","","","","","",""
"","","","","","html-keyboard-response","187","2.0.0","167704","pa5xtfb7nz2","mus","sloth","20","female","yes","yes","10","3","null","","null","","","","","","",""
"","","","","","image-keyboard-response","188","2.0.0","168420","pa5xtfb7nz2","mus","sloth","20","female","yes","yes","10","3","714","stimuli/pictures/bird_song_1.jpg","1","1","","true","yes","sound","stimuli/sounds/bird_label_A.wav",""
"","","","","","audio-keyboard-response","189","2.0.0","169430","pa5xtfb7nz2","mus","sloth","20","female","yes","yes","10","3","null","stimuli/sounds/bleep.wav","null","","","","","","",""
"","","","","","html-keyboard-response","190","2.0.0","169832","pa5xtfb7nz2","mus","sloth","20","female","yes","yes","10","3","292","<div style=""font-size:30px;"">Press space to start the trial</div>"," ","","","","","","",""
"","","","","","html-keyboard-response","191","2.0.0","170095","pa5xtfb7nz2","mus","sloth","20","female","yes","yes","10","3","null","<div style=""font-size:60px;"">+</div>","null","","","","","","",""
"","","","","","audio-keyboard-response","192","2.0.0","170691","pa5xtfb7nz2","mus","sloth","20","female","yes","yes","10","3","null","stimuli/sounds/bird_sound_A.wav","null","","","","","","",""
"","","","","","html-keyboard-response","193","2.0.0","171692","pa5xtfb7nz2","mus","sloth","20","female","yes","yes","10","3","null","","null","","","","","","",""
"","","","","","image-keyboard-response","194","2.0.0","172920","pa5xtfb7nz2","mus","sloth","20","female","yes","yes","10","3","1226","stimuli/pictures/piano_electric_1.jpg","0","0","","true","no","sound","stimuli/sounds/bird_sound_A.wav",""
"","","","","","audio-keyboard-response","195","2.0.0","173930","pa5xtfb7nz2","mus","sloth","20","female","yes","yes","10","3","null","stimuli/sounds/bleep.wav","null","","","","","","",""
"","","","","","html-keyboard-response","196","2.0.0","174501","pa5xtfb7nz2","mus","sloth","20","female","yes","yes","10","3","463","<div style=""font-size:30px;"">Press space to start the trial</div>"," ","","","","","","",""
"","","","","","html-keyboard-response","197","2.0.0","174768","pa5xtfb7nz2","mus","sloth","20","female","yes","yes","10","3","null","<div style=""font-size:60px;"">+</div>","null","","","","","","",""
"","","","","","audio-keyboard-response","198","2.0.0","175360","pa5xtfb7nz2","mus","sloth","20","female","yes","yes","10","3","null","stimuli/sounds/phone_label_A.wav","null","","","","","","",""
"","","","","","html-keyboard-response","199","2.0.0","176376","pa5xtfb7nz2","mus","sloth","20","female","yes","yes","10","3","null","","null","","","","","","",""
"","","","","","image-keyboard-response","200","2.0.0","177385","pa5xtfb7nz2","mus","sloth","20","female","yes","yes","10","3","1007","stimuli/pictures/phone_rotary_1.jpg","1","1","","true","yes","sound","stimuli/sounds/phone_label_A.wav",""
"","","","","","audio-keyboard-response","201","2.0.0","178390","pa5xtfb7nz2","mus","sloth","20","female","yes","yes","10","3","null","stimuli/sounds/bleep.wav","null","","","","","","",""
"","","","","","html-keyboard-response","202","2.0.0","178886","pa5xtfb7nz2","mus","sloth","20","female","yes","yes","10","3","388","<div style=""font-size:30px;"">Press space to start the trial</div>"," ","","","","","","",""
"","","","","","html-keyboard-response","203","2.0.0","179142","pa5xtfb7nz2","mus","sloth","20","female","yes","yes","10","3","null","<div style=""font-size:60px;"">+</div>","null","","","","","","",""
"","","","","","audio-keyboard-response","204","2.0.0","179741","pa5xtfb7nz2","mus","sloth","20","female","yes","yes","10","3","null","stimuli/sounds/drum_sound_A.wav","null","","","","","","",""
"","","","","","html-keyboard-response","205","2.0.0","180743","pa5xtfb7nz2","mus","sloth","20","female","yes","yes","10","3","null","","null","","","","","","",""
"","","","","","image-keyboard-response","206","2.0.0","181397","pa5xtfb7nz2","mus","sloth","20","female","yes","yes","10","3","653","stimuli/pictures/flute_metal_1.jpg","0","0","","true","no","sound","stimuli/sounds/drum_sound_A.wav",""
"","","","","","audio-keyboard-response","207","2.0.0","182409","pa5xtfb7nz2","mus","sloth","20","female","yes","yes","10","3","null","stimuli/sounds/bleep.wav","null","","","","","","",""
"","","","","","html-keyboard-response","208","2.0.0","182921","pa5xtfb7nz2","mus","sloth","20","female","yes","yes","10","3","403","<div style=""font-size:30px;"">Press space to start the trial</div>"," ","","","","","","",""
"","","","","","html-keyboard-response","209","2.0.0","183178","pa5xtfb7nz2","mus","sloth","20","female","yes","yes","10","3","null","<div style=""font-size:60px;"">+</div>","null","","","","","","",""
"","","","","","audio-keyboard-response","210","2.0.0","183771","pa5xtfb7nz2","mus","sloth","20","female","yes","yes","10","3","null","stimuli/sounds/bird_sound_B.wav","null","","","","","","",""
"","","","","","html-keyboard-response","211","2.0.0","184775","pa5xtfb7nz2","mus","sloth","20","female","yes","yes","10","3","null","","null","","","","","","",""
"","","","","","image-keyboard-response","212","2.0.0","186103","pa5xtfb7nz2","mus","sloth","20","female","yes","yes","10","3","1326","stimuli/pictures/drum_bongo_1.jpg","0","0","","true","no","sound","stimuli/sounds/bird_sound_B.wav",""
"","","","","","audio-keyboard-response","213","2.0.0","187106","pa5xtfb7nz2","mus","sloth","20","female","yes","yes","10","3","null","stimuli/sounds/bleep.wav","null","","","","","","",""
"","","","","","html-keyboard-response","214","2.0.0","187517","pa5xtfb7nz2","mus","sloth","20","female","yes","yes","10","3","307","<div style=""font-size:30px;"">Press space to start the trial</div>"," ","","","","","","",""
"","","","","","html-keyboard-response","215","2.0.0","187773","pa5xtfb7nz2","mus","sloth","20","female","yes","yes","10","3","null","<div style=""font-size:60px;"">+</div>","null","","","","","","",""
"","","","","","audio-keyboard-response","216","2.0.0","188370","pa5xtfb7nz2","mus","sloth","20","female","yes","yes","10","3","null","stimuli/sounds/drum_sound_B.wav","null","","","","","","",""
"","","","","","html-keyboard-response","217","2.0.0","189379","pa5xtfb7nz2","mus","sloth","20","female","yes","yes","10","3","null","","null","","","","","","",""
"","","","","","image-keyboard-response","218","2.0.0","190055","pa5xtfb7nz2","mus","sloth","20","female","yes","yes","10","3","674","stimuli/pictures/drum_kit_1.jpg","1","1","","true","no","sound","stimuli/sounds/drum_sound_B.wav",""
"","","","","","audio-keyboard-response","219","2.0.0","191057","pa5xtfb7nz2","mus","sloth","20","female","yes","yes","10","3","null","stimuli/sounds/bleep.wav","null","","","","","","",""
"","","","","","html-keyboard-response","220","2.0.0","191515","pa5xtfb7nz2","mus","sloth","20","female","yes","yes","10","3","347","<div style=""font-size:30px;"">Press space to start the trial</div>"," ","","","","","","",""
"","","","","","html-keyboard-response","221","2.0.0","191768","pa5xtfb7nz2","mus","sloth","20","female","yes","yes","10","3","null","<div style=""font-size:60px;"">+</div>","null","","","","","","",""
"","","","","","audio-keyboard-response","222","2.0.0","192361","pa5xtfb7nz2","mus","sloth","20","female","yes","yes","10","3","null","stimuli/sounds/bird_sound_A.wav","null","","","","","","",""
"","","","","","html-keyboard-response","223","2.0.0","193364","pa5xtfb7nz2","mus","sloth","20","female","yes","yes","10","3","null","","null","","","","","","",""
"","","","","","image-keyboard-response","224","2.0.0","194092","pa5xtfb7nz2","mus","sloth","20","female","yes","yes","10","3","726","stimuli/pictures/bird_song_2.jpg","1","1","","true","no","sound","stimuli/sounds/bird_sound_A.wav",""
"","","","","","audio-keyboard-response","225","2.0.0","195102","pa5xtfb7nz2","mus","sloth","20","female","yes","yes","10","3","null","stimuli/sounds/bleep.wav","null","","","","","","",""
"","","","","","html-keyboard-response","226","2.0.0","195566","pa5xtfb7nz2","mus","sloth","20","female","yes","yes","10","3","356","<div style=""font-size:30px;"">Press space to start the trial</div>"," ","","","","","","",""
"","","","","","html-keyboard-response","227","2.0.0","195820","pa5xtfb7nz2","mus","sloth","20","female","yes","yes","10","3","null","<div style=""font-size:60px;"">+</div>","null","","","","","","",""
"","","","","","audio-keyboard-response","228","2.0.0","196431","pa5xtfb7nz2","mus","sloth","20","female","yes","yes","10","3","null","stimuli/sounds/piano_sound_B.wav","null","","","","","","",""
"","","","","","html-keyboard-response","229","2.0.0","197445","pa5xtfb7nz2","mus","sloth","20","female","yes","yes","10","3","null","","null","","","","","","",""
"","","","","","image-keyboard-response","230","2.0.0","198357","pa5xtfb7nz2","mus","sloth","20","female","yes","yes","10","3","911","stimuli/pictures/flute_metal_2.jpg","0","0","","true","no","sound","stimuli/sounds/piano_sound_B.wav",""
"","","","","","audio-keyboard-response","231","2.0.0","199364","pa5xtfb7nz2","mus","sloth","20","female","yes","yes","10","3","null","stimuli/sounds/bleep.wav","null","","","","","","",""
"","","","","","html-keyboard-response","232","2.0.0","200003","pa5xtfb7nz2","mus","sloth","20","female","yes","yes","10","3","523","<div style=""font-size:30px;"">Press space to start the trial</div>"," ","","","","","","",""
"","","","","","html-keyboard-response","233","2.0.0","200257","pa5xtfb7nz2","mus","sloth","20","female","yes","yes","10","3","null","<div style=""font-size:60px;"">+</div>","null","","","","","","",""
"","","","","","audio-keyboard-response","234","2.0.0","200881","pa5xtfb7nz2","mus","sloth","20","female","yes","yes","10","3","null","stimuli/sounds/piano_label_A.wav","null","","","","","","",""
"","","","","","html-keyboard-response","235","2.0.0","201891","pa5xtfb7nz2","mus","sloth","20","female","yes","yes","10","3","null","","null","","","","","","",""
"","","","","","image-keyboard-response","236","2.0.0","203540","pa5xtfb7nz2","mus","sloth","20","female","yes","yes","10","3","1648","stimuli/pictures/phone_rotary_1.jpg","0","0","","true","no","sound","stimuli/sounds/piano_label_A.wav",""
"","","","","","audio-keyboard-response","237","2.0.0","204543","pa5xtfb7nz2","mus","sloth","20","female","yes","yes","10","3","null","stimuli/sounds/bleep.wav","null","","","","","","",""
"","","","","","html-keyboard-response","238","2.0.0","205036","pa5xtfb7nz2","mus","sloth","20","female","yes","yes","10","3","384","<div style=""font-size:30px;"">Press space to start the trial</div>"," ","","","","","","",""
"","","","","","html-keyboard-response","239","2.0.0","205289","pa5xtfb7nz2","mus","sloth","20","female","yes","yes","10","3","null","<div style=""font-size:60px;"">+</div>","null","","","","","","",""
"","","","","","audio-keyboard-response","240","2.0.0","205890","pa5xtfb7nz2","mus","sloth","20","female","yes","yes","10","3","null","stimuli/sounds/bird_sound_A.wav","null","","","","","","",""
"","","","","","html-keyboard-response","241","2.0.0","206895","pa5xtfb7nz2","mus","sloth","20","female","yes","yes","10","3","null","","null","","","","","","",""
"","","","","","image-keyboard-response","242","2.0.0","207374","pa5xtfb7nz2","mus","sloth","20","female","yes","yes","10","3","478","stimuli/pictures/bird_hawk_1.jpg","1","1","","true","yes","sound","stimuli/sounds/bird_sound_A.wav",""
"","","","","","audio-keyboard-response","243","2.0.0","208388","pa5xtfb7nz2","mus","sloth","20","female","yes","yes","10","3","null","stimuli/sounds/bleep.wav","null","","","","","","",""
"","","","","","html-keyboard-response","244","2.0.0","208505","pa5xtfb7nz2","mus","sloth","20","female","yes","yes","10","3","9","<div style=""font-size:30px;"">Press space to start the trial</div>"," ","","","","","","",""
"","","","","","html-keyboard-response","245","2.0.0","208758","pa5xtfb7nz2","mus","sloth","20","female","yes","yes","10","3","null","<div style=""font-size:60px;"">+</div>","null","","","","","","",""
"","","","","","audio-keyboard-response","246","2.0.0","209360","pa5xtfb7nz2","mus","sloth","20","female","yes","yes","10","3","null","stimuli/sounds/piano_label_B.wav","null","","","","","","",""
"","","","","","html-keyboard-response","247","2.0.0","210363","pa5xtfb7nz2","mus","sloth","20","female","yes","yes","10","3","null","","null","","","","","","",""
"","","","","","image-keyboard-response","248","2.0.0","210697","pa5xtfb7nz2","mus","sloth","20","female","yes","yes","10","3","332","stimuli/pictures/piano_electric_1.jpg","1","1","","true","yes","sound","stimuli/sounds/piano_label_B.wav",""
"","","","","","audio-keyboard-response","249","2.0.0","211710","pa5xtfb7nz2","mus","sloth","20","female","yes","yes","10","3","null","stimuli/sounds/bleep.wav","null","","","","","","",""
"","","","","","html-keyboard-response","250","2.0.0","212124","pa5xtfb7nz2","mus","sloth","20","female","yes","yes","10","3","304","<div style=""font-size:30px;"">Press space to start the trial</div>"," ","","","","","","",""
"","","","","","html-keyboard-response","251","2.0.0","212380","pa5xtfb7nz2","mus","sloth","20","female","yes","yes","10","3","null","<div style=""font-size:60px;"">+</div>","null","","","","","","",""
"","","","","","audio-keyboard-response","252","2.0.0","212981","pa5xtfb7nz2","mus","sloth","20","female","yes","yes","10","3","null","stimuli/sounds/drum_label_A.wav","null","","","","","","",""
"","","","","","html-keyboard-response","253","2.0.0","213987","pa5xtfb7nz2","mus","sloth","20","female","yes","yes","10","3","null","","null","","","","","","",""
"","","","","","image-keyboard-response","254","2.0.0","214544","pa5xtfb7nz2","mus","sloth","20","female","yes","yes","10","3","555","stimuli/pictures/bird_hawk_1.jpg","0","0","","true","no","sound","stimuli/sounds/drum_label_A.wav",""
"","","","","","audio-keyboard-response","255","2.0.0","215553","pa5xtfb7nz2","mus","sloth","20","female","yes","yes","10","3","null","stimuli/sounds/bleep.wav","null","","","","","","",""
"","","","","","html-keyboard-response","256","2.0.0","216100","pa5xtfb7nz2","mus","sloth","20","female","yes","yes","10","3","443","<div style=""font-size:30px;"">Press space to start the trial</div>"," ","","","","","","",""
"","","","","","html-keyboard-response","257","2.0.0","216357","pa5xtfb7nz2","mus","sloth","20","female","yes","yes","10","3","null","<div style=""font-size:60px;"">+</div>","null","","","","","","",""
"","","","","","audio-keyboard-response","258","2.0.0","216951","pa5xtfb7nz2","mus","sloth","20","female","yes","yes","10","3","null","stimuli/sounds/drum_label_B.wav","null","","","","","","",""
"","","","","","html-keyboard-response","259","2.0.0","217953","pa5xtfb7nz2","mus","sloth","20","female","yes","yes","10","3","null","","null","","","","","","",""
"","","","","","image-keyboard-response","260","2.0.0","218317","pa5xtfb7nz2","mus","sloth","20","female","yes","yes","10","3","363","stimuli/pictures/piano_electric_1.jpg","0","0","","true","no","sound","stimuli/sounds/drum_label_B.wav",""
"","","","","","audio-keyboard-response","261","2.0.0","219231","pa5xtfb7nz2","mus","sloth","20","female","yes","yes","10","3","920","stimuli/sounds/bleep.wav"," ","","","","","","",""
"","","","","","html-keyboard-response","262","2.0.0","219626","pa5xtfb7nz2","mus","sloth","20","female","yes","yes","10","3","288","<div style=""font-size:30px;"">Press space to start the trial</div>"," ","","","","","","",""
"","","","","","html-keyboard-response","263","2.0.0","219881","pa5xtfb7nz2","mus","sloth","20","female","yes","yes","10","3","null","<div style=""font-size:60px;"">+</div>","null","","","","","","",""
"","","","","","audio-keyboard-response","264","2.0.0","220490","pa5xtfb7nz2","mus","sloth","20","female","yes","yes","10","3","null","stimuli/sounds/piano_sound_A.wav","null","","","","","","",""
"","","","","","html-keyboard-response","265","2.0.0","221506","pa5xtfb7nz2","mus","sloth","20","female","yes","yes","10","3","null","","null","","","","","","",""
"","","","","","image-keyboard-response","266","2.0.0","221855","pa5xtfb7nz2","mus","sloth","20","female","yes","yes","10","3","348","stimuli/pictures/piano_electric_2.jpg","1","1","","true","no","sound","stimuli/sounds/piano_sound_A.wav",""
"","","","","","audio-keyboard-response","267","2.0.0","222864","pa5xtfb7nz2","mus","sloth","20","female","yes","yes","10","3","null","stimuli/sounds/bleep.wav","null","","","","","","",""
"","","","","","html-keyboard-response","268","2.0.0","224087","pa5xtfb7nz2","mus","sloth","20","female","yes","yes","10","3","1113","<p>You have completed a block. Press R when you are ready to continue</p>","r","","","","","","",""
"","","","","","html-keyboard-response","269","2.0.0","225109","pa5xtfb7nz2","mus","sloth","20","female","yes","yes","10","3","1021","<div style=""font-size:30px;"">Press space to start the trial</div>"," ","","","","","","",""
"","","","","","html-keyboard-response","270","2.0.0","225365","pa5xtfb7nz2","mus","sloth","20","female","yes","yes","10","3","null","<div style=""font-size:60px;"">+</div>","null","","","","","","",""
"","","","","","audio-keyboard-response","271","2.0.0","225991","pa5xtfb7nz2","mus","sloth","20","female","yes","yes","10","3","null","stimuli/sounds/piano_label_A.wav","null","","","","","","",""
"","","","","","html-keyboard-response","272","2.0.0","227005","pa5xtfb7nz2","mus","sloth","20","female","yes","yes","10","3","null","","null","","","","","","",""
"","","","","","image-keyboard-response","273","2.0.0","227443","pa5xtfb7nz2","mus","sloth","20","female","yes","yes","10","3","436","stimuli/pictures/phone_cell_2.jpg","0","0","","true","no","sound","stimuli/sounds/piano_label_A.wav",""
"","","","","","audio-keyboard-response","274","2.0.0","228248","pa5xtfb7nz2","mus","sloth","20","female","yes","yes","10","3","800","stimuli/sounds/bleep.wav"," ","","","","","","",""
"","","","","","html-keyboard-response","275","2.0.0","228683","pa5xtfb7nz2","mus","sloth","20","female","yes","yes","10","3","331","<div style=""font-size:30px;"">Press space to start the trial</div>"," ","","","","","","",""
"","","","","","html-keyboard-response","276","2.0.0","228941","pa5xtfb7nz2","mus","sloth","20","female","yes","yes","10","3","null","<div style=""font-size:60px;"">+</div>","null","","","","","","",""
"","","","","","audio-keyboard-response","277","2.0.0","229540","pa5xtfb7nz2","mus","sloth","20","female","yes","yes","10","3","null","stimuli/sounds/phone_label_B.wav","null","","","","","","",""
"","","","","","html-keyboard-response","278","2.0.0","230552","pa5xtfb7nz2","mus","sloth","20","female","yes","yes","10","3","null","","null","","","","","","",""
"","","","","","image-keyboard-response","279","2.0.0","231170","pa5xtfb7nz2","mus","sloth","20","female","yes","yes","10","3","616","stimuli/pictures/phone_rotary_2.jpg","1","1","","true","yes","sound","stimuli/sounds/phone_label_B.wav",""
"","","","","","audio-keyboard-response","280","2.0.0","232181","pa5xtfb7nz2","mus","sloth","20","female","yes","yes","10","3","null","stimuli/sounds/bleep.wav","null","","","","","","",""
"","","","","","html-keyboard-response","281","2.0.0","232607","pa5xtfb7nz2","mus","sloth","20","female","yes","yes","10","3","317","<div style=""font-size:30px;"">Press space to start the trial</div>"," ","","","","","","",""
"","","","","","html-keyboard-response","282","2.0.0","232866","pa5xtfb7nz2","mus","sloth","20","female","yes","yes","10","3","null","<div style=""font-size:60px;"">+</div>","null","","","","","","",""
"","","","","","audio-keyboard-response","283","2.0.0","233470","pa5xtfb7nz2","mus","sloth","20","female","yes","yes","10","3","null","stimuli/sounds/piano_sound_B.wav","null","","","","","","",""
"","","","","","html-keyboard-response","284","2.0.0","234472","pa5xtfb7nz2","mus","sloth","20","female","yes","yes","10","3","null","","null","","","","","","",""
"","","","","","image-keyboard-response","285","2.0.0","235328","pa5xtfb7nz2","mus","sloth","20","female","yes","yes","10","3","855","stimuli/pictures/flute_wooden_1.jpg","0","0","","true","no","sound","stimuli/sounds/piano_sound_B.wav",""
"","","","","","audio-keyboard-response","286","2.0.0","236341","pa5xtfb7nz2","mus","sloth","20","female","yes","yes","10","3","null","stimuli/sounds/bleep.wav","null","","","","","","",""
"","","","","","html-keyboard-response","287","2.0.0","236915","pa5xtfb7nz2","mus","sloth","20","female","yes","yes","10","3","465","<div style=""font-size:30px;"">Press space to start the trial</div>"," ","","","","","","",""
"","","","","","html-keyboard-response","288","2.0.0","237177","pa5xtfb7nz2","mus","sloth","20","female","yes","yes","10","3","null","<div style=""font-size:60px;"">+</div>","null","","","","","","",""
"","","","","","audio-keyboard-response","289","2.0.0","237770","pa5xtfb7nz2","mus","sloth","20","female","yes","yes","10","3","null","stimuli/sounds/drum_label_B.wav","null","","","","","","",""
"","","","","","html-keyboard-response","290","2.0.0","238780","pa5xtfb7nz2","mus","sloth","20","female","yes","yes","10","3","null","","null","","","","","","",""
"","","","","","image-keyboard-response","291","2.0.0","239423","pa5xtfb7nz2","mus","sloth","20","female","yes","yes","10","3","642","stimuli/pictures/drum_kit_1.jpg","1","1","","true","yes","sound","stimuli/sounds/drum_label_B.wav",""
"","","","","","audio-keyboard-response","292","2.0.0","240430","pa5xtfb7nz2","mus","sloth","20","female","yes","yes","10","3","null","stimuli/sounds/bleep.wav","null","","","","","","",""
"","","","","","html-keyboard-response","293","2.0.0","240780","pa5xtfb7nz2","mus","sloth","20","female","yes","yes","10","3","240","<div style=""font-size:30px;"">Press space to start the trial</div>"," ","","","","","","",""
"","","","","","html-keyboard-response","294","2.0.0","241040","pa5xtfb7nz2","mus","sloth","20","female","yes","yes","10","3","null","<div style=""font-size:60px;"">+</div>","null","","","","","","",""
"","","","","","audio-keyboard-response","295","2.0.0","241641","pa5xtfb7nz2","mus","sloth","20","female","yes","yes","10","3","null","stimuli/sounds/drum_sound_B.wav","null","","","","","","",""
"","","","","","html-keyboard-response","296","2.0.0","242648","pa5xtfb7nz2","mus","sloth","20","female","yes","yes","10","3","null","","null","","","","","","",""
"","","","","","image-keyboard-response","297","2.0.0","243120","pa5xtfb7nz2","mus","sloth","20","female","yes","yes","10","3","470","stimuli/pictures/phone_rotary_1.jpg","0","0","","true","no","sound","stimuli/sounds/drum_sound_B.wav",""
"","","","","","audio-keyboard-response","298","2.0.0","243746","pa5xtfb7nz2","mus","sloth","20","female","yes","yes","10","3","619","stimuli/sounds/bleep.wav"," ","","","","","","",""
"","","","","","html-keyboard-response","299","2.0.0","244126","pa5xtfb7nz2","mus","sloth","20","female","yes","yes","10","3","277","<div style=""font-size:30px;"">Press space to start the trial</div>"," ","","","","","","",""
"","","","","","html-keyboard-response","300","2.0.0","244391","pa5xtfb7nz2","mus","sloth","20","female","yes","yes","10","3","null","<div style=""font-size:60px;"">+</div>","null","","","","","","",""
"","","","","","audio-keyboard-response","301","2.0.0","244990","pa5xtfb7nz2","mus","sloth","20","female","yes","yes","10","3","null","stimuli/sounds/phone_sound_B.wav","null","","","","","","",""
"","","","","","html-keyboard-response","302","2.0.0","245997","pa5xtfb7nz2","mus","sloth","20","female","yes","yes","10","3","null","","null","","","","","","",""
"","","","","","image-keyboard-response","303","2.0.0","246713","pa5xtfb7nz2","mus","sloth","20","female","yes","yes","10","3","715","stimuli/pictures/phone_cell_2.jpg","1","1","","true","no","sound","stimuli/sounds/phone_sound_B.wav",""
"","","","","","audio-keyboard-response","304","2.0.0","247723","pa5xtfb7nz2","mus","sloth","20","female","yes","yes","10","3","null","stimuli/sounds/bleep.wav","null","","","","","","",""
"","","","","","html-keyboard-response","305","2.0.0","247898","pa5xtfb7nz2","mus","sloth","20","female","yes","yes","10","3","67","<div style=""font-size:30px;"">Press space to start the trial</div>"," ","","","","","","",""
"","","","","","html-keyboard-response","306","2.0.0","248154","pa5xtfb7nz2","mus","sloth","20","female","yes","yes","10","3","null","<div style=""font-size:60px;"">+</div>","null","","","","","","",""
"","","","","","audio-keyboard-response","307","2.0.0","248751","pa5xtfb7nz2","mus","sloth","20","female","yes","yes","10","3","null","stimuli/sounds/phone_sound_B.wav","null","","","","","","",""
"","","","","","html-keyboard-response","308","2.0.0","249756","pa5xtfb7nz2","mus","sloth","20","female","yes","yes","10","3","null","","null","","","","","","",""
"","","","","","image-keyboard-response","309","2.0.0","250200","pa5xtfb7nz2","mus","sloth","20","female","yes","yes","10","3","442","stimuli/pictures/phone_cell_1.jpg","1","1","","true","no","sound","stimuli/sounds/phone_sound_B.wav",""
"","","","","","audio-keyboard-response","310","2.0.0","251209","pa5xtfb7nz2","mus","sloth","20","female","yes","yes","10","3","null","stimuli/sounds/bleep.wav","null","","","","","","",""
"","","","","","html-keyboard-response","311","2.0.0","251563","pa5xtfb7nz2","mus","sloth","20","female","yes","yes","10","3","246","<div style=""font-size:30px;"">Press space to start the trial</div>"," ","","","","","","",""
"","","","","","html-keyboard-response","312","2.0.0","251828","pa5xtfb7nz2","mus","sloth","20","female","yes","yes","10","3","null","<div style=""font-size:60px;"">+</div>","null","","","","","","",""
"","","","","","audio-keyboard-response","313","2.0.0","252420","pa5xtfb7nz2","mus","sloth","20","female","yes","yes","10","3","null","stimuli/sounds/bird_sound_A.wav","null","","","","","","",""
"","","","","","html-keyboard-response","314","2.0.0","253422","pa5xtfb7nz2","mus","sloth","20","female","yes","yes","10","3","null","","null","","","","","","",""
"","","","","","image-keyboard-response","315","2.0.0","253821","pa5xtfb7nz2","mus","sloth","20","female","yes","yes","10","3","396","stimuli/pictures/bird_hawk_1.jpg","1","1","","true","yes","sound","stimuli/sounds/bird_sound_A.wav",""
"","","","","","audio-keyboard-response","316","2.0.0","254827","pa5xtfb7nz2","mus","sloth","20","female","yes","yes","10","3","null","stimuli/sounds/bleep.wav","null","","","","","","",""
"","","","","","html-keyboard-response","317","2.0.0","255334","pa5xtfb7nz2","mus","sloth","20","female","yes","yes","10","3","406","<div style=""font-size:30px;"">Press space to start the trial</div>"," ","","","","","","",""
"","","","","","html-keyboard-response","318","2.0.0","255590","pa5xtfb7nz2","mus","sloth","20","female","yes","yes","10","3","null","<div style=""font-size:60px;"">+</div>","null","","","","","","",""
"","","","","","audio-keyboard-response","319","2.0.0","256190","pa5xtfb7nz2","mus","sloth","20","female","yes","yes","10","3","null","stimuli/sounds/bird_sound_A.wav","null","","","","","","",""
"","","","","","html-keyboard-response","320","2.0.0","257195","pa5xtfb7nz2","mus","sloth","20","female","yes","yes","10","3","null","","null","","","","","","",""
"","","","","","image-keyboard-response","321","2.0.0","258308","pa5xtfb7nz2","mus","sloth","20","female","yes","yes","10","3","1111","stimuli/pictures/piano_electric_2.jpg","0","0","","true","no","sound","stimuli/sounds/bird_sound_A.wav",""
"","","","","","audio-keyboard-response","322","2.0.0","259315","pa5xtfb7nz2","mus","sloth","20","female","yes","yes","10","3","null","stimuli/sounds/bleep.wav","null","","","","","","",""
"","","","","","html-keyboard-response","323","2.0.0","259685","pa5xtfb7nz2","mus","sloth","20","female","yes","yes","10","3","262","<div style=""font-size:30px;"">Press space to start the trial</div>"," ","","","","","","",""
"","","","","","html-keyboard-response","324","2.0.0","259940","pa5xtfb7nz2","mus","sloth","20","female","yes","yes","10","3","null","<div style=""font-size:60px;"">+</div>","null","","","","","","",""
"","","","","","audio-keyboard-response","325","2.0.0","260550","pa5xtfb7nz2","mus","sloth","20","female","yes","yes","10","3","null","stimuli/sounds/piano_label_B.wav","null","","","","","","",""
"","","","","","html-keyboard-response","326","2.0.0","261556","pa5xtfb7nz2","mus","sloth","20","female","yes","yes","10","3","null","","null","","","","","","",""
"","","","","","image-keyboard-response","327","2.0.0","262012","pa5xtfb7nz2","mus","sloth","20","female","yes","yes","10","3","454","stimuli/pictures/piano_electric_2.jpg","1","1","","true","yes","sound","stimuli/sounds/piano_label_B.wav",""
"","","","","","audio-keyboard-response","328","2.0.0","263018","pa5xtfb7nz2","mus","sloth","20","female","yes","yes","10","3","null","stimuli/sounds/bleep.wav","null","","","","","","",""
"","","","","","html-keyboard-response","329","2.0.0","263398","pa5xtfb7nz2","mus","sloth","20","female","yes","yes","10","3","272","<div style=""font-size:30px;"">Press space to start the trial</div>"," ","","","","","","",""
"","","","","","html-keyboard-response","330","2.0.0","263653","pa5xtfb7nz2","mus","sloth","20","female","yes","yes","10","3","null","<div style=""font-size:60px;"">+</div>","null","","","","","","",""
"","","","","","audio-keyboard-response","331","2.0.0","264251","pa5xtfb7nz2","mus","sloth","20","female","yes","yes","10","3","null","stimuli/sounds/drum_sound_A.wav","null","","","","","","",""
"","","","","","html-keyboard-response","332","2.0.0","265260","pa5xtfb7nz2","mus","sloth","20","female","yes","yes","10","3","null","","null","","","","","","",""
"","","","","","image-keyboard-response","333","2.0.0","265652","pa5xtfb7nz2","mus","sloth","20","female","yes","yes","10","3","391","stimuli/pictures/drum_bongo_1.jpg","1","1","","true","no","sound","stimuli/sounds/drum_sound_A.wav",""
"","","","","","audio-keyboard-response","334","2.0.0","266663","pa5xtfb7nz2","mus","sloth","20","female","yes","yes","10","3","null","stimuli/sounds/bleep.wav","null","","","","","","",""
"","","","","","html-keyboard-response","335","2.0.0","266989","pa5xtfb7nz2","mus","sloth","20","female","yes","yes","10","3","216","<div style=""font-size:30px;"">Press space to start the trial</div>"," ","","","","","","",""
"","","","","","html-keyboard-response","336","2.0.0","267248","pa5xtfb7nz2","mus","sloth","20","female","yes","yes","10","3","null","<div style=""font-size:60px;"">+</div>","null","","","","","","",""
"","","","","","audio-keyboard-response","337","2.0.0","267840","pa5xtfb7nz2","mus","sloth","20","female","yes","yes","10","3","null","stimuli/sounds/bird_label_B.wav","null","","","","","","",""
"","","","","","html-keyboard-response","338","2.0.0","268850","pa5xtfb7nz2","mus","sloth","20","female","yes","yes","10","3","null","","null","","","","","","",""
"","","","","","image-keyboard-response","339","2.0.0","269825","pa5xtfb7nz2","mus","sloth","20","female","yes","yes","10","3","974","stimuli/pictures/phone_rotary_1.jpg","0","0","","true","no","sound","stimuli/sounds/bird_label_B.wav",""
"","","","","","audio-keyboard-response","340","2.0.0","270829","pa5xtfb7nz2","mus","sloth","20","female","yes","yes","10","3","null","stimuli/sounds/bleep.wav","null","","","","","","",""
"","","","","","html-keyboard-response","341","2.0.0","271194","pa5xtfb7nz2","mus","sloth","20","female","yes","yes","10","3","262","<div style=""font-size:30px;"">Press space to start the trial</div>"," ","","","","","","",""
"","","","","","html-keyboard-response","342","2.0.0","271453","pa5xtfb7nz2","mus","sloth","20","female","yes","yes","10","3","null","<div style=""font-size:60px;"">+</div>","null","","","","","","",""
"","","","","","audio-keyboard-response","343","2.0.0","272050","pa5xtfb7nz2","mus","sloth","20","female","yes","yes","10","3","null","stimuli/sounds/bird_label_B.wav","null","","","","","","",""
"","","","","","html-keyboard-response","344","2.0.0","273061","pa5xtfb7nz2","mus","sloth","20","female","yes","yes","10","3","null","","null","","","","","","",""
"","","","","","image-keyboard-response","345","2.0.0","273516","pa5xtfb7nz2","mus","sloth","20","female","yes","yes","10","3","453","stimuli/pictures/phone_rotary_2.jpg","0","0","","true","no","sound","stimuli/sounds/bird_label_B.wav",""
"","","","","","audio-keyboard-response","346","2.0.0","274522","pa5xtfb7nz2","mus","sloth","20","female","yes","yes","10","3","null","stimuli/sounds/bleep.wav","null","","","","","","",""
"","","","","","html-keyboard-response","347","2.0.0","274891","pa5xtfb7nz2","mus","sloth","20","female","yes","yes","10","3","260","<div style=""font-size:30px;"">Press space to start the trial</div>"," ","","","","","","",""
"","","","","","html-keyboard-response","348","2.0.0","275142","pa5xtfb7nz2","mus","sloth","20","female","yes","yes","10","3","null","<div style=""font-size:60px;"">+</div>","null","","","","","","",""
"","","","","","audio-keyboard-response","349","2.0.0","275751","pa5xtfb7nz2","mus","sloth","20","female","yes","yes","10","3","null","stimuli/sounds/piano_sound_A.wav","null","","","","","","",""
"","","","","","html-keyboard-response","350","2.0.0","276755","pa5xtfb7nz2","mus","sloth","20","female","yes","yes","10","3","null","","null","","","","","","",""
"","","","","","image-keyboard-response","351","2.0.0","277178","pa5xtfb7nz2","mus","sloth","20","female","yes","yes","10","3","422","stimuli/pictures/drum_kit_1.jpg","1","0","","false","no","sound","stimuli/sounds/piano_sound_A.wav",""
"","","","","","audio-keyboard-response","352","2.0.0","278185","pa5xtfb7nz2","mus","sloth","20","female","yes","yes","10","3","null","stimuli/sounds/buzz.wav","null","","","","","","",""
"","","","","","html-keyboard-response","353","2.0.0","278599","pa5xtfb7nz2","mus","sloth","20","female","yes","yes","10","3","312","<div style=""font-size:30px;"">Press space to start the trial</div>"," ","","","","","","",""
"","","","","","html-keyboard-response","354","2.0.0","278853","pa5xtfb7nz2","mus","sloth","20","female","yes","yes","10","3","null","<div style=""font-size:60px;"">+</div>","null","","","","","","",""
"","","","","","audio-keyboard-response","355","2.0.0","279451","pa5xtfb7nz2","mus","sloth","20","female","yes","yes","10","3","null","stimuli/sounds/phone_label_A.wav","null","","","","","","",""
"","","","","","html-keyboard-response","356","2.0.0","280453","pa5xtfb7nz2","mus","sloth","20","female","yes","yes","10","3","null","","null","","","","","","",""
"","","","","","image-keyboard-response","357","2.0.0","281494","pa5xtfb7nz2","mus","sloth","20","female","yes","yes","10","3","1038","stimuli/pictures/drum_bongo_1.jpg","0","0","","true","no","sound","stimuli/sounds/phone_label_A.wav",""
"","","","","","audio-keyboard-response","358","2.0.0","282506","pa5xtfb7nz2","mus","sloth","20","female","yes","yes","10","3","null","stimuli/sounds/bleep.wav","null","","","","","","",""
"","","","","","html-keyboard-response","359","2.0.0","283028","pa5xtfb7nz2","mus","sloth","20","female","yes","yes","10","3","414","<div style=""font-size:30px;"">Press space to start the trial</div>"," ","","","","","","",""
"","","","","","html-keyboard-response","360","2.0.0","283287","pa5xtfb7nz2","mus","sloth","20","female","yes","yes","10","3","null","<div style=""font-size:60px;"">+</div>","null","","","","","","",""
"","","","","","audio-keyboard-response","361","2.0.0","283890","pa5xtfb7nz2","mus","sloth","20","female","yes","yes","10","3","null","stimuli/sounds/piano_sound_B.wav","null","","","","","","",""
"","","","","","html-keyboard-response","362","2.0.0","284903","pa5xtfb7nz2","mus","sloth","20","female","yes","yes","10","3","null","","null","","","","","","",""
"","","","","","image-keyboard-response","363","2.0.0","285975","pa5xtfb7nz2","mus","sloth","20","female","yes","yes","10","3","1070","stimuli/pictures/piano_grand_1.jpg","1","1","","true","no","sound","stimuli/sounds/piano_sound_B.wav",""
"","","","","","audio-keyboard-response","364","2.0.0","286983","pa5xtfb7nz2","mus","sloth","20","female","yes","yes","10","3","null","stimuli/sounds/bleep.wav","null","","","","","","",""
"","","","","","html-keyboard-response","365","2.0.0","287228","pa5xtfb7nz2","mus","sloth","20","female","yes","yes","10","3","136","<div style=""font-size:30px;"">Press space to start the trial</div>"," ","","","","","","",""
"","","","","","html-keyboard-response","366","2.0.0","287480","pa5xtfb7nz2","mus","sloth","20","female","yes","yes","10","3","null","<div style=""font-size:60px;"">+</div>","null","","","","","","",""
"","","","","","audio-keyboard-response","367","2.0.0","288081","pa5xtfb7nz2","mus","sloth","20","female","yes","yes","10","3","null","stimuli/sounds/phone_label_B.wav","null","","","","","","",""
"","","","","","html-keyboard-response","368","2.0.0","289089","pa5xtfb7nz2","mus","sloth","20","female","yes","yes","10","3","null","","null","","","","","","",""
"","","","","","image-keyboard-response","369","2.0.0","289900","pa5xtfb7nz2","mus","sloth","20","female","yes","yes","10","3","809","stimuli/pictures/flute_metal_2.jpg","0","0","","true","no","sound","stimuli/sounds/phone_label_B.wav",""
"","","","","","audio-keyboard-response","370","2.0.0","290914","pa5xtfb7nz2","mus","sloth","20","female","yes","yes","10","3","null","stimuli/sounds/bleep.wav","null","","","","","","",""
"","","","","","html-keyboard-response","371","2.0.0","291164","pa5xtfb7nz2","mus","sloth","20","female","yes","yes","10","3","132","<div style=""font-size:30px;"">Press space to start the trial</div>"," ","","","","","","",""
"","","","","","html-keyboard-response","372","2.0.0","291424","pa5xtfb7nz2","mus","sloth","20","female","yes","yes","10","3","null","<div style=""font-size:60px;"">+</div>","null","","","","","","",""
"","","","","","audio-keyboard-response","373","2.0.0","292030","pa5xtfb7nz2","mus","sloth","20","female","yes","yes","10","3","null","stimuli/sounds/flute_sound_B.wav","null","","","","","","",""
"","","","","","html-keyboard-response","374","2.0.0","293042","pa5xtfb7nz2","mus","sloth","20","female","yes","yes","10","3","null","","null","","","","","","",""
"","","","","","image-keyboard-response","375","2.0.0","293627","pa5xtfb7nz2","mus","sloth","20","female","yes","yes","10","3","584","stimuli/pictures/bird_song_2.jpg","0","0","","true","no","sound","stimuli/sounds/flute_sound_B.wav",""
"","","","","","audio-keyboard-response","376","2.0.0","294630","pa5xtfb7nz2","mus","sloth","20","female","yes","yes","10","3","null","stimuli/sounds/bleep.wav","null","","","","","","",""
"","","","","","html-keyboard-response","377","2.0.0","295018","pa5xtfb7nz2","mus","sloth","20","female","yes","yes","10","3","287","<div style=""font-size:30px;"">Press space to start the trial</div>"," ","","","","","","",""
"","","","","","html-keyboard-response","378","2.0.0","295279","pa5xtfb7nz2","mus","sloth","20","female","yes","yes","10","3","null","<div style=""font-size:60px;"">+</div>","null","","","","","","",""
"","","","","","audio-keyboard-response","379","2.0.0","295870","pa5xtfb7nz2","mus","sloth","20","female","yes","yes","10","3","null","stimuli/sounds/bird_label_B.wav","null","","","","","","",""
"","","","","","html-keyboard-response","380","2.0.0","296878","pa5xtfb7nz2","mus","sloth","20","female","yes","yes","10","3","null","","null","","","","","","",""
"","","","","","image-keyboard-response","381","2.0.0","297431","pa5xtfb7nz2","mus","sloth","20","female","yes","yes","10","3","551","stimuli/pictures/bird_song_1.jpg","1","1","","true","yes","sound","stimuli/sounds/bird_label_B.wav",""
"","","","","","audio-keyboard-response","382","2.0.0","298439","pa5xtfb7nz2","mus","sloth","20","female","yes","yes","10","3","null","stimuli/sounds/bleep.wav","null","","","","","","",""
"","","","","","html-keyboard-response","383","2.0.0","298800","pa5xtfb7nz2","mus","sloth","20","female","yes","yes","10","3","255","<div style=""font-size:30px;"">Press space to start the trial</div>"," ","","","","","","",""
"","","","","","html-keyboard-response","384","2.0.0","299056","pa5xtfb7nz2","mus","sloth","20","female","yes","yes","10","3","null","<div style=""font-size:60px;"">+</div>","null","","","","","","",""
"","","","","","audio-keyboard-response","385","2.0.0","299660","pa5xtfb7nz2","mus","sloth","20","female","yes","yes","10","3","null","stimuli/sounds/flute_label_B.wav","null","","","","","","",""
"","","","","","html-keyboard-response","386","2.0.0","300661","pa5xtfb7nz2","mus","sloth","20","female","yes","yes","10","3","null","","null","","","","","","",""
"","","","","","image-keyboard-response","387","2.0.0","301394","pa5xtfb7nz2","mus","sloth","20","female","yes","yes","10","3","731","stimuli/pictures/flute_wooden_2.jpg","1","1","","true","yes","sound","stimuli/sounds/flute_label_B.wav",""
"","","","","","audio-keyboard-response","388","2.0.0","302401","pa5xtfb7nz2","mus","sloth","20","female","yes","yes","10","3","null","stimuli/sounds/bleep.wav","null","","","","","","",""
"","","","","","html-keyboard-response","389","2.0.0","303482","pa5xtfb7nz2","mus","sloth","20","female","yes","yes","10","3","963","<p>You have completed a block. Press R when you are ready to continue</p>","r","","","","","","",""
"","","","","","html-keyboard-response","390","2.0.0","304151","pa5xtfb7nz2","mus","sloth","20","female","yes","yes","10","3","669","<div style=""font-size:30px;"">Press space to start the trial</div>"," ","","","","","","",""
"","","","","","html-keyboard-response","391","2.0.0","304406","pa5xtfb7nz2","mus","sloth","20","female","yes","yes","10","3","null","<div style=""font-size:60px;"">+</div>","null","","","","","","",""
"","","","","","audio-keyboard-response","392","2.0.0","305000","pa5xtfb7nz2","mus","sloth","20","female","yes","yes","10","3","null","stimuli/sounds/bird_label_B.wav","null","","","","","","",""
"","","","","","html-keyboard-response","393","2.0.0","306003","pa5xtfb7nz2","mus","sloth","20","female","yes","yes","10","3","null","","null","","","","","","",""
"","","","","","image-keyboard-response","394","2.0.0","306480","pa5xtfb7nz2","mus","sloth","20","female","yes","yes","10","3","474","stimuli/pictures/phone_cell_1.jpg","0","0","","true","no","sound","stimuli/sounds/bird_label_B.wav",""
"","","","","","audio-keyboard-response","395","2.0.0","307167","pa5xtfb7nz2","mus","sloth","20","female","yes","yes","10","3","680","stimuli/sounds/bleep.wav"," ","","","","","","",""
"","","","","","html-keyboard-response","396","2.0.0","307388","pa5xtfb7nz2","mus","sloth","20","female","yes","yes","10","3","105","<div style=""font-size:30px;"">Press space to start the trial</div>"," ","","","","","","",""
"","","","","","html-keyboard-response","397","2.0.0","307650","pa5xtfb7nz2","mus","sloth","20","female","yes","yes","10","3","null","<div style=""font-size:60px;"">+</div>","null","","","","","","",""
"","","","","","audio-keyboard-response","398","2.0.0","308250","pa5xtfb7nz2","mus","sloth","20","female","yes","yes","10","3","null","stimuli/sounds/bird_label_B.wav","null","","","","","","",""
"","","","","","html-keyboard-response","399","2.0.0","309253","pa5xtfb7nz2","mus","sloth","20","female","yes","yes","10","3","null","","null","","","","","","",""
"","","","","","image-keyboard-response","400","2.0.0","309715","pa5xtfb7nz2","mus","sloth","20","female","yes","yes","10","3","460","stimuli/pictures/bird_hawk_1.jpg","1","1","","true","yes","sound","stimuli/sounds/bird_label_B.wav",""
"","","","","","audio-keyboard-response","401","2.0.0","309963","pa5xtfb7nz2","mus","sloth","20","female","yes","yes","10","3","251","stimuli/sounds/bleep.wav"," ","","","","","","",""
"","","","","","html-keyboard-response","402","2.0.0","310214","pa5xtfb7nz2","mus","sloth","20","female","yes","yes","10","3","148","<div style=""font-size:30px;"">Press space to start the trial</div>"," ","","","","","","",""
"","","","","","html-keyboard-response","403","2.0.0","310466","pa5xtfb7nz2","mus","sloth","20","female","yes","yes","10","3","null","<div style=""font-size:60px;"">+</div>","null","","","","","","",""
"","","","","","audio-keyboard-response","404","2.0.0","311071","pa5xtfb7nz2","mus","sloth","20","female","yes","yes","10","3","null","stimuli/sounds/flute_label_B.wav","null","","","","","","",""
"","","","","","html-keyboard-response","405","2.0.0","312072","pa5xtfb7nz2","mus","sloth","20","female","yes","yes","10","3","null","","null","","","","","","",""
"","","","","","image-keyboard-response","406","2.0.0","312796","pa5xtfb7nz2","mus","sloth","20","female","yes","yes","10","3","722","stimuli/pictures/flute_metal_2.jpg","1","1","","true","yes","sound","stimuli/sounds/flute_label_B.wav",""
"","","","","","audio-keyboard-response","407","2.0.0","313038","pa5xtfb7nz2","mus","sloth","20","female","yes","yes","10","3","240","stimuli/sounds/bleep.wav"," ","","","","","","",""
"","","","","","html-keyboard-response","408","2.0.0","313300","pa5xtfb7nz2","mus","sloth","20","female","yes","yes","10","3","161","<div style=""font-size:30px;"">Press space to start the trial</div>"," ","","","","","","",""
"","","","","","html-keyboard-response","409","2.0.0","313565","pa5xtfb7nz2","mus","sloth","20","female","yes","yes","10","3","null","<div style=""font-size:60px;"">+</div>","null","","","","","","",""
"","","","","","audio-keyboard-response","410","2.0.0","314160","pa5xtfb7nz2","mus","sloth","20","female","yes","yes","10","3","null","stimuli/sounds/phone_label_A.wav","null","","","","","","",""
"","","","","","html-keyboard-response","411","2.0.0","315168","pa5xtfb7nz2","mus","sloth","20","female","yes","yes","10","3","null","","null","","","","","","",""
"","","","","","image-keyboard-response","412","2.0.0","315787","pa5xtfb7nz2","mus","sloth","20","female","yes","yes","10","3","617","stimuli/pictures/drum_kit_2.jpg","1","0","","false","no","sound","stimuli/sounds/phone_label_A.wav",""
"","","","","","audio-keyboard-response","413","2.0.0","316240","pa5xtfb7nz2","mus","sloth","20","female","yes","yes","10","3","461","stimuli/sounds/buzz.wav"," ","","","","","","",""
"","","","","","html-keyboard-response","414","2.0.0","316431","pa5xtfb7nz2","mus","sloth","20","female","yes","yes","10","3","86","<div style=""font-size:30px;"">Press space to start the trial</div>"," ","","","","","","",""
"","","","","","html-keyboard-response","415","2.0.0","316686","pa5xtfb7nz2","mus","sloth","20","female","yes","yes","10","3","null","<div style=""font-size:60px;"">+</div>","null","","","","","","",""
"","","","","","audio-keyboard-response","416","2.0.0","317281","pa5xtfb7nz2","mus","sloth","20","female","yes","yes","10","3","null","stimuli/sounds/drum_label_B.wav","null","","","","","","",""
"","","","","","html-keyboard-response","417","2.0.0","318294","pa5xtfb7nz2","mus","sloth","20","female","yes","yes","10","3","null","","null","","","","","","",""
"","","","","","image-keyboard-response","418","2.0.0","318820","pa5xtfb7nz2","mus","sloth","20","female","yes","yes","10","3","524","stimuli/pictures/drum_kit_2.jpg","1","1","","true","yes","sound","stimuli/sounds/drum_label_B.wav",""
"","","","","","audio-keyboard-response","419","2.0.0","319136","pa5xtfb7nz2","mus","sloth","20","female","yes","yes","10","3","312","stimuli/sounds/bleep.wav"," ","","","","","","",""
"","","","","","html-keyboard-response","420","2.0.0","319327","pa5xtfb7nz2","mus","sloth","20","female","yes","yes","10","3","82","<div style=""font-size:30px;"">Press space to start the trial</div>"," ","","","","","","",""
"","","","","","html-keyboard-response","421","2.0.0","319581","pa5xtfb7nz2","mus","sloth","20","female","yes","yes","10","3","null","<div style=""font-size:60px;"">+</div>","null","","","","","","",""
"","","","","","audio-keyboard-response","422","2.0.0","320190","pa5xtfb7nz2","mus","sloth","20","female","yes","yes","10","3","null","stimuli/sounds/piano_sound_A.wav","null","","","","","","",""
"","","","","","html-keyboard-response","423","2.0.0","321196","pa5xtfb7nz2","mus","sloth","20","female","yes","yes","10","3","null","","null","","","","","","",""
"","","","","","image-keyboard-response","424","2.0.0","321796","pa5xtfb7nz2","mus","sloth","20","female","yes","yes","10","3","599","stimuli/pictures/piano_grand_2.jpg","1","1","","true","yes","sound","stimuli/sounds/piano_sound_A.wav",""
"","","","","","audio-keyboard-response","425","2.0.0","322069","pa5xtfb7nz2","mus","sloth","20","female","yes","yes","10","3","269","stimuli/sounds/bleep.wav"," ","","","","","","",""
"","","","","","html-keyboard-response","426","2.0.0","322251","pa5xtfb7nz2","mus","sloth","20","female","yes","yes","10","3","74","<div style=""font-size:30px;"">Press space to start the trial</div>"," ","","","","","","",""
"","","","","","html-keyboard-response","427","2.0.0","322503","pa5xtfb7nz2","mus","sloth","20","female","yes","yes","10","3","null","<div style=""font-size:60px;"">+</div>","null","","","","","","",""
"","","","","","audio-keyboard-response","428","2.0.0","323100","pa5xtfb7nz2","mus","sloth","20","female","yes","yes","10","3","null","stimuli/sounds/phone_sound_A.wav","null","","","","","","",""
"","","","","","html-keyboard-response","429","2.0.0","324105","pa5xtfb7nz2","mus","sloth","20","female","yes","yes","10","3","null","","null","","","","","","",""
"","","","","","image-keyboard-response","430","2.0.0","324795","pa5xtfb7nz2","mus","sloth","20","female","yes","yes","10","3","688","stimuli/pictures/phone_rotary_1.jpg","0","1","","false","no","sound","stimuli/sounds/phone_sound_A.wav",""
"","","","","","audio-keyboard-response","431","2.0.0","325799","pa5xtfb7nz2","mus","sloth","20","female","yes","yes","10","3","null","stimuli/sounds/buzz.wav","null","","","","","","",""
"","","","","","html-keyboard-response","432","2.0.0","327075","pa5xtfb7nz2","mus","sloth","20","female","yes","yes","10","3","1168","<div style=""font-size:30px;"">Press space to start the trial</div>"," ","","","","","","",""
"","","","","","html-keyboard-response","433","2.0.0","327339","pa5xtfb7nz2","mus","sloth","20","female","yes","yes","10","3","null","<div style=""font-size:60px;"">+</div>","null","","","","","","",""
"","","","","","audio-keyboard-response","434","2.0.0","327940","pa5xtfb7nz2","mus","sloth","20","female","yes","yes","10","3","null","stimuli/sounds/phone_label_A.wav","null","","","","","","",""
"","","","","","html-keyboard-response","435","2.0.0","328950","pa5xtfb7nz2","mus","sloth","20","female","yes","yes","10","3","null","","null","","","","","","",""
"","","","","","image-keyboard-response","436","2.0.0","329496","pa5xtfb7nz2","mus","sloth","20","female","yes","yes","10","3","545","stimuli/pictures/drum_kit_1.jpg","0","0","","true","no","sound","stimuli/sounds/phone_label_A.wav",""
"","","","","","audio-keyboard-response","437","2.0.0","329967","pa5xtfb7nz2","mus","sloth","20","female","yes","yes","10","3","469","stimuli/sounds/bleep.wav"," ","","","","","","",""
"","","","","","html-keyboard-response","438","2.0.0","330135","pa5xtfb7nz2","mus","sloth","20","female","yes","yes","10","3","54","<div style=""font-size:30px;"">Press space to start the trial</div>"," ","","","","","","",""
"","","","","","html-keyboard-response","439","2.0.0","330389","pa5xtfb7nz2","mus","sloth","20","female","yes","yes","10","3","null","<div style=""font-size:60px;"">+</div>","null","","","","","","",""
"","","","","","audio-keyboard-response","440","2.0.0","330981","pa5xtfb7nz2","mus","sloth","20","female","yes","yes","10","3","null","stimuli/sounds/bird_label_A.wav","null","","","","","","",""
"","","","","","html-keyboard-response","441","2.0.0","331990","pa5xtfb7nz2","mus","sloth","20","female","yes","yes","10","3","null","","null","","","","","","",""
"","","","","","image-keyboard-response","442","2.0.0","332506","pa5xtfb7nz2","mus","sloth","20","female","yes","yes","10","3","515","stimuli/pictures/bird_hawk_1.jpg","1","1","","true","yes","sound","stimuli/sounds/bird_label_A.wav",""
"","","","","","audio-keyboard-response","443","2.0.0","332751","pa5xtfb7nz2","mus","sloth","20","female","yes","yes","10","3","251","stimuli/sounds/bleep.wav"," ","","","","","","",""
"","","","","","html-keyboard-response","444","2.0.0","332972","pa5xtfb7nz2","mus","sloth","20","female","yes","yes","10","3","115","<div style=""font-size:30px;"">Press space to start the trial</div>"," ","","","","","","",""
"","","","","","html-keyboard-response","445","2.0.0","333227","pa5xtfb7nz2","mus","sloth","20","female","yes","yes","10","3","null","<div style=""font-size:60px;"">+</div>","null","","","","","","",""
"","","","","","audio-keyboard-response","446","2.0.0","333850","pa5xtfb7nz2","mus","sloth","20","female","yes","yes","10","3","null","stimuli/sounds/piano_label_A.wav","null","","","","","","",""
"","","","","","html-keyboard-response","447","2.0.0","334856","pa5xtfb7nz2","mus","sloth","20","female","yes","yes","10","3","null","","null","","","","","","",""
"","","","","","image-keyboard-response","448","2.0.0","335371","pa5xtfb7nz2","mus","sloth","20","female","yes","yes","10","3","513","stimuli/pictures/piano_electric_1.jpg","1","1","","true","yes","sound","stimuli/sounds/piano_label_A.wav",""
"","","","","","audio-keyboard-response","449","2.0.0","335666","pa5xtfb7nz2","mus","sloth","20","female","yes","yes","10","3","288","stimuli/sounds/bleep.wav"," ","","","","","","",""
"","","","","","html-keyboard-response","450","2.0.0","335829","pa5xtfb7nz2","mus","sloth","20","female","yes","yes","10","3","51","<div style=""font-size:30px;"">Press space to start the trial</div>"," ","","","","","","",""
"","","","","","html-keyboard-response","451","2.0.0","336081","pa5xtfb7nz2","mus","sloth","20","female","yes","yes","10","3","null","<div style=""font-size:60px;"">+</div>","null","","","","","","",""
"","","","","","audio-keyboard-response","452","2.0.0","336690","pa5xtfb7nz2","mus","sloth","20","female","yes","yes","10","3","null","stimuli/sounds/flute_label_B.wav","null","","","","","","",""
"","","","","","html-keyboard-response","453","2.0.0","337704","pa5xtfb7nz2","mus","sloth","20","female","yes","yes","10","3","null","","null","","","","","","",""
"","","","","","image-keyboard-response","454","2.0.0","338263","pa5xtfb7nz2","mus","sloth","20","female","yes","yes","10","3","557","stimuli/pictures/drum_bongo_1.jpg","0","0","","true","no","sound","stimuli/sounds/flute_label_B.wav",""
"","","","","","audio-keyboard-response","455","2.0.0","338681","pa5xtfb7nz2","mus","sloth","20","female","yes","yes","10","3","421","stimuli/sounds/bleep.wav"," ","","","","","","",""
"","","","","","html-keyboard-response","456","2.0.0","338878","pa5xtfb7nz2","mus","sloth","20","female","yes","yes","10","3","89","<div style=""font-size:30px;"">Press space to start the trial</div>"," ","","","","","","",""
"","","","","","html-keyboard-response","457","2.0.0","339132","pa5xtfb7nz2","mus","sloth","20","female","yes","yes","10","3","null","<div style=""font-size:60px;"">+</div>","null","","","","","","",""
"","","","","","audio-keyboard-response","458","2.0.0","339731","pa5xtfb7nz2","mus","sloth","20","female","yes","yes","10","3","null","stimuli/sounds/phone_sound_A.wav","null","","","","","","",""
"","","","","","html-keyboard-response","459","2.0.0","340733","pa5xtfb7nz2","mus","sloth","20","female","yes","yes","10","3","null","","null","","","","","","",""
"","","","","","image-keyboard-response","460","2.0.0","341394","pa5xtfb7nz2","mus","sloth","20","female","yes","yes","10","3","660","stimuli/pictures/phone_cell_1.jpg","1","1","","true","yes","sound","stimuli/sounds/phone_sound_A.wav",""
"","","","","","audio-keyboard-response","461","2.0.0","341650","pa5xtfb7nz2","mus","sloth","20","female","yes","yes","10","3","261","stimuli/sounds/bleep.wav"," ","","","","","","",""
"","","","","","html-keyboard-response","462","2.0.0","341836","pa5xtfb7nz2","mus","sloth","20","female","yes","yes","10","3","77","<div style=""font-size:30px;"">Press space to start the trial</div>"," ","","","","","","",""
"","","","","","html-keyboard-response","463","2.0.0","342095","pa5xtfb7nz2","mus","sloth","20","female","yes","yes","10","3","null","<div style=""font-size:60px;"">+</div>","null","","","","","","",""
"","","","","","audio-keyboard-response","464","2.0.0","342690","pa5xtfb7nz2","mus","sloth","20","female","yes","yes","10","3","null","stimuli/sounds/drum_sound_B.wav","null","","","","","","",""
"","","","","","html-keyboard-response","465","2.0.0","343694","pa5xtfb7nz2","mus","sloth","20","female","yes","yes","10","3","null","","null","","","","","","",""
"","","","","","image-keyboard-response","466","2.0.0","344161","pa5xtfb7nz2","mus","sloth","20","female","yes","yes","10","3","465","stimuli/pictures/phone_rotary_2.jpg","0","0","","true","no","sound","stimuli/sounds/drum_sound_B.wav",""
"","","","","","audio-keyboard-response","467","2.0.0","344399","pa5xtfb7nz2","mus","sloth","20","female","yes","yes","10","3","229","stimuli/sounds/bleep.wav"," ","","","","","","",""
"","","","","","html-keyboard-response","468","2.0.0","344579","pa5xtfb7nz2","mus","sloth","20","female","yes","yes","10","3","74","<div style=""font-size:30px;"">Press space to start the trial</div>"," ","","","","","","",""
"","","","","","html-keyboard-response","469","2.0.0","344836","pa5xtfb7nz2","mus","sloth","20","female","yes","yes","10","3","null","<div style=""font-size:60px;"">+</div>","null","","","","","","",""
"","","","","","audio-keyboard-response","470","2.0.0","345441","pa5xtfb7nz2","mus","sloth","20","female","yes","yes","10","3","null","stimuli/sounds/flute_label_B.wav","null","","","","","","",""
"","","","","","html-keyboard-response","471","2.0.0","346449","pa5xtfb7nz2","mus","sloth","20","female","yes","yes","10","3","null","","null","","","","","","",""
"","","","","","image-keyboard-response","472","2.0.0","346914","pa5xtfb7nz2","mus","sloth","20","female","yes","yes","10","3","464","stimuli/pictures/flute_wooden_1.jpg","1","1","","true","yes","sound","stimuli/sounds/flute_label_B.wav",""
"","","","","","audio-keyboard-response","473","2.0.0","347128","pa5xtfb7nz2","mus","sloth","20","female","yes","yes","10","3","211","stimuli/sounds/bleep.wav"," ","","","","","","",""
"","","","","","html-keyboard-response","474","2.0.0","347313","pa5xtfb7nz2","mus","sloth","20","female","yes","yes","10","3","82","<div style=""font-size:30px;"">Press space to start the trial</div>"," ","","","","","","",""
"","","","","","html-keyboard-response","475","2.0.0","347566","pa5xtfb7nz2","mus","sloth","20","female","yes","yes","10","3","null","<div style=""font-size:60px;"">+</div>","null","","","","","","",""
"","","","","","audio-keyboard-response","476","2.0.0","348170","pa5xtfb7nz2","mus","sloth","20","female","yes","yes","10","3","null","stimuli/sounds/flute_label_B.wav","null","","","","","","",""
"","","","","","html-keyboard-response","477","2.0.0","349172","pa5xtfb7nz2","mus","sloth","20","female","yes","yes","10","3","null","","null","","","","","","",""
"","","","","","image-keyboard-response","478","2.0.0","349625","pa5xtfb7nz2","mus","sloth","20","female","yes","yes","10","3","452","stimuli/pictures/drum_bongo_2.jpg","0","0","","true","no","sound","stimuli/sounds/flute_label_B.wav",""
"","","","","","audio-keyboard-response","479","2.0.0","349930","pa5xtfb7nz2","mus","sloth","20","female","yes","yes","10","3","312","stimuli/sounds/bleep.wav"," ","","","","","","",""
"","","","","","html-keyboard-response","480","2.0.0","350130","pa5xtfb7nz2","mus","sloth","20","female","yes","yes","10","3","93","<div style=""font-size:30px;"">Press space to start the trial</div>"," ","","","","","","",""
"","","","","","html-keyboard-response","481","2.0.0","350388","pa5xtfb7nz2","mus","sloth","20","female","yes","yes","10","3","null","<div style=""font-size:60px;"">+</div>","null","","","","","","",""
"","","","","","audio-keyboard-response","482","2.0.0","350981","pa5xtfb7nz2","mus","sloth","20","female","yes","yes","10","3","null","stimuli/sounds/drum_sound_A.wav","null","","","","","","",""
"","","","","","html-keyboard-response","483","2.0.0","351987","pa5xtfb7nz2","mus","sloth","20","female","yes","yes","10","3","null","","null","","","","","","",""
"","","","","","image-keyboard-response","484","2.0.0","352449","pa5xtfb7nz2","mus","sloth","20","female","yes","yes","10","3","460","stimuli/pictures/drum_bongo_2.jpg","0","1","","false","no","sound","stimuli/sounds/drum_sound_A.wav",""
"","","","","","audio-keyboard-response","485","2.0.0","352987","pa5xtfb7nz2","mus","sloth","20","female","yes","yes","10","3","539","stimuli/sounds/buzz.wav"," ","","","","","","",""
"","","","","","html-keyboard-response","486","2.0.0","353195","pa5xtfb7nz2","mus","sloth","20","female","yes","yes","10","3","95","<div style=""font-size:30px;"">Press space to start the trial</div>"," ","","","","","","",""
