"success","timeout","failed_images","failed_audio","failed_video","trial_type","trial_index","plugin_version","time_elapsed","random_id","condition","participant","age","gender_id","mus_exp","inst_exp","years_exp","mus_listening","rt","stimulus","response","correct_response","practice","correct","congruent","sound_type","audio","question_order"
"true","false","[]","[]","[]","preload","0","2.0.0","730","pa8f83anjwk","mus","elk","21","female","no","yes","1","5","","","","","","","","","",""
"","","","","","html-keyboard-response","1","2.0.0","3412","pa8f83anjwk","mus","elk","21","female","no","yes","1","5","2680","Welcome to the experiment! Press any key to begin."," ","","","","","","",""
"true","","","","","fullscreen","2","null","6369","pa8f83anjwk","mus","elk","21","female","no","yes","1","5","1954","","","","","","","","",""
"","","","","","survey-text","3","2.0.0","9348","pa8f83anjwk","mus","elk","21","female","no","yes","1","5","2975","","{""participant_id"":""elk""}","","","","","","",""
"","","","","","html-keyboard-response","4","2.0.0","25467","pa8f83anjwk","mus","elk","21","female","no","yes","1","5","16116","
    <p> Please use headphones for the duration of the study.</p>
    <p> Within each trial, you will hear a sound and then be presented with an image in the center of your screen.</p>
    <p>Press the <b>'1'</b> key if what you hear <u>matches</u> what you see.</p>
    <p>Press the <b>'0'</b> key if what you hear <u>does not match</u> what you see.</p>
    <p>Try to respond as quickly and accurately as you can.</p>
    <p> Press any key to begin.</p>
    "," ","","","","","","",""
"","","","","","html-keyboard-response","5","2.0.0","29282","pa8f83anjwk","mus","elk","21","female","no","yes","1","5","3815","
    <div style=""font-size:28px;"">
      <p>You will now complete 4 short practice trials.</p>
      <p>This is just to help you get familiar with the task.</p>
      <p>Press any key to begin.</p>
    </div>
  "," ","","","","","","",""
"","","","","","html-keyboard-response","6","2.0.0","29790","pa8f83anjwk","mus","elk","21","female","no","yes","1","5","null","<div style=""font-size:60px;"">+</div>","null","","","","","","",""
"","","","","","audio-keyboard-response","7","2.0.0","31375","pa8f83anjwk","mus","elk","21","female","no","yes","1","5","null","stimuli/sounds/guitar_label_A.wav","null","","","","","","",""
"","","","","","image-keyboard-response","8","2.0.0","40088","pa8f83anjwk","mus","elk","21","female","no","yes","1","5","8707","stimuli/pictures/guitar_acoustic_1.jpg","0","1","true","false","","","",""
"","","","","","audio-keyboard-response","9","2.0.0","40896","pa8f83anjwk","mus","elk","21","female","no","yes","1","5","null","stimuli/sounds/buzz.wav","null","","","","","","",""
"","","","","","html-keyboard-response","10","2.0.0","41614","pa8f83anjwk","mus","elk","21","female","no","yes","1","5","null","<p style='color:red; font-size:30px;'>Incorrect</p>","null","","","","","","",""
"","","","","","html-keyboard-response","11","2.0.0","42127","pa8f83anjwk","mus","elk","21","female","no","yes","1","5","null","<div style=""font-size:60px;"">+</div>","null","","","","","","",""
"","","","","","audio-keyboard-response","12","2.0.0","42725","pa8f83anjwk","mus","elk","21","female","no","yes","1","5","null","stimuli/sounds/guitar_sound_B.wav","null","","","","","","",""
"","","","","","image-keyboard-response","13","2.0.0","44020","pa8f83anjwk","mus","elk","21","female","no","yes","1","5","1293","stimuli/pictures/guitar_acoustic_2.jpg","1","1","true","true","","","",""
"","","","","","audio-keyboard-response","14","2.0.0","44827","pa8f83anjwk","mus","elk","21","female","no","yes","1","5","null","stimuli/sounds/bleep.wav","null","","","","","","",""
"","","","","","html-keyboard-response","15","2.0.0","45540","pa8f83anjwk","mus","elk","21","female","no","yes","1","5","null","<p style='color:green; font-size:30px;'>Correct!</p>","null","","","","","","",""
"","","","","","html-keyboard-response","16","2.0.0","46054","pa8f83anjwk","mus","elk","21","female","no","yes","1","5","null","<div style=""font-size:60px;"">+</div>","null","","","","","","",""
"","","","","","audio-keyboard-response","17","2.0.0","46664","pa8f83anjwk","mus","elk","21","female","no","yes","1","5","null","stimuli/sounds/flute_sound_A.wav","null","","","","","","",""
"","","","","","image-keyboard-response","18","2.0.0","47676","pa8f83anjwk","mus","elk","21","female","no","yes","1","5","1011","stimuli/pictures/guitar_electric_1.jpg","0","0","true","true","","","",""
"","","","","","audio-keyboard-response","19","2.0.0","48494","pa8f83anjwk","mus","elk","21","female","no","yes","1","5","null","stimuli/sounds/bleep.wav","null","","","","","","",""
"","","","","","html-keyboard-response","20","2.0.0","49210","pa8f83anjwk","mus","elk","21","female","no","yes","1","5","null","<p style='color:green; font-size:30px;'>Correct!</p>","null","","","","","","",""
"","","","","","html-keyboard-response","21","2.0.0","49723","pa8f83anjwk","mus","elk","21","female","no","yes","1","5","null","<div style=""font-size:60px;"">+</div>","null","","","","","","",""
"","","","","","audio-keyboard-response","22","2.0.0","50323","pa8f83anjwk","mus","elk","21","female","no","yes","1","5","null","stimuli/sounds/guitar_sound_A.wav","null","","","","","","",""
"","","","","","image-keyboard-response","23","2.0.0","51271","pa8f83anjwk","mus","elk","21","female","no","yes","1","5","946","stimuli/pictures/guitar_acoustic_1.jpg","0","1","true","false","","","",""
"","","","","","audio-keyboard-response","24","2.0.0","52073","pa8f83anjwk","mus","elk","21","female","no","yes","1","5","null","stimuli/sounds/buzz.wav","null","","","","","","",""
"","","","","","html-keyboard-response","25","2.0.0","52787","pa8f83anjwk","mus","elk","21","female","no","yes","1","5","null","<p style='color:red; font-size:30px;'>Incorrect</p>","null","","","","","","",""
"","","","","","html-keyboard-response","26","2.0.0","53968","pa8f83anjwk","mus","elk","21","female","no","yes","1","5","1180","<p>Practice complete. Press any key to begin the real experiment.</p>"," ","","","","","","",""
"","","","","","html-keyboard-response","27","2.0.0","58140","pa8f83anjwk","mus","elk","21","female","no","yes","1","5","4171","<div style=""font-size:30px;"">Press space to start the trial</div>"," ","","","","","","",""
"","","","","","html-keyboard-response","28","2.0.0","58402","pa8f83anjwk","mus","elk","21","female","no","yes","1","5","null","<div style=""font-size:60px;"">+</div>","null","","","","","","",""
"","","","","","audio-keyboard-response","29","2.0.0","59004","pa8f83anjwk","mus","elk","21","female","no","yes","1","5","null","stimuli/sounds/drum_label_A.wav","null","","","","","","",""
"","","","","","html-keyboard-response","30","2.0.0","60008","pa8f83anjwk","mus","elk","21","female","no","yes","1","5","null","","null","","","","","","",""
"","","","","","image-keyboard-response","31","2.0.0","60504","pa8f83anjwk","mus","elk","21","female","no","yes","1","5","494","stimuli/pictures/drum_bongo_1.jpg","1","1","","true","yes","sound","stimuli/sounds/drum_label_A.wav",""
"","","","","","audio-keyboard-response","32","2.0.0","61519","pa8f83anjwk","mus","elk","21","female","no","yes","1","5","null","stimuli/sounds/bleep.wav","null","","","","","","",""
"","","","","","html-keyboard-response","33","2.0.0","62784","pa8f83anjwk","mus","elk","21","female","no","yes","1","5","1155","<div style=""font-size:30px;"">Press space to start the trial</div>"," ","","","","","","",""
"","","","","","html-keyboard-response","34","2.0.0","63050","pa8f83anjwk","mus","elk","21","female","no","yes","1","5","null","<div style=""font-size:60px;"">+</div>","null","","","","","","",""
"","","","","","audio-keyboard-response","35","2.0.0","63675","pa8f83anjwk","mus","elk","21","female","no","yes","1","5","null","stimuli/sounds/piano_label_A.wav","null","","","","","","",""
"","","","","","html-keyboard-response","36","2.0.0","64677","pa8f83anjwk","mus","elk","21","female","no","yes","1","5","null","","null","","","","","","",""
"","","","","","image-keyboard-response","37","2.0.0","65561","pa8f83anjwk","mus","elk","21","female","no","yes","1","5","883","stimuli/pictures/phone_rotary_2.jpg","0","0","","true","no","sound","stimuli/sounds/piano_label_A.wav",""
"","","","","","audio-keyboard-response","38","2.0.0","66575","pa8f83anjwk","mus","elk","21","female","no","yes","1","5","null","stimuli/sounds/bleep.wav","null","","","","","","",""
"","","","","","html-keyboard-response","39","2.0.0","66940","pa8f83anjwk","mus","elk","21","female","no","yes","1","5","255","<div style=""font-size:30px;"">Press space to start the trial</div>"," ","","","","","","",""
"","","","","","html-keyboard-response","40","2.0.0","67198","pa8f83anjwk","mus","elk","21","female","no","yes","1","5","null","<div style=""font-size:60px;"">+</div>","null","","","","","","",""
"","","","","","audio-keyboard-response","41","2.0.0","67794","pa8f83anjwk","mus","elk","21","female","no","yes","1","5","null","stimuli/sounds/phone_sound_A.wav","null","","","","","","",""
"","","","","","html-keyboard-response","42","2.0.0","68800","pa8f83anjwk","mus","elk","21","female","no","yes","1","5","null","","null","","","","","","",""
"","","","","","image-keyboard-response","43","2.0.0","69429","pa8f83anjwk","mus","elk","21","female","no","yes","1","5","627","stimuli/pictures/bird_hawk_1.jpg","0","0","","true","no","sound","stimuli/sounds/phone_sound_A.wav",""
"","","","","","audio-keyboard-response","44","2.0.0","70437","pa8f83anjwk","mus","elk","21","female","no","yes","1","5","null","stimuli/sounds/bleep.wav","null","","","","","","",""
"","","","","","html-keyboard-response","45","2.0.0","70995","pa8f83anjwk","mus","elk","21","female","no","yes","1","5","446","<div style=""font-size:30px;"">Press space to start the trial</div>"," ","","","","","","",""
"","","","","","html-keyboard-response","46","2.0.0","71251","pa8f83anjwk","mus","elk","21","female","no","yes","1","5","null","<div style=""font-size:60px;"">+</div>","null","","","","","","",""
"","","","","","audio-keyboard-response","47","2.0.0","71854","pa8f83anjwk","mus","elk","21","female","no","yes","1","5","null","stimuli/sounds/piano_sound_B.wav","null","","","","","","",""
"","","","","","html-keyboard-response","48","2.0.0","72867","pa8f83anjwk","mus","elk","21","female","no","yes","1","5","null","","null","","","","","","",""
"","","","","","image-keyboard-response","49","2.0.0","73522","pa8f83anjwk","mus","elk","21","female","no","yes","1","5","652","stimuli/pictures/flute_wooden_2.jpg","0","0","","true","no","sound","stimuli/sounds/piano_sound_B.wav",""
"","","","","","audio-keyboard-response","50","2.0.0","74536","pa8f83anjwk","mus","elk","21","female","no","yes","1","5","null","stimuli/sounds/bleep.wav","null","","","","","","",""
"","","","","","html-keyboard-response","51","2.0.0","74888","pa8f83anjwk","mus","elk","21","female","no","yes","1","5","242","<div style=""font-size:30px;"">Press space to start the trial</div>"," ","","","","","","",""
"","","","","","html-keyboard-response","52","2.0.0","75143","pa8f83anjwk","mus","elk","21","female","no","yes","1","5","null","<div style=""font-size:60px;"">+</div>","null","","","","","","",""
"","","","","","audio-keyboard-response","53","2.0.0","75743","pa8f83anjwk","mus","elk","21","female","no","yes","1","5","null","stimuli/sounds/phone_sound_B.wav","null","","","","","","",""
"","","","","","html-keyboard-response","54","2.0.0","76749","pa8f83anjwk","mus","elk","21","female","no","yes","1","5","null","","null","","","","","","",""
"","","","","","image-keyboard-response","55","2.0.0","77352","pa8f83anjwk","mus","elk","21","female","no","yes","1","5","599","stimuli/pictures/phone_cell_2.jpg","1","1","","true","no","sound","stimuli/sounds/phone_sound_B.wav",""
"","","","","","audio-keyboard-response","56","2.0.0","78368","pa8f83anjwk","mus","elk","21","female","no","yes","1","5","null","stimuli/sounds/bleep.wav","null","","","","","","",""
"","","","","","html-keyboard-response","57","2.0.0","78762","pa8f83anjwk","mus","elk","21","female","no","yes","1","5","283","<div style=""font-size:30px;"">Press space to start the trial</div>"," ","","","","","","",""
"","","","","","html-keyboard-response","58","2.0.0","79025","pa8f83anjwk","mus","elk","21","female","no","yes","1","5","null","<div style=""font-size:60px;"">+</div>","null","","","","","","",""
"","","","","","audio-keyboard-response","59","2.0.0","79624","pa8f83anjwk","mus","elk","21","female","no","yes","1","5","null","stimuli/sounds/bird_sound_B.wav","null","","","","","","",""
"","","","","","html-keyboard-response","60","2.0.0","80631","pa8f83anjwk","mus","elk","21","female","no","yes","1","5","null","","null","","","","","","",""
"","","","","","image-keyboard-response","61","2.0.0","81017","pa8f83anjwk","mus","elk","21","female","no","yes","1","5","383","stimuli/pictures/drum_kit_2.jpg","0","0","","true","no","sound","stimuli/sounds/bird_sound_B.wav",""
"","","","","","audio-keyboard-response","62","2.0.0","82020","pa8f83anjwk","mus","elk","21","female","no","yes","1","5","null","stimuli/sounds/bleep.wav","null","","","","","","",""
"","","","","","html-keyboard-response","63","2.0.0","82186","pa8f83anjwk","mus","elk","21","female","no","yes","1","5","56","<div style=""font-size:30px;"">Press space to start the trial</div>"," ","","","","","","",""
"","","","","","html-keyboard-response","64","2.0.0","82439","pa8f83anjwk","mus","elk","21","female","no","yes","1","5","null","<div style=""font-size:60px;"">+</div>","null","","","","","","",""
"","","","","","audio-keyboard-response","65","2.0.0","83044","pa8f83anjwk","mus","elk","21","female","no","yes","1","5","null","stimuli/sounds/flute_sound_A.wav","null","","","","","","",""
"","","","","","html-keyboard-response","66","2.0.0","84058","pa8f83anjwk","mus","elk","21","female","no","yes","1","5","null","","null","","","","","","",""
"","","","","","image-keyboard-response","67","2.0.0","84563","pa8f83anjwk","mus","elk","21","female","no","yes","1","5","503","stimuli/pictures/flute_metal_2.jpg","1","1","","true","yes","sound","stimuli/sounds/flute_sound_A.wav",""
"","","","","","audio-keyboard-response","68","2.0.0","85567","pa8f83anjwk","mus","elk","21","female","no","yes","1","5","null","stimuli/sounds/bleep.wav","null","","","","","","",""
"","","","","","html-keyboard-response","69","2.0.0","86063","pa8f83anjwk","mus","elk","21","female","no","yes","1","5","387","<div style=""font-size:30px;"">Press space to start the trial</div>"," ","","","","","","",""
"","","","","","html-keyboard-response","70","2.0.0","86320","pa8f83anjwk","mus","elk","21","female","no","yes","1","5","null","<div style=""font-size:60px;"">+</div>","null","","","","","","",""
"","","","","","audio-keyboard-response","71","2.0.0","86914","pa8f83anjwk","mus","elk","21","female","no","yes","1","5","null","stimuli/sounds/phone_label_A.wav","null","","","","","","",""
"","","","","","html-keyboard-response","72","2.0.0","87923","pa8f83anjwk","mus","elk","21","female","no","yes","1","5","null","","null","","","","","","",""
"","","","","","image-keyboard-response","73","2.0.0","88415","pa8f83anjwk","mus","elk","21","female","no","yes","1","5","489","stimuli/pictures/phone_rotary_2.jpg","1","1","","true","yes","sound","stimuli/sounds/phone_label_A.wav",""
"","","","","","audio-keyboard-response","74","2.0.0","89419","pa8f83anjwk","mus","elk","21","female","no","yes","1","5","null","stimuli/sounds/bleep.wav","null","","","","","","",""
"","","","","","html-keyboard-response","75","2.0.0","89801","pa8f83anjwk","mus","elk","21","female","no","yes","1","5","272","<div style=""font-size:30px;"">Press space to start the trial</div>"," ","","","","","","",""
"","","","","","html-keyboard-response","76","2.0.0","90059","pa8f83anjwk","mus","elk","21","female","no","yes","1","5","null","<div style=""font-size:60px;"">+</div>","null","","","","","","",""
"","","","","","audio-keyboard-response","77","2.0.0","90664","pa8f83anjwk","mus","elk","21","female","no","yes","1","5","null","stimuli/sounds/piano_label_B.wav","null","","","","","","",""
"","","","","","html-keyboard-response","78","2.0.0","91667","pa8f83anjwk","mus","elk","21","female","no","yes","1","5","null","","null","","","","","","",""
"","","","","","image-keyboard-response","79","2.0.0","92036","pa8f83anjwk","mus","elk","21","female","no","yes","1","5","368","stimuli/pictures/bird_hawk_1.jpg","0","0","","true","no","sound","stimuli/sounds/piano_label_B.wav",""
"","","","","","audio-keyboard-response","80","2.0.0","93038","pa8f83anjwk","mus","elk","21","female","no","yes","1","5","null","stimuli/sounds/bleep.wav","null","","","","","","",""
"","","","","","html-keyboard-response","81","2.0.0","93386","pa8f83anjwk","mus","elk","21","female","no","yes","1","5","238","<div style=""font-size:30px;"">Press space to start the trial</div>"," ","","","","","","",""
"","","","","","html-keyboard-response","82","2.0.0","93646","pa8f83anjwk","mus","elk","21","female","no","yes","1","5","null","<div style=""font-size:60px;"">+</div>","null","","","","","","",""
"","","","","","audio-keyboard-response","83","2.0.0","94244","pa8f83anjwk","mus","elk","21","female","no","yes","1","5","null","stimuli/sounds/phone_sound_A.wav","null","","","","","","",""
"","","","","","html-keyboard-response","84","2.0.0","95254","pa8f83anjwk","mus","elk","21","female","no","yes","1","5","null","","null","","","","","","",""
"","","","","","image-keyboard-response","85","2.0.0","95741","pa8f83anjwk","mus","elk","21","female","no","yes","1","5","484","stimuli/pictures/bird_song_1.jpg","0","0","","true","no","sound","stimuli/sounds/phone_sound_A.wav",""
"","","","","","audio-keyboard-response","86","2.0.0","96751","pa8f83anjwk","mus","elk","21","female","no","yes","1","5","null","stimuli/sounds/bleep.wav","null","","","","","","",""
"","","","","","html-keyboard-response","87","2.0.0","97190","pa8f83anjwk","mus","elk","21","female","no","yes","1","5","329","<div style=""font-size:30px;"">Press space to start the trial</div>"," ","","","","","","",""
"","","","","","html-keyboard-response","88","2.0.0","97450","pa8f83anjwk","mus","elk","21","female","no","yes","1","5","null","<div style=""font-size:60px;"">+</div>","null","","","","","","",""
"","","","","","audio-keyboard-response","89","2.0.0","98075","pa8f83anjwk","mus","elk","21","female","no","yes","1","5","null","stimuli/sounds/piano_label_A.wav","null","","","","","","",""
"","","","","","html-keyboard-response","90","2.0.0","99083","pa8f83anjwk","mus","elk","21","female","no","yes","1","5","null","","null","","","","","","",""
"","","","","","image-keyboard-response","91","2.0.0","99465","pa8f83anjwk","mus","elk","21","female","no","yes","1","5","379","stimuli/pictures/phone_cell_1.jpg","0","0","","true","no","sound","stimuli/sounds/piano_label_A.wav",""
"","","","","","audio-keyboard-response","92","2.0.0","100471","pa8f83anjwk","mus","elk","21","female","no","yes","1","5","null","stimuli/sounds/bleep.wav","null","","","","","","",""
"","","","","","html-keyboard-response","93","2.0.0","100859","pa8f83anjwk","mus","elk","21","female","no","yes","1","5","278","<div style=""font-size:30px;"">Press space to start the trial</div>"," ","","","","","","",""
"","","","","","html-keyboard-response","94","2.0.0","101113","pa8f83anjwk","mus","elk","21","female","no","yes","1","5","null","<div style=""font-size:60px;"">+</div>","null","","","","","","",""
"","","","","","audio-keyboard-response","95","2.0.0","101714","pa8f83anjwk","mus","elk","21","female","no","yes","1","5","null","stimuli/sounds/phone_sound_A.wav","null","","","","","","",""
"","","","","","html-keyboard-response","96","2.0.0","102721","pa8f83anjwk","mus","elk","21","female","no","yes","1","5","null","","null","","","","","","",""
"","","","","","image-keyboard-response","97","2.0.0","103135","pa8f83anjwk","mus","elk","21","female","no","yes","1","5","412","stimuli/pictures/bird_hawk_1.jpg","0","0","","true","no","sound","stimuli/sounds/phone_sound_A.wav",""
"","","","","","audio-keyboard-response","98","2.0.0","104146","pa8f83anjwk","mus","elk","21","female","no","yes","1","5","null","stimuli/sounds/bleep.wav","null","","","","","","",""
"","","","","","html-keyboard-response","99","2.0.0","104502","pa8f83anjwk","mus","elk","21","female","no","yes","1","5","247","<div style=""font-size:30px;"">Press space to start the trial</div>"," ","","","","","","",""
"","","","","","html-keyboard-response","100","2.0.0","104757","pa8f83anjwk","mus","elk","21","female","no","yes","1","5","null","<div style=""font-size:60px;"">+</div>","null","","","","","","",""
"","","","","","audio-keyboard-response","101","2.0.0","105364","pa8f83anjwk","mus","elk","21","female","no","yes","1","5","null","stimuli/sounds/piano_sound_A.wav","null","","","","","","",""
"","","","","","html-keyboard-response","102","2.0.0","106379","pa8f83anjwk","mus","elk","21","female","no","yes","1","5","null","","null","","","","","","",""
"","","","","","image-keyboard-response","103","2.0.0","106911","pa8f83anjwk","mus","elk","21","female","no","yes","1","5","530","stimuli/pictures/piano_electric_2.jpg","1","1","","true","no","sound","stimuli/sounds/piano_sound_A.wav",""
"","","","","","audio-keyboard-response","104","2.0.0","107923","pa8f83anjwk","mus","elk","21","female","no","yes","1","5","null","stimuli/sounds/bleep.wav","null","","","","","","",""
"","","","","","html-keyboard-response","105","2.0.0","108483","pa8f83anjwk","mus","elk","21","female","no","yes","1","5","449","<div style=""font-size:30px;"">Press space to start the trial</div>"," ","","","","","","",""
"","","","","","html-keyboard-response","106","2.0.0","108736","pa8f83anjwk","mus","elk","21","female","no","yes","1","5","null","<div style=""font-size:60px;"">+</div>","null","","","","","","",""
"","","","","","audio-keyboard-response","107","2.0.0","109334","pa8f83anjwk","mus","elk","21","female","no","yes","1","5","null","stimuli/sounds/bird_label_B.wav","null","","","","","","",""
"","","","","","html-keyboard-response","108","2.0.0","110348","pa8f83anjwk","mus","elk","21","female","no","yes","1","5","null","","null","","","","","","",""
"","","","","","image-keyboard-response","109","2.0.0","110849","pa8f83anjwk","mus","elk","21","female","no","yes","1","5","499","stimuli/pictures/bird_hawk_1.jpg","1","1","","true","yes","sound","stimuli/sounds/bird_label_B.wav",""
"","","","","","audio-keyboard-response","110","2.0.0","111858","pa8f83anjwk","mus","elk","21","female","no","yes","1","5","null","stimuli/sounds/bleep.wav","null","","","","","","",""
"","","","","","html-keyboard-response","111","2.0.0","112281","pa8f83anjwk","mus","elk","21","female","no","yes","1","5","312","<div style=""font-size:30px;"">Press space to start the trial</div>"," ","","","","","","",""
"","","","","","html-keyboard-response","112","2.0.0","112544","pa8f83anjwk","mus","elk","21","female","no","yes","1","5","null","<div style=""font-size:60px;"">+</div>","null","","","","","","",""
"","","","","","audio-keyboard-response","113","2.0.0","113154","pa8f83anjwk","mus","elk","21","female","no","yes","1","5","null","stimuli/sounds/piano_label_B.wav","null","","","","","","",""
"","","","","","html-keyboard-response","114","2.0.0","114162","pa8f83anjwk","mus","elk","21","female","no","yes","1","5","null","","null","","","","","","",""
"","","","","","image-keyboard-response","115","2.0.0","114588","pa8f83anjwk","mus","elk","21","female","no","yes","1","5","424","stimuli/pictures/bird_song_1.jpg","1","0","","false","no","sound","stimuli/sounds/piano_label_B.wav",""
"","","","","","audio-keyboard-response","116","2.0.0","115599","pa8f83anjwk","mus","elk","21","female","no","yes","1","5","null","stimuli/sounds/buzz.wav","null","","","","","","",""
"","","","","","html-keyboard-response","117","2.0.0","115970","pa8f83anjwk","mus","elk","21","female","no","yes","1","5","260","<div style=""font-size:30px;"">Press space to start the trial</div>"," ","","","","","","",""
"","","","","","html-keyboard-response","118","2.0.0","116224","pa8f83anjwk","mus","elk","21","female","no","yes","1","5","null","<div style=""font-size:60px;"">+</div>","null","","","","","","",""
"","","","","","audio-keyboard-response","119","2.0.0","116834","pa8f83anjwk","mus","elk","21","female","no","yes","1","5","null","stimuli/sounds/flute_label_B.wav","null","","","","","","",""
"","","","","","html-keyboard-response","120","2.0.0","117843","pa8f83anjwk","mus","elk","21","female","no","yes","1","5","null","","null","","","","","","",""
"","","","","","image-keyboard-response","121","2.0.0","118633","pa8f83anjwk","mus","elk","21","female","no","yes","1","5","787","stimuli/pictures/flute_wooden_2.jpg","0","1","","false","yes","sound","stimuli/sounds/flute_label_B.wav",""
"","","","","","audio-keyboard-response","122","2.0.0","119635","pa8f83anjwk","mus","elk","21","female","no","yes","1","5","null","stimuli/sounds/buzz.wav","null","","","","","","",""
"","","","","","html-keyboard-response","123","2.0.0","120014","pa8f83anjwk","mus","elk","21","female","no","yes","1","5","268","<div style=""font-size:30px;"">Press space to start the trial</div>"," ","","","","","","",""
"","","","","","html-keyboard-response","124","2.0.0","120274","pa8f83anjwk","mus","elk","21","female","no","yes","1","5","null","<div style=""font-size:60px;"">+</div>","null","","","","","","",""
"","","","","","audio-keyboard-response","125","2.0.0","120884","pa8f83anjwk","mus","elk","21","female","no","yes","1","5","null","stimuli/sounds/piano_sound_B.wav","null","","","","","","",""
"","","","","","html-keyboard-response","126","2.0.0","121886","pa8f83anjwk","mus","elk","21","female","no","yes","1","5","null","","null","","","","","","",""
"","","","","","image-keyboard-response","127","2.0.0","122446","pa8f83anjwk","mus","elk","21","female","no","yes","1","5","558","stimuli/pictures/flute_metal_2.jpg","0","0","","true","no","sound","stimuli/sounds/piano_sound_B.wav",""
"","","","","","audio-keyboard-response","128","2.0.0","123460","pa8f83anjwk","mus","elk","21","female","no","yes","1","5","null","stimuli/sounds/bleep.wav","null","","","","","","",""
"","","","","","html-keyboard-response","129","2.0.0","123823","pa8f83anjwk","mus","elk","21","female","no","yes","1","5","252","<div style=""font-size:30px;"">Press space to start the trial</div>"," ","","","","","","",""
"","","","","","html-keyboard-response","130","2.0.0","124085","pa8f83anjwk","mus","elk","21","female","no","yes","1","5","null","<div style=""font-size:60px;"">+</div>","null","","","","","","",""
"","","","","","audio-keyboard-response","131","2.0.0","124693","pa8f83anjwk","mus","elk","21","female","no","yes","1","5","null","stimuli/sounds/piano_sound_A.wav","null","","","","","","",""
"","","","","","html-keyboard-response","132","2.0.0","125705","pa8f83anjwk","mus","elk","21","female","no","yes","1","5","null","","null","","","","","","",""
"","","","","","image-keyboard-response","133","2.0.0","126245","pa8f83anjwk","mus","elk","21","female","no","yes","1","5","539","stimuli/pictures/drum_bongo_2.jpg","0","0","","true","no","sound","stimuli/sounds/piano_sound_A.wav",""
"","","","","","audio-keyboard-response","134","2.0.0","127250","pa8f83anjwk","mus","elk","21","female","no","yes","1","5","null","stimuli/sounds/bleep.wav","null","","","","","","",""
"","","","","","html-keyboard-response","135","2.0.0","127608","pa8f83anjwk","mus","elk","21","female","no","yes","1","5","250","<div style=""font-size:30px;"">Press space to start the trial</div>"," ","","","","","","",""
"","","","","","html-keyboard-response","136","2.0.0","127874","pa8f83anjwk","mus","elk","21","female","no","yes","1","5","null","<div style=""font-size:60px;"">+</div>","null","","","","","","",""
"","","","","","audio-keyboard-response","137","2.0.0","128484","pa8f83anjwk","mus","elk","21","female","no","yes","1","5","null","stimuli/sounds/piano_sound_A.wav","null","","","","","","",""
"","","","","","html-keyboard-response","138","2.0.0","129490","pa8f83anjwk","mus","elk","21","female","no","yes","1","5","null","","null","","","","","","",""
"","","","","","image-keyboard-response","139","2.0.0","129981","pa8f83anjwk","mus","elk","21","female","no","yes","1","5","489","stimuli/pictures/drum_bongo_1.jpg","0","0","","true","no","sound","stimuli/sounds/piano_sound_A.wav",""
"","","","","","audio-keyboard-response","140","2.0.0","130985","pa8f83anjwk","mus","elk","21","female","no","yes","1","5","null","stimuli/sounds/bleep.wav","null","","","","","","",""
"","","","","","html-keyboard-response","141","2.0.0","131560","pa8f83anjwk","mus","elk","21","female","no","yes","1","5","465","<div style=""font-size:30px;"">Press space to start the trial</div>"," ","","","","","","",""
"","","","","","html-keyboard-response","142","2.0.0","131826","pa8f83anjwk","mus","elk","21","female","no","yes","1","5","null","<div style=""font-size:60px;"">+</div>","null","","","","","","",""
"","","","","","audio-keyboard-response","143","2.0.0","132424","pa8f83anjwk","mus","elk","21","female","no","yes","1","5","null","stimuli/sounds/phone_sound_B.wav","null","","","","","","",""
"","","","","","html-keyboard-response","144","2.0.0","133429","pa8f83anjwk","mus","elk","21","female","no","yes","1","5","null","","null","","","","","","",""
"","","","","","image-keyboard-response","145","2.0.0","133987","pa8f83anjwk","mus","elk","21","female","no","yes","1","5","557","stimuli/pictures/piano_electric_1.jpg","0","0","","true","no","sound","stimuli/sounds/phone_sound_B.wav",""
"","","","","","audio-keyboard-response","146","2.0.0","134995","pa8f83anjwk","mus","elk","21","female","no","yes","1","5","null","stimuli/sounds/bleep.wav","null","","","","","","",""
"","","","","","html-keyboard-response","147","2.0.0","142057","pa8f83anjwk","mus","elk","21","female","no","yes","1","5","6953","<p>You have completed a block. Press R when you are ready to continue</p>","r","","","","","","",""
"","","","","","html-keyboard-response","148","2.0.0","144934","pa8f83anjwk","mus","elk","21","female","no","yes","1","5","2876","<div style=""font-size:30px;"">Press space to start the trial</div>"," ","","","","","","",""
"","","","","","html-keyboard-response","149","2.0.0","145195","pa8f83anjwk","mus","elk","21","female","no","yes","1","5","null","<div style=""font-size:60px;"">+</div>","null","","","","","","",""
"","","","","","audio-keyboard-response","150","2.0.0","145794","pa8f83anjwk","mus","elk","21","female","no","yes","1","5","null","stimuli/sounds/drum_sound_A.wav","null","","","","","","",""
"","","","","","html-keyboard-response","151","2.0.0","146803","pa8f83anjwk","mus","elk","21","female","no","yes","1","5","null","","null","","","","","","",""
"","","","","","image-keyboard-response","152","2.0.0","147408","pa8f83anjwk","mus","elk","21","female","no","yes","1","5","604","stimuli/pictures/flute_wooden_2.jpg","0","0","","true","no","sound","stimuli/sounds/drum_sound_A.wav",""
"","","","","","audio-keyboard-response","153","2.0.0","148423","pa8f83anjwk","mus","elk","21","female","no","yes","1","5","null","stimuli/sounds/bleep.wav","null","","","","","","",""
"","","","","","html-keyboard-response","154","2.0.0","148899","pa8f83anjwk","mus","elk","21","female","no","yes","1","5","364","<div style=""font-size:30px;"">Press space to start the trial</div>"," ","","","","","","",""
"","","","","","html-keyboard-response","155","2.0.0","149156","pa8f83anjwk","mus","elk","21","female","no","yes","1","5","null","<div style=""font-size:60px;"">+</div>","null","","","","","","",""
"","","","","","audio-keyboard-response","156","2.0.0","149753","pa8f83anjwk","mus","elk","21","female","no","yes","1","5","null","stimuli/sounds/drum_label_A.wav","null","","","","","","",""
"","","","","","html-keyboard-response","157","2.0.0","150760","pa8f83anjwk","mus","elk","21","female","no","yes","1","5","null","","null","","","","","","",""
"","","","","","image-keyboard-response","158","2.0.0","151251","pa8f83anjwk","mus","elk","21","female","no","yes","1","5","489","stimuli/pictures/drum_kit_1.jpg","1","1","","true","yes","sound","stimuli/sounds/drum_label_A.wav",""
"","","","","","audio-keyboard-response","159","2.0.0","152257","pa8f83anjwk","mus","elk","21","female","no","yes","1","5","null","stimuli/sounds/bleep.wav","null","","","","","","",""
"","","","","","html-keyboard-response","160","2.0.0","152596","pa8f83anjwk","mus","elk","21","female","no","yes","1","5","230","<div style=""font-size:30px;"">Press space to start the trial</div>"," ","","","","","","",""
"","","","","","html-keyboard-response","161","2.0.0","152849","pa8f83anjwk","mus","elk","21","female","no","yes","1","5","null","<div style=""font-size:60px;"">+</div>","null","","","","","","",""
"","","","","","audio-keyboard-response","162","2.0.0","153443","pa8f83anjwk","mus","elk","21","female","no","yes","1","5","null","stimuli/sounds/phone_label_B.wav","null","","","","","","",""
"","","","","","html-keyboard-response","163","2.0.0","154458","pa8f83anjwk","mus","elk","21","female","no","yes","1","5","null","","null","","","","","","",""
"","","","","","image-keyboard-response","164","2.0.0","155012","pa8f83anjwk","mus","elk","21","female","no","yes","1","5","553","stimuli/pictures/flute_wooden_1.jpg","0","0","","true","no","sound","stimuli/sounds/phone_label_B.wav",""
"","","","","","audio-keyboard-response","165","2.0.0","156027","pa8f83anjwk","mus","elk","21","female","no","yes","1","5","null","stimuli/sounds/bleep.wav","null","","","","","","",""
"","","","","","html-keyboard-response","166","2.0.0","156345","pa8f83anjwk","mus","elk","21","female","no","yes","1","5","208","<div style=""font-size:30px;"">Press space to start the trial</div>"," ","","","","","","",""
"","","","","","html-keyboard-response","167","2.0.0","156606","pa8f83anjwk","mus","elk","21","female","no","yes","1","5","null","<div style=""font-size:60px;"">+</div>","null","","","","","","",""
"","","","","","audio-keyboard-response","168","2.0.0","157204","pa8f83anjwk","mus","elk","21","female","no","yes","1","5","null","stimuli/sounds/bird_label_B.wav","null","","","","","","",""
"","","","","","html-keyboard-response","169","2.0.0","158213","pa8f83anjwk","mus","elk","21","female","no","yes","1","5","null","","null","","","","","","",""
"","","","","","image-keyboard-response","170","2.0.0","158746","pa8f83anjwk","mus","elk","21","female","no","yes","1","5","531","stimuli/pictures/bird_hawk_1.jpg","1","1","","true","yes","sound","stimuli/sounds/bird_label_B.wav",""
"","","","","","audio-keyboard-response","171","2.0.0","159756","pa8f83anjwk","mus","elk","21","female","no","yes","1","5","null","stimuli/sounds/bleep.wav","null","","","","","","",""
"","","","","","html-keyboard-response","172","2.0.0","160560","pa8f83anjwk","mus","elk","21","female","no","yes","1","5","695","<div style=""font-size:30px;"">Press space to start the trial</div>"," ","","","","","","",""
"","","","","","html-keyboard-response","173","2.0.0","160815","pa8f83anjwk","mus","elk","21","female","no","yes","1","5","null","<div style=""font-size:60px;"">+</div>","null","","","","","","",""
"","","","","","audio-keyboard-response","174","2.0.0","161424","pa8f83anjwk","mus","elk","21","female","no","yes","1","5","null","stimuli/sounds/flute_label_A.wav","null","","","","","","",""
"","","","","","html-keyboard-response","175","2.0.0","162440","pa8f83anjwk","mus","elk","21","female","no","yes","1","5","null","","null","","","","","","",""
"","","","","","image-keyboard-response","176","2.0.0","162865","pa8f83anjwk","mus","elk","21","female","no","yes","1","5","423","stimuli/pictures/piano_electric_1.jpg","0","0","","true","no","sound","stimuli/sounds/flute_label_A.wav",""
"","","","","","audio-keyboard-response","177","2.0.0","163871","pa8f83anjwk","mus","elk","21","female","no","yes","1","5","null","stimuli/sounds/bleep.wav","null","","","","","","",""
"","","","","","html-keyboard-response","178","2.0.0","164414","pa8f83anjwk","mus","elk","21","female","no","yes","1","5","434","<div style=""font-size:30px;"">Press space to start the trial</div>"," ","","","","","","",""
"","","","","","html-keyboard-response","179","2.0.0","164665","pa8f83anjwk","mus","elk","21","female","no","yes","1","5","null","<div style=""font-size:60px;"">+</div>","null","","","","","","",""
"","","","","","audio-keyboard-response","180","2.0.0","165264","pa8f83anjwk","mus","elk","21","female","no","yes","1","5","null","stimuli/sounds/bird_label_B.wav","null","","","","","","",""
"","","","","","html-keyboard-response","181","2.0.0","166269","pa8f83anjwk","mus","elk","21","female","no","yes","1","5","null","","null","","","","","","",""
"","","","","","image-keyboard-response","182","2.0.0","166709","pa8f83anjwk","mus","elk","21","female","no","yes","1","5","438","stimuli/pictures/phone_rotary_2.jpg","0","0","","true","no","sound","stimuli/sounds/bird_label_B.wav",""
"","","","","","audio-keyboard-response","183","2.0.0","167719","pa8f83anjwk","mus","elk","21","female","no","yes","1","5","null","stimuli/sounds/bleep.wav","null","","","","","","",""
"","","","","","html-keyboard-response","184","2.0.0","168406","pa8f83anjwk","mus","elk","21","female","no","yes","1","5","579","<div style=""font-size:30px;"">Press space to start the trial</div>"," ","","","","","","",""
"","","","","","html-keyboard-response","185","2.0.0","168671","pa8f83anjwk","mus","elk","21","female","no","yes","1","5","null","<div style=""font-size:60px;"">+</div>","null","","","","","","",""
"","","","","","audio-keyboard-response","186","2.0.0","169264","pa8f83anjwk","mus","elk","21","female","no","yes","1","5","null","stimuli/sounds/drum_label_B.wav","null","","","","","","",""
"","","","","","html-keyboard-response","187","2.0.0","170271","pa8f83anjwk","mus","elk","21","female","no","yes","1","5","null","","null","","","","","","",""
"","","","","","image-keyboard-response","188","2.0.0","170637","pa8f83anjwk","mus","elk","21","female","no","yes","1","5","364","stimuli/pictures/piano_electric_1.jpg","0","0","","true","no","sound","stimuli/sounds/drum_label_B.wav",""
"","","","","","audio-keyboard-response","189","2.0.0","171655","pa8f83anjwk","mus","elk","21","female","no","yes","1","5","null","stimuli/sounds/bleep.wav","null","","","","","","",""
"","","","","","html-keyboard-response","190","2.0.0","171969","pa8f83anjwk","mus","elk","21","female","no","yes","1","5","205","<div style=""font-size:30px;"">Press space to start the trial</div>"," ","","","","","","",""
"","","","","","html-keyboard-response","191","2.0.0","172231","pa8f83anjwk","mus","elk","21","female","no","yes","1","5","null","<div style=""font-size:60px;"">+</div>","null","","","","","","",""
"","","","","","audio-keyboard-response","192","2.0.0","172834","pa8f83anjwk","mus","elk","21","female","no","yes","1","5","null","stimuli/sounds/flute_label_B.wav","null","","","","","","",""
"","","","","","html-keyboard-response","193","2.0.0","173846","pa8f83anjwk","mus","elk","21","female","no","yes","1","5","null","","null","","","","","","",""
"","","","","","image-keyboard-response","194","2.0.0","174276","pa8f83anjwk","mus","elk","21","female","no","yes","1","5","429","stimuli/pictures/drum_bongo_1.jpg","0","0","","true","no","sound","stimuli/sounds/flute_label_B.wav",""
"","","","","","audio-keyboard-response","195","2.0.0","175292","pa8f83anjwk","mus","elk","21","female","no","yes","1","5","null","stimuli/sounds/bleep.wav","null","","","","","","",""
"","","","","","html-keyboard-response","196","2.0.0","175606","pa8f83anjwk","mus","elk","21","female","no","yes","1","5","204","<div style=""font-size:30px;"">Press space to start the trial</div>"," ","","","","","","",""
"","","","","","html-keyboard-response","197","2.0.0","175872","pa8f83anjwk","mus","elk","21","female","no","yes","1","5","null","<div style=""font-size:60px;"">+</div>","null","","","","","","",""
"","","","","","audio-keyboard-response","198","2.0.0","176474","pa8f83anjwk","mus","elk","21","female","no","yes","1","5","null","stimuli/sounds/phone_sound_B.wav","null","","","","","","",""
"","","","","","html-keyboard-response","199","2.0.0","177489","pa8f83anjwk","mus","elk","21","female","no","yes","1","5","null","","null","","","","","","",""
"","","","","","image-keyboard-response","200","2.0.0","178344","pa8f83anjwk","mus","elk","21","female","no","yes","1","5","853","stimuli/pictures/phone_cell_1.jpg","1","1","","true","no","sound","stimuli/sounds/phone_sound_B.wav",""
"","","","","","audio-keyboard-response","201","2.0.0","179347","pa8f83anjwk","mus","elk","21","female","no","yes","1","5","null","stimuli/sounds/bleep.wav","null","","","","","","",""
"","","","","","html-keyboard-response","202","2.0.0","179743","pa8f83anjwk","mus","elk","21","female","no","yes","1","5","287","<div style=""font-size:30px;"">Press space to start the trial</div>"," ","","","","","","",""
"","","","","","html-keyboard-response","203","2.0.0","180003","pa8f83anjwk","mus","elk","21","female","no","yes","1","5","null","<div style=""font-size:60px;"">+</div>","null","","","","","","",""
"","","","","","audio-keyboard-response","204","2.0.0","180604","pa8f83anjwk","mus","elk","21","female","no","yes","1","5","null","stimuli/sounds/bird_label_A.wav","null","","","","","","",""
"","","","","","html-keyboard-response","205","2.0.0","181610","pa8f83anjwk","mus","elk","21","female","no","yes","1","5","null","","null","","","","","","",""
"","","","","","image-keyboard-response","206","2.0.0","182034","pa8f83anjwk","mus","elk","21","female","no","yes","1","5","422","stimuli/pictures/bird_hawk_1.jpg","1","1","","true","yes","sound","stimuli/sounds/bird_label_A.wav",""
"","","","","","audio-keyboard-response","207","2.0.0","183049","pa8f83anjwk","mus","elk","21","female","no","yes","1","5","null","stimuli/sounds/bleep.wav","null","","","","","","",""
"","","","","","html-keyboard-response","208","2.0.0","183467","pa8f83anjwk","mus","elk","21","female","no","yes","1","5","308","<div style=""font-size:30px;"">Press space to start the trial</div>"," ","","","","","","",""
"","","","","","html-keyboard-response","209","2.0.0","183719","pa8f83anjwk","mus","elk","21","female","no","yes","1","5","null","<div style=""font-size:60px;"">+</div>","null","","","","","","",""
"","","","","","audio-keyboard-response","210","2.0.0","184313","pa8f83anjwk","mus","elk","21","female","no","yes","1","5","null","stimuli/sounds/bird_label_B.wav","null","","","","","","",""
"","","","","","html-keyboard-response","211","2.0.0","185325","pa8f83anjwk","mus","elk","21","female","no","yes","1","5","null","","null","","","","","","",""
"","","","","","image-keyboard-response","212","2.0.0","185781","pa8f83anjwk","mus","elk","21","female","no","yes","1","5","454","stimuli/pictures/phone_rotary_1.jpg","0","0","","true","no","sound","stimuli/sounds/bird_label_B.wav",""
"","","","","","audio-keyboard-response","213","2.0.0","186794","pa8f83anjwk","mus","elk","21","female","no","yes","1","5","null","stimuli/sounds/bleep.wav","null","","","","","","",""
"","","","","","html-keyboard-response","214","2.0.0","187132","pa8f83anjwk","mus","elk","21","female","no","yes","1","5","230","<div style=""font-size:30px;"">Press space to start the trial</div>"," ","","","","","","",""
"","","","","","html-keyboard-response","215","2.0.0","187386","pa8f83anjwk","mus","elk","21","female","no","yes","1","5","null","<div style=""font-size:60px;"">+</div>","null","","","","","","",""
"","","","","","audio-keyboard-response","216","2.0.0","187993","pa8f83anjwk","mus","elk","21","female","no","yes","1","5","null","stimuli/sounds/flute_sound_B.wav","null","","","","","","",""
"","","","","","html-keyboard-response","217","2.0.0","189002","pa8f83anjwk","mus","elk","21","female","no","yes","1","5","null","","null","","","","","","",""
"","","","","","image-keyboard-response","218","2.0.0","189467","pa8f83anjwk","mus","elk","21","female","no","yes","1","5","463","stimuli/pictures/flute_wooden_2.jpg","1","1","","true","yes","sound","stimuli/sounds/flute_sound_B.wav",""
"","","","","","audio-keyboard-response","219","2.0.0","190482","pa8f83anjwk","mus","elk","21","female","no","yes","1","5","null","stimuli/sounds/bleep.wav","null","","","","","","",""
"","","","","","html-keyboard-response","220","2.0.0","190869","pa8f83anjwk","mus","elk","21","female","no","yes","1","5","278","<div style=""font-size:30px;"">Press space to start the trial</div>"," ","","","","","","",""
"","","","","","html-keyboard-response","221","2.0.0","191133","pa8f83anjwk","mus","elk","21","female","no","yes","1","5","null","<div style=""font-size:60px;"">+</div>","null","","","","","","",""
"","","","","","audio-keyboard-response","222","2.0.0","191733","pa8f83anjwk","mus","elk","21","female","no","yes","1","5","null","stimuli/sounds/drum_label_B.wav","null","","","","","","",""
"","","","","","html-keyboard-response","223","2.0.0","192740","pa8f83anjwk","mus","elk","21","female","no","yes","1","5","null","","null","","","","","","",""
"","","","","","image-keyboard-response","224","2.0.0","193469","pa8f83anjwk","mus","elk","21","female","no","yes","1","5","728","stimuli/pictures/piano_grand_1.jpg","0","0","","true","no","sound","stimuli/sounds/drum_label_B.wav",""
"","","","","","audio-keyboard-response","225","2.0.0","194475","pa8f83anjwk","mus","elk","21","female","no","yes","1","5","null","stimuli/sounds/bleep.wav","null","","","","","","",""
"","","","","","html-keyboard-response","226","2.0.0","194805","pa8f83anjwk","mus","elk","21","female","no","yes","1","5","220","<div style=""font-size:30px;"">Press space to start the trial</div>"," ","","","","","","",""
"","","","","","html-keyboard-response","227","2.0.0","195068","pa8f83anjwk","mus","elk","21","female","no","yes","1","5","null","<div style=""font-size:60px;"">+</div>","null","","","","","","",""
"","","","","","audio-keyboard-response","228","2.0.0","195674","pa8f83anjwk","mus","elk","21","female","no","yes","1","5","null","stimuli/sounds/flute_sound_A.wav","null","","","","","","",""
"","","","","","html-keyboard-response","229","2.0.0","196688","pa8f83anjwk","mus","elk","21","female","no","yes","1","5","null","","null","","","","","","",""
"","","","","","image-keyboard-response","230","2.0.0","197148","pa8f83anjwk","mus","elk","21","female","no","yes","1","5","459","stimuli/pictures/phone_rotary_2.jpg","0","0","","true","no","sound","stimuli/sounds/flute_sound_A.wav",""
"","","","","","audio-keyboard-response","231","2.0.0","198161","pa8f83anjwk","mus","elk","21","female","no","yes","1","5","null","stimuli/sounds/bleep.wav","null","","","","","","",""
"","","","","","html-keyboard-response","232","2.0.0","198574","pa8f83anjwk","mus","elk","21","female","no","yes","1","5","304","<div style=""font-size:30px;"">Press space to start the trial</div>"," ","","","","","","",""
"","","","","","html-keyboard-response","233","2.0.0","198829","pa8f83anjwk","mus","elk","21","female","no","yes","1","5","null","<div style=""font-size:60px;"">+</div>","null","","","","","","",""
"","","","","","audio-keyboard-response","234","2.0.0","199424","pa8f83anjwk","mus","elk","21","female","no","yes","1","5","null","stimuli/sounds/drum_sound_B.wav","null","","","","","","",""
"","","","","","html-keyboard-response","235","2.0.0","200436","pa8f83anjwk","mus","elk","21","female","no","yes","1","5","null","","null","","","","","","",""
"","","","","","image-keyboard-response","236","2.0.0","201166","pa8f83anjwk","mus","elk","21","female","no","yes","1","5","728","stimuli/pictures/drum_kit_2.jpg","1","1","","true","no","sound","stimuli/sounds/drum_sound_B.wav",""
"","","","","","audio-keyboard-response","237","2.0.0","202179","pa8f83anjwk","mus","elk","21","female","no","yes","1","5","null","stimuli/sounds/bleep.wav","null","","","","","","",""
"","","","","","html-keyboard-response","238","2.0.0","202537","pa8f83anjwk","mus","elk","21","female","no","yes","1","5","247","<div style=""font-size:30px;"">Press space to start the trial</div>"," ","","","","","","",""
"","","","","","html-keyboard-response","239","2.0.0","202789","pa8f83anjwk","mus","elk","21","female","no","yes","1","5","null","<div style=""font-size:60px;"">+</div>","null","","","","","","",""
"","","","","","audio-keyboard-response","240","2.0.0","203394","pa8f83anjwk","mus","elk","21","female","no","yes","1","5","null","stimuli/sounds/flute_label_A.wav","null","","","","","","",""
"","","","","","html-keyboard-response","241","2.0.0","204409","pa8f83anjwk","mus","elk","21","female","no","yes","1","5","null","","null","","","","","","",""
"","","","","","image-keyboard-response","242","2.0.0","204984","pa8f83anjwk","mus","elk","21","female","no","yes","1","5","574","stimuli/pictures/piano_electric_2.jpg","0","0","","true","no","sound","stimuli/sounds/flute_label_A.wav",""
"","","","","","audio-keyboard-response","243","2.0.0","205997","pa8f83anjwk","mus","elk","21","female","no","yes","1","5","null","stimuli/sounds/bleep.wav","null","","","","","","",""
"","","","","","html-keyboard-response","244","2.0.0","206353","pa8f83anjwk","mus","elk","21","female","no","yes","1","5","245","<div style=""font-size:30px;"">Press space to start the trial</div>"," ","","","","","","",""
"","","","","","html-keyboard-response","245","2.0.0","206606","pa8f83anjwk","mus","elk","21","female","no","yes","1","5","null","<div style=""font-size:60px;"">+</div>","null","","","","","","",""
"","","","","","audio-keyboard-response","246","2.0.0","207214","pa8f83anjwk","mus","elk","21","female","no","yes","1","5","null","stimuli/sounds/piano_label_B.wav","null","","","","","","",""
"","","","","","html-keyboard-response","247","2.0.0","208226","pa8f83anjwk","mus","elk","21","female","no","yes","1","5","null","","null","","","","","","",""
"","","","","","image-keyboard-response","248","2.0.0","208744","pa8f83anjwk","mus","elk","21","female","no","yes","1","5","516","stimuli/pictures/piano_electric_1.jpg","1","1","","true","yes","sound","stimuli/sounds/piano_label_B.wav",""
"","","","","","audio-keyboard-response","249","2.0.0","209756","pa8f83anjwk","mus","elk","21","female","no","yes","1","5","null","stimuli/sounds/bleep.wav","null","","","","","","",""
"","","","","","html-keyboard-response","250","2.0.0","210216","pa8f83anjwk","mus","elk","21","female","no","yes","1","5","350","<div style=""font-size:30px;"">Press space to start the trial</div>"," ","","","","","","",""
"","","","","","html-keyboard-response","251","2.0.0","210471","pa8f83anjwk","mus","elk","21","female","no","yes","1","5","null","<div style=""font-size:60px;"">+</div>","null","","","","","","",""
"","","","","","audio-keyboard-response","252","2.0.0","211064","pa8f83anjwk","mus","elk","21","female","no","yes","1","5","null","stimuli/sounds/phone_label_A.wav","null","","","","","","",""
"","","","","","html-keyboard-response","253","2.0.0","212077","pa8f83anjwk","mus","elk","21","female","no","yes","1","5","null","","null","","","","","","",""
"","","","","","image-keyboard-response","254","2.0.0","212491","pa8f83anjwk","mus","elk","21","female","no","yes","1","5","412","stimuli/pictures/drum_bongo_2.jpg","0","0","","true","no","sound","stimuli/sounds/phone_label_A.wav",""
"","","","","","audio-keyboard-response","255","2.0.0","213496","pa8f83anjwk","mus","elk","21","female","no","yes","1","5","null","stimuli/sounds/bleep.wav","null","","","","","","",""
"","","","","","html-keyboard-response","256","2.0.0","213874","pa8f83anjwk","mus","elk","21","female","no","yes","1","5","267","<div style=""font-size:30px;"">Press space to start the trial</div>"," ","","","","","","",""
"","","","","","html-keyboard-response","257","2.0.0","214135","pa8f83anjwk","mus","elk","21","female","no","yes","1","5","null","<div style=""font-size:60px;"">+</div>","null","","","","","","",""
"","","","","","audio-keyboard-response","258","2.0.0","214764","pa8f83anjwk","mus","elk","21","female","no","yes","1","5","null","stimuli/sounds/piano_label_A.wav","null","","","","","","",""
"","","","","","html-keyboard-response","259","2.0.0","215776","pa8f83anjwk","mus","elk","21","female","no","yes","1","5","null","","null","","","","","","",""
"","","","","","image-keyboard-response","260","2.0.0","216299","pa8f83anjwk","mus","elk","21","female","no","yes","1","5","521","stimuli/pictures/piano_electric_2.jpg","1","1","","true","yes","sound","stimuli/sounds/piano_label_A.wav",""
"","","","","","audio-keyboard-response","261","2.0.0","217306","pa8f83anjwk","mus","elk","21","female","no","yes","1","5","null","stimuli/sounds/bleep.wav","null","","","","","","",""
"","","","","","html-keyboard-response","262","2.0.0","217762","pa8f83anjwk","mus","elk","21","female","no","yes","1","5","348","<div style=""font-size:30px;"">Press space to start the trial</div>"," ","","","","","","",""
"","","","","","html-keyboard-response","263","2.0.0","218021","pa8f83anjwk","mus","elk","21","female","no","yes","1","5","null","<div style=""font-size:60px;"">+</div>","null","","","","","","",""
"","","","","","audio-keyboard-response","264","2.0.0","218613","pa8f83anjwk","mus","elk","21","female","no","yes","1","5","null","stimuli/sounds/bird_sound_B.wav","null","","","","","","",""
"","","","","","html-keyboard-response","265","2.0.0","219619","pa8f83anjwk","mus","elk","21","female","no","yes","1","5","null","","null","","","","","","",""
"","","","","","image-keyboard-response","266","2.0.0","220038","pa8f83anjwk","mus","elk","21","female","no","yes","1","5","417","stimuli/pictures/drum_bongo_2.jpg","0","0","","true","no","sound","stimuli/sounds/bird_sound_B.wav",""
"","","","","","audio-keyboard-response","267","2.0.0","221055","pa8f83anjwk","mus","elk","21","female","no","yes","1","5","null","stimuli/sounds/bleep.wav","null","","","","","","",""
"","","","","","html-keyboard-response","268","2.0.0","230589","pa8f83anjwk","mus","elk","21","female","no","yes","1","5","9422","<p>You have completed a block. Press R when you are ready to continue</p>","r","","","","","","",""
"","","","","","html-keyboard-response","269","2.0.0","231341","pa8f83anjwk","mus","elk","21","female","no","yes","1","5","751","<div style=""font-size:30px;"">Press space to start the trial</div>"," ","","","","","","",""
"","","","","","html-keyboard-response","270","2.0.0","231601","pa8f83anjwk","mus","elk","21","female","no","yes","1","5","null","<div style=""font-size:60px;"">+</div>","null","","","","","","",""
"","","","","","audio-keyboard-response","271","2.0.0","232193","pa8f83anjwk","mus","elk","21","female","no","yes","1","5","null","stimuli/sounds/bird_sound_A.wav","null","","","","","","",""
"","","","","","html-keyboard-response","272","2.0.0","233207","pa8f83anjwk","mus","elk","21","female","no","yes","1","5","null","","null","","","","","","",""
"","","","","","image-keyboard-response","273","2.0.0","233597","pa8f83anjwk","mus","elk","21","female","no","yes","1","5","387","stimuli/pictures/piano_grand_1.jpg","0","0","","true","no","sound","stimuli/sounds/bird_sound_A.wav",""
"","","","","","audio-keyboard-response","274","2.0.0","234611","pa8f83anjwk","mus","elk","21","female","no","yes","1","5","null","stimuli/sounds/bleep.wav","null","","","","","","",""
"","","","","","html-keyboard-response","275","2.0.0","235199","pa8f83anjwk","mus","elk","21","female","no","yes","1","5","479","<div style=""font-size:30px;"">Press space to start the trial</div>"," ","","","","","","",""
"","","","","","html-keyboard-response","276","2.0.0","235455","pa8f83anjwk","mus","elk","21","female","no","yes","1","5","null","<div style=""font-size:60px;"">+</div>","null","","","","","","",""
"","","","","","audio-keyboard-response","277","2.0.0","236063","pa8f83anjwk","mus","elk","21","female","no","yes","1","5","null","stimuli/sounds/piano_sound_B.wav","null","","","","","","",""
"","","","","","html-keyboard-response","278","2.0.0","237069","pa8f83anjwk","mus","elk","21","female","no","yes","1","5","null","","null","","","","","","",""
"","","","","","image-keyboard-response","279","2.0.0","237536","pa8f83anjwk","mus","elk","21","female","no","yes","1","5","466","stimuli/pictures/piano_grand_2.jpg","1","1","","true","no","sound","stimuli/sounds/piano_sound_B.wav",""
"","","","","","audio-keyboard-response","280","2.0.0","238549","pa8f83anjwk","mus","elk","21","female","no","yes","1","5","null","stimuli/sounds/bleep.wav","null","","","","","","",""
"","","","","","html-keyboard-response","281","2.0.0","238775","pa8f83anjwk","mus","elk","21","female","no","yes","1","5","115","<div style=""font-size:30px;"">Press space to start the trial</div>"," ","","","","","","",""
"","","","","","html-keyboard-response","282","2.0.0","239032","pa8f83anjwk","mus","elk","21","female","no","yes","1","5","null","<div style=""font-size:60px;"">+</div>","null","","","","","","",""
"","","","","","audio-keyboard-response","283","2.0.0","239643","pa8f83anjwk","mus","elk","21","female","no","yes","1","5","null","stimuli/sounds/flute_label_B.wav","null","","","","","","",""
"","","","","","html-keyboard-response","284","2.0.0","240651","pa8f83anjwk","mus","elk","21","female","no","yes","1","5","null","","null","","","","","","",""
"","","","","","image-keyboard-response","285","2.0.0","241016","pa8f83anjwk","mus","elk","21","female","no","yes","1","5","363","stimuli/pictures/flute_metal_2.jpg","1","1","","true","yes","sound","stimuli/sounds/flute_label_B.wav",""
"","","","","","audio-keyboard-response","286","2.0.0","242023","pa8f83anjwk","mus","elk","21","female","no","yes","1","5","null","stimuli/sounds/bleep.wav","null","","","","","","",""
"","","","","","html-keyboard-response","287","2.0.0","242216","pa8f83anjwk","mus","elk","21","female","no","yes","1","5","85","<div style=""font-size:30px;"">Press space to start the trial</div>"," ","","","","","","",""
"","","","","","html-keyboard-response","288","2.0.0","242474","pa8f83anjwk","mus","elk","21","female","no","yes","1","5","null","<div style=""font-size:60px;"">+</div>","null","","","","","","",""
"","","","","","audio-keyboard-response","289","2.0.0","243083","pa8f83anjwk","mus","elk","21","female","no","yes","1","5","null","stimuli/sounds/piano_label_B.wav","null","","","","","","",""
"","","","","","html-keyboard-response","290","2.0.0","244084","pa8f83anjwk","mus","elk","21","female","no","yes","1","5","null","","null","","","","","","",""
"","","","","","image-keyboard-response","291","2.0.0","244503","pa8f83anjwk","mus","elk","21","female","no","yes","1","5","418","stimuli/pictures/piano_electric_2.jpg","1","1","","true","yes","sound","stimuli/sounds/piano_label_B.wav",""
"","","","","","audio-keyboard-response","292","2.0.0","245514","pa8f83anjwk","mus","elk","21","female","no","yes","1","5","null","stimuli/sounds/bleep.wav","null","","","","","","",""
"","","","","","html-keyboard-response","293","2.0.0","246235","pa8f83anjwk","mus","elk","21","female","no","yes","1","5","612","<div style=""font-size:30px;"">Press space to start the trial</div>"," ","","","","","","",""
"","","","","","html-keyboard-response","294","2.0.0","246498","pa8f83anjwk","mus","elk","21","female","no","yes","1","5","null","<div style=""font-size:60px;"">+</div>","null","","","","","","",""
"","","","","","audio-keyboard-response","295","2.0.0","247094","pa8f83anjwk","mus","elk","21","female","no","yes","1","5","null","stimuli/sounds/phone_label_B.wav","null","","","","","","",""
"","","","","","html-keyboard-response","296","2.0.0","248106","pa8f83anjwk","mus","elk","21","female","no","yes","1","5","null","","null","","","","","","",""
"","","","","","image-keyboard-response","297","2.0.0","248602","pa8f83anjwk","mus","elk","21","female","no","yes","1","5","494","stimuli/pictures/phone_cell_2.jpg","1","1","","true","yes","sound","stimuli/sounds/phone_label_B.wav",""
"","","","","","audio-keyboard-response","298","2.0.0","249619","pa8f83anjwk","mus","elk","21","female","no","yes","1","5","null","stimuli/sounds/bleep.wav","null","","","","","","",""
"","","","","","html-keyboard-response","299","2.0.0","249944","pa8f83anjwk","mus","elk","21","female","no","yes","1","5","217","<div style=""font-size:30px;"">Press space to start the trial</div>"," ","","","","","","",""
"","","","","","html-keyboard-response","300","2.0.0","250210","pa8f83anjwk","mus","elk","21","female","no","yes","1","5","null","<div style=""font-size:60px;"">+</div>","null","","","","","","",""
"","","","","","audio-keyboard-response","301","2.0.0","250813","pa8f83anjwk","mus","elk","21","female","no","yes","1","5","null","stimuli/sounds/flute_label_B.wav","null","","","","","","",""
"","","","","","html-keyboard-response","302","2.0.0","251827","pa8f83anjwk","mus","elk","21","female","no","yes","1","5","null","","null","","","","","","",""
"","","","","","image-keyboard-response","303","2.0.0","252207","pa8f83anjwk","mus","elk","21","female","no","yes","1","5","378","stimuli/pictures/drum_kit_1.jpg","0","0","","true","no","sound","stimuli/sounds/flute_label_B.wav",""
"","","","","","audio-keyboard-response","304","2.0.0","253214","pa8f83anjwk","mus","elk","21","female","no","yes","1","5","null","stimuli/sounds/bleep.wav","null","","","","","","",""
"","","","","","html-keyboard-response","305","2.0.0","253599","pa8f83anjwk","mus","elk","21","female","no","yes","1","5","275","<div style=""font-size:30px;"">Press space to start the trial</div>"," ","","","","","","",""
"","","","","","html-keyboard-response","306","2.0.0","253852","pa8f83anjwk","mus","elk","21","female","no","yes","1","5","null","<div style=""font-size:60px;"">+</div>","null","","","","","","",""
"","","","","","audio-keyboard-response","307","2.0.0","254453","pa8f83anjwk","mus","elk","21","female","no","yes","1","5","null","stimuli/sounds/drum_label_B.wav","null","","","","","","",""
"","","","","","html-keyboard-response","308","2.0.0","255459","pa8f83anjwk","mus","elk","21","female","no","yes","1","5","null","","null","","","","","","",""
"","","","","","image-keyboard-response","309","2.0.0","256040","pa8f83anjwk","mus","elk","21","female","no","yes","1","5","579","stimuli/pictures/piano_electric_2.jpg","0","0","","true","no","sound","stimuli/sounds/drum_label_B.wav",""
"","","","","","audio-keyboard-response","310","2.0.0","257044","pa8f83anjwk","mus","elk","21","female","no","yes","1","5","null","stimuli/sounds/bleep.wav","null","","","","","","",""
"","","","","","html-keyboard-response","311","2.0.0","257477","pa8f83anjwk","mus","elk","21","female","no","yes","1","5","324","<div style=""font-size:30px;"">Press space to start the trial</div>"," ","","","","","","",""
"","","","","","html-keyboard-response","312","2.0.0","257733","pa8f83anjwk","mus","elk","21","female","no","yes","1","5","null","<div style=""font-size:60px;"">+</div>","null","","","","","","",""
"","","","","","audio-keyboard-response","313","2.0.0","258344","pa8f83anjwk","mus","elk","21","female","no","yes","1","5","null","stimuli/sounds/piano_label_B.wav","null","","","","","","",""
"","","","","","html-keyboard-response","314","2.0.0","259355","pa8f83anjwk","mus","elk","21","female","no","yes","1","5","null","","null","","","","","","",""
"","","","","","image-keyboard-response","315","2.0.0","259927","pa8f83anjwk","mus","elk","21","female","no","yes","1","5","571","stimuli/pictures/piano_grand_1.jpg","1","1","","true","yes","sound","stimuli/sounds/piano_label_B.wav",""
"","","","","","audio-keyboard-response","316","2.0.0","260931","pa8f83anjwk","mus","elk","21","female","no","yes","1","5","null","stimuli/sounds/bleep.wav","null","","","","","","",""
"","","","","","html-keyboard-response","317","2.0.0","261300","pa8f83anjwk","mus","elk","21","female","no","yes","1","5","260","<div style=""font-size:30px;"">Press space to start the trial</div>"," ","","","","","","",""
"","","","","","html-keyboard-response","318","2.0.0","261556","pa8f83anjwk","mus","elk","21","female","no","yes","1","5","null","<div style=""font-size:60px;"">+</div>","null","","","","","","",""
"","","","","","audio-keyboard-response","319","2.0.0","262164","pa8f83anjwk","mus","elk","21","female","no","yes","1","5","null","stimuli/sounds/flute_sound_A.wav","null","","","","","","",""
"","","","","","html-keyboard-response","320","2.0.0","263167","pa8f83anjwk","mus","elk","21","female","no","yes","1","5","null","","null","","","","","","",""
"","","","","","image-keyboard-response","321","2.0.0","263551","pa8f83anjwk","mus","elk","21","female","no","yes","1","5","383","stimuli/pictures/phone_rotary_1.jpg","0","0","","true","no","sound","stimuli/sounds/flute_sound_A.wav",""
"","","","","","audio-keyboard-response","322","2.0.0","264567","pa8f83anjwk","mus","elk","21","female","no","yes","1","5","null","stimuli/sounds/bleep.wav","null","","","","","","",""
"","","","","","html-keyboard-response","323","2.0.0","264923","pa8f83anjwk","mus","elk","21","female","no","yes","1","5","244","<div style=""font-size:30px;"">Press space to start the trial</div>"," ","","","","","","",""
"","","","","","html-keyboard-response","324","2.0.0","265176","pa8f83anjwk","mus","elk","21","female","no","yes","1","5","null","<div style=""font-size:60px;"">+</div>","null","","","","","","",""
"","","","","","audio-keyboard-response","325","2.0.0","265783","pa8f83anjwk","mus","elk","21","female","no","yes","1","5","null","stimuli/sounds/flute_sound_A.wav","null","","","","","","",""
"","","","","","html-keyboard-response","326","2.0.0","266796","pa8f83anjwk","mus","elk","21","female","no","yes","1","5","null","","null","","","","","","",""
"","","","","","image-keyboard-response","327","2.0.0","267255","pa8f83anjwk","mus","elk","21","female","no","yes","1","5","458","stimuli/pictures/flute_metal_1.jpg","1","1","","true","yes","sound","stimuli/sounds/flute_sound_A.wav",""
"","","","","","audio-keyboard-response","328","2.0.0","268268","pa8f83anjwk","mus","elk","21","female","no","yes","1","5","null","stimuli/sounds/bleep.wav","null","","","","","","",""
"","","","","","html-keyboard-response","329","2.0.0","268608","pa8f83anjwk","mus","elk","21","female","no","yes","1","5","230","<div style=""font-size:30px;"">Press space to start the trial</div>"," ","","","","","","",""
"","","","","","html-keyboard-response","330","2.0.0","268860","pa8f83anjwk","mus","elk","21","female","no","yes","1","5","null","<div style=""font-size:60px;"">+</div>","null","","","","","","",""
"","","","","","audio-keyboard-response","331","2.0.0","269464","pa8f83anjwk","mus","elk","21","female","no","yes","1","5","null","stimuli/sounds/flute_label_A.wav","null","","","","","","",""
"","","","","","html-keyboard-response","332","2.0.0","270480","pa8f83anjwk","mus","elk","21","female","no","yes","1","5","null","","null","","","","","","",""
"","","","","","image-keyboard-response","333","2.0.0","271151","pa8f83anjwk","mus","elk","21","female","no","yes","1","5","669","stimuli/pictures/flute_wooden_1.jpg","1","1","","true","yes","sound","stimuli/sounds/flute_label_A.wav",""
"","","","","","audio-keyboard-response","334","2.0.0","272162","pa8f83anjwk","mus","elk","21","female","no","yes","1","5","null","stimuli/sounds/bleep.wav","null","","","","","","",""
"","","","","","html-keyboard-response","335","2.0.0","272503","pa8f83anjwk","mus","elk","21","female","no","yes","1","5","230","<div style=""font-size:30px;"">Press space to start the trial</div>"," ","","","","","","",""
"","","","","","html-keyboard-response","336","2.0.0","272769","pa8f83anjwk","mus","elk","21","female","no","yes","1","5","null","<div style=""font-size:60px;"">+</div>","null","","","","","","",""
"","","","","","audio-keyboard-response","337","2.0.0","273364","pa8f83anjwk","mus","elk","21","female","no","yes","1","5","null","stimuli/sounds/drum_sound_B.wav","null","","","","","","",""
"","","","","","html-keyboard-response","338","2.0.0","274379","pa8f83anjwk","mus","elk","21","female","no","yes","1","5","null","","null","","","","","","",""
"","","","","","image-keyboard-response","339","2.0.0","274783","pa8f83anjwk","mus","elk","21","female","no","yes","1","5","402","stimuli/pictures/phone_cell_2.jpg","0","0","","true","no","sound","stimuli/sounds/drum_sound_B.wav",""
"","","","","","audio-keyboard-response","340","2.0.0","275792","pa8f83anjwk","mus","elk","21","female","no","yes","1","5","null","stimuli/sounds/bleep.wav","null","","","","","","",""
"","","","","","html-keyboard-response","341","2.0.0","276229","pa8f83anjwk","mus","elk","21","female","no","yes","1","5","328","<div style=""font-size:30px;"">Press space to start the trial</div>"," ","","","","","","",""
"","","","","","html-keyboard-response","342","2.0.0","276493","pa8f83anjwk","mus","elk","21","female","no","yes","1","5","null","<div style=""font-size:60px;"">+</div>","null","","","","","","",""
"","","","","","audio-keyboard-response","343","2.0.0","277093","pa8f83anjwk","mus","elk","21","female","no","yes","1","5","null","stimuli/sounds/phone_label_B.wav","null","","","","","","",""
"","","","","","html-keyboard-response","344","2.0.0","278095","pa8f83anjwk","mus","elk","21","female","no","yes","1","5","null","","null","","","","","","",""
"","","","","","image-keyboard-response","345","2.0.0","278618","pa8f83anjwk","mus","elk","21","female","no","yes","1","5","521","stimuli/pictures/phone_rotary_2.jpg","1","1","","true","yes","sound","stimuli/sounds/phone_label_B.wav",""
"","","","","","audio-keyboard-response","346","2.0.0","279633","pa8f83anjwk","mus","elk","21","female","no","yes","1","5","null","stimuli/sounds/bleep.wav","null","","","","","","",""
"","","","","","html-keyboard-response","347","2.0.0","279999","pa8f83anjwk","mus","elk","21","female","no","yes","1","5","256","<div style=""font-size:30px;"">Press space to start the trial</div>"," ","","","","","","",""
"","","","","","html-keyboard-response","348","2.0.0","280256","pa8f83anjwk","mus","elk","21","female","no","yes","1","5","null","<div style=""font-size:60px;"">+</div>","null","","","","","","",""
"","","","","","audio-keyboard-response","349","2.0.0","280853","pa8f83anjwk","mus","elk","21","female","no","yes","1","5","null","stimuli/sounds/drum_sound_A.wav","null","","","","","","",""
"","","","","","html-keyboard-response","350","2.0.0","281858","pa8f83anjwk","mus","elk","21","female","no","yes","1","5","null","","null","","","","","","",""
"","","","","","image-keyboard-response","351","2.0.0","282378","pa8f83anjwk","mus","elk","21","female","no","yes","1","5","519","stimuli/pictures/drum_kit_1.jpg","1","1","","true","yes","sound","stimuli/sounds/drum_sound_A.wav",""
"","","","","","audio-keyboard-response","352","2.0.0","283385","pa8f83anjwk","mus","elk","21","female","no","yes","1","5","null","stimuli/sounds/bleep.wav","null","","","","","","",""
"","","","","","html-keyboard-response","353","2.0.0","283783","pa8f83anjwk","mus","elk","21","female","no","yes","1","5","287","<div style=""font-size:30px;"">Press space to start the trial</div>"," ","","","","","","",""
"","","","","","html-keyboard-response","354","2.0.0","284041","pa8f83anjwk","mus","elk","21","female","no","yes","1","5","null","<div style=""font-size:60px;"">+</div>","null","","","","","","",""
"","","","","","audio-keyboard-response","355","2.0.0","284643","pa8f83anjwk","mus","elk","21","female","no","yes","1","5","null","stimuli/sounds/drum_sound_A.wav","null","","","","","","",""
"","","","","","html-keyboard-response","356","2.0.0","285659","pa8f83anjwk","mus","elk","21","female","no","yes","1","5","null","","null","","","","","","",""
"","","","","","image-keyboard-response","357","2.0.0","286289","pa8f83anjwk","mus","elk","21","female","no","yes","1","5","629","stimuli/pictures/drum_bongo_2.jpg","1","1","","true","no","sound","stimuli/sounds/drum_sound_A.wav",""
"","","","","","audio-keyboard-response","358","2.0.0","287297","pa8f83anjwk","mus","elk","21","female","no","yes","1","5","null","stimuli/sounds/bleep.wav","null","","","","","","",""
"","","","","","html-keyboard-response","359","2.0.0","287609","pa8f83anjwk","mus","elk","21","female","no","yes","1","5","203","<div style=""font-size:30px;"">Press space to start the trial</div>"," ","","","","","","",""
"","","","","","html-keyboard-response","360","2.0.0","287872","pa8f83anjwk","mus","elk","21","female","no","yes","1","5","null","<div style=""font-size:60px;"">+</div>","null","","","","","","",""
"","","","","","audio-keyboard-response","361","2.0.0","288474","pa8f83anjwk","mus","elk","21","female","no","yes","1","5","null","stimuli/sounds/phone_label_A.wav","null","","","","","","",""
"","","","","","html-keyboard-response","362","2.0.0","289478","pa8f83anjwk","mus","elk","21","female","no","yes","1","5","null","","null","","","","","","",""
"","","","","","image-keyboard-response","363","2.0.0","290023","pa8f83anjwk","mus","elk","21","female","no","yes","1","5","544","stimuli/pictures/drum_kit_1.jpg","0","0","","true","no","sound","stimuli/sounds/phone_label_A.wav",""
"","","","","","audio-keyboard-response","364","2.0.0","291039","pa8f83anjwk","mus","elk","21","female","no","yes","1","5","null","stimuli/sounds/bleep.wav","null","","","","","","",""
"","","","","","html-keyboard-response","365","2.0.0","291607","pa8f83anjwk","mus","elk","21","female","no","yes","1","5","458","<div style=""font-size:30px;"">Press space to start the trial</div>"," ","","","","","","",""
"","","","","","html-keyboard-response","366","2.0.0","291861","pa8f83anjwk","mus","elk","21","female","no","yes","1","5","null","<div style=""font-size:60px;"">+</div>","null","","","","","","",""
"","","","","","audio-keyboard-response","367","2.0.0","292453","pa8f83anjwk","mus","elk","21","female","no","yes","1","5","null","stimuli/sounds/phone_label_B.wav","null","","","","","","",""
"","","","","","html-keyboard-response","368","2.0.0","293463","pa8f83anjwk","mus","elk","21","female","no","yes","1","5","null","","null","","","","","","",""
"","","","","","image-keyboard-response","369","2.0.0","293955","pa8f83anjwk","mus","elk","21","female","no","yes","1","5","490","stimuli/pictures/flute_wooden_2.jpg","0","0","","true","no","sound","stimuli/sounds/phone_label_B.wav",""
"","","","","","audio-keyboard-response","370","2.0.0","294972","pa8f83anjwk","mus","elk","21","female","no","yes","1","5","null","stimuli/sounds/bleep.wav","null","","","","","","",""
"","","","","","html-keyboard-response","371","2.0.0","296279","pa8f83anjwk","mus","elk","21","female","no","yes","1","5","1197","<div style=""font-size:30px;"">Press space to start the trial</div>"," ","","","","","","",""
"","","","","","html-keyboard-response","372","2.0.0","296545","pa8f83anjwk","mus","elk","21","female","no","yes","1","5","null","<div style=""font-size:60px;"">+</div>","null","","","","","","",""
"","","","","","audio-keyboard-response","373","2.0.0","297174","pa8f83anjwk","mus","elk","21","female","no","yes","1","5","null","stimuli/sounds/piano_label_A.wav","null","","","","","","",""
"","","","","","html-keyboard-response","374","2.0.0","298182","pa8f83anjwk","mus","elk","21","female","no","yes","1","5","null","","null","","","","","","",""
"","","","","","image-keyboard-response","375","2.0.0","298562","pa8f83anjwk","mus","elk","21","female","no","yes","1","5","379","stimuli/pictures/piano_grand_2.jpg","1","1","","true","yes","sound","stimuli/sounds/piano_label_A.wav",""
"","","","","","audio-keyboard-response","376","2.0.0","299572","pa8f83anjwk","mus","elk","21","female","no","yes","1","5","null","stimuli/sounds/bleep.wav","null","","","","","","",""
"","","","","","html-keyboard-response","377","2.0.0","300024","pa8f83anjwk","mus","elk","21","female","no","yes","1","5","340","<div style=""font-size:30px;"">Press space to start the trial</div>"," ","","","","","","",""
"","","","","","html-keyboard-response","378","2.0.0","300275","pa8f83anjwk","mus","elk","21","female","no","yes","1","5","null","<div style=""font-size:60px;"">+</div>","null","","","","","","",""
"","","","","","audio-keyboard-response","379","2.0.0","300883","pa8f83anjwk","mus","elk","21","female","no","yes","1","5","null","stimuli/sounds/flute_sound_B.wav","null","","","","","","",""
"","","","","","html-keyboard-response","380","2.0.0","301889","pa8f83anjwk","mus","elk","21","female","no","yes","1","5","null","","null","","","","","","",""
"","","","","","image-keyboard-response","381","2.0.0","302231","pa8f83anjwk","mus","elk","21","female","no","yes","1","5","340","stimuli/pictures/flute_wooden_1.jpg","1","1","","true","yes","sound","stimuli/sounds/flute_sound_B.wav",""
"","","","","","audio-keyboard-response","382","2.0.0","303242","pa8f83anjwk","mus","elk","21","female","no","yes","1","5","null","stimuli/sounds/bleep.wav","null","","","","","","",""
"","","","","","html-keyboard-response","383","2.0.0","303598","pa8f83anjwk","mus","elk","21","female","no","yes","1","5","247","<div style=""font-size:30px;"">Press space to start the trial</div>"," ","","","","","","",""
"","","","","","html-keyboard-response","384","2.0.0","303850","pa8f83anjwk","mus","elk","21","female","no","yes","1","5","null","<div style=""font-size:60px;"">+</div>","null","","","","","","",""
"","","","","","audio-keyboard-response","385","2.0.0","304453","pa8f83anjwk","mus","elk","21","female","no","yes","1","5","null","stimuli/sounds/flute_sound_B.wav","null","","","","","","",""
"","","","","","html-keyboard-response","386","2.0.0","305461","pa8f83anjwk","mus","elk","21","female","no","yes","1","5","null","","null","","","","","","",""
"","","","","","image-keyboard-response","387","2.0.0","305970","pa8f83anjwk","mus","elk","21","female","no","yes","1","5","507","stimuli/pictures/flute_metal_2.jpg","1","1","","true","no","sound","stimuli/sounds/flute_sound_B.wav",""
"","","","","","audio-keyboard-response","388","2.0.0","306980","pa8f83anjwk","mus","elk","21","female","no","yes","1","5","null","stimuli/sounds/bleep.wav","null","","","","","","",""
"","","","","","html-keyboard-response","389","2.0.0","311476","pa8f83anjwk","mus","elk","21","female","no","yes","1","5","4387","<p>You have completed a block. Press R when you are ready to continue</p>","r","","","","","","",""
"","","","","","html-keyboard-response","390","2.0.0","312518","pa8f83anjwk","mus","elk","21","female","no","yes","1","5","1041","<div style=""font-size:30px;"">Press space to start the trial</div>"," ","","","","","","",""
"","","","","","html-keyboard-response","391","2.0.0","312775","pa8f83anjwk","mus","elk","21","female","no","yes","1","5","null","<div style=""font-size:60px;"">+</div>","null","","","","","","",""
"","","","","","audio-keyboard-response","392","2.0.0","313373","pa8f83anjwk","mus","elk","21","female","no","yes","1","5","null","stimuli/sounds/bird_label_A.wav","null","","","","","","",""
"","","","","","html-keyboard-response","393","2.0.0","314376","pa8f83anjwk","mus","elk","21","female","no","yes","1","5","null","","null","","","","","","",""
"","","","","","image-keyboard-response","394","2.0.0","314757","pa8f83anjwk","mus","elk","21","female","no","yes","1","5","380","stimuli/pictures/bird_song_2.jpg","1","1","","true","yes","sound","stimuli/sounds/bird_label_A.wav",""
"","","","","","audio-keyboard-response","395","2.0.0","315764","pa8f83anjwk","mus","elk","21","female","no","yes","1","5","null","stimuli/sounds/bleep.wav","null","","","","","","",""
"","","","","","html-keyboard-response","396","2.0.0","316364","pa8f83anjwk","mus","elk","21","female","no","yes","1","5","490","<div style=""font-size:30px;"">Press space to start the trial</div>"," ","","","","","","",""
"","","","","","html-keyboard-response","397","2.0.0","316622","pa8f83anjwk","mus","elk","21","female","no","yes","1","5","null","<div style=""font-size:60px;"">+</div>","null","","","","","","",""
"","","","","","audio-keyboard-response","398","2.0.0","317223","pa8f83anjwk","mus","elk","21","female","no","yes","1","5","null","stimuli/sounds/bird_label_B.wav","null","","","","","","",""
"","","","","","html-keyboard-response","399","2.0.0","318240","pa8f83anjwk","mus","elk","21","female","no","yes","1","5","null","","null","","","","","","",""
"","","","","","image-keyboard-response","400","2.0.0","318668","pa8f83anjwk","mus","elk","21","female","no","yes","1","5","426","stimuli/pictures/phone_cell_1.jpg","0","0","","true","no","sound","stimuli/sounds/bird_label_B.wav",""
"","","","","","audio-keyboard-response","401","2.0.0","319683","pa8f83anjwk","mus","elk","21","female","no","yes","1","5","null","stimuli/sounds/bleep.wav","null","","","","","","",""
"","","","","","html-keyboard-response","402","2.0.0","319998","pa8f83anjwk","mus","elk","21","female","no","yes","1","5","205","<div style=""font-size:30px;"">Press space to start the trial</div>"," ","","","","","","",""
"","","","","","html-keyboard-response","403","2.0.0","320262","pa8f83anjwk","mus","elk","21","female","no","yes","1","5","null","<div style=""font-size:60px;"">+</div>","null","","","","","","",""
"","","","","","audio-keyboard-response","404","2.0.0","320863","pa8f83anjwk","mus","elk","21","female","no","yes","1","5","null","stimuli/sounds/phone_sound_B.wav","null","","","","","","",""
"","","","","","html-keyboard-response","405","2.0.0","321866","pa8f83anjwk","mus","elk","21","female","no","yes","1","5","null","","null","","","","","","",""
"","","","","","image-keyboard-response","406","2.0.0","322584","pa8f83anjwk","mus","elk","21","female","no","yes","1","5","717","stimuli/pictures/piano_grand_2.jpg","0","0","","true","no","sound","stimuli/sounds/phone_sound_B.wav",""
"","","","","","audio-keyboard-response","407","2.0.0","323595","pa8f83anjwk","mus","elk","21","female","no","yes","1","5","null","stimuli/sounds/bleep.wav","null","","","","","","",""
"","","","","","html-keyboard-response","408","2.0.0","323942","pa8f83anjwk","mus","elk","21","female","no","yes","1","5","239","<div style=""font-size:30px;"">Press space to start the trial</div>"," ","","","","","","",""
"","","","","","html-keyboard-response","409","2.0.0","324202","pa8f83anjwk","mus","elk","21","female","no","yes","1","5","null","<div style=""font-size:60px;"">+</div>","null","","","","","","",""
"","","","","","audio-keyboard-response","410","2.0.0","324813","pa8f83anjwk","mus","elk","21","female","no","yes","1","5","null","stimuli/sounds/piano_label_B.wav","null","","","","","","",""
"","","","","","html-keyboard-response","411","2.0.0","325826","pa8f83anjwk","mus","elk","21","female","no","yes","1","5","null","","null","","","","","","",""
"","","","","","image-keyboard-response","412","2.0.0","326285","pa8f83anjwk","mus","elk","21","female","no","yes","1","5","458","stimuli/pictures/bird_hawk_1.jpg","0","0","","true","no","sound","stimuli/sounds/piano_label_B.wav",""
"","","","","","audio-keyboard-response","413","2.0.0","327302","pa8f83anjwk","mus","elk","21","female","no","yes","1","5","null","stimuli/sounds/bleep.wav","null","","","","","","",""
"","","","","","html-keyboard-response","414","2.0.0","327623","pa8f83anjwk","mus","elk","21","female","no","yes","1","5","212","<div style=""font-size:30px;"">Press space to start the trial</div>"," ","","","","","","",""
"","","","","","html-keyboard-response","415","2.0.0","327880","pa8f83anjwk","mus","elk","21","female","no","yes","1","5","null","<div style=""font-size:60px;"">+</div>","null","","","","","","",""
"","","","","","audio-keyboard-response","416","2.0.0","328473","pa8f83anjwk","mus","elk","21","female","no","yes","1","5","null","stimuli/sounds/phone_label_B.wav","null","","","","","","",""
"","","","","","html-keyboard-response","417","2.0.0","329481","pa8f83anjwk","mus","elk","21","female","no","yes","1","5","null","","null","","","","","","",""
"","","","","","image-keyboard-response","418","2.0.0","329936","pa8f83anjwk","mus","elk","21","female","no","yes","1","5","454","stimuli/pictures/flute_metal_1.jpg","0","0","","true","no","sound","stimuli/sounds/phone_label_B.wav",""
"","","","","","audio-keyboard-response","419","2.0.0","330945","pa8f83anjwk","mus","elk","21","female","no","yes","1","5","null","stimuli/sounds/bleep.wav","null","","","","","","",""
"","","","","","html-keyboard-response","420","2.0.0","331124","pa8f83anjwk","mus","elk","21","female","no","yes","1","5","69","<div style=""font-size:30px;"">Press space to start the trial</div>"," ","","","","","","",""
"","","","","","html-keyboard-response","421","2.0.0","331380","pa8f83anjwk","mus","elk","21","female","no","yes","1","5","null","<div style=""font-size:60px;"">+</div>","null","","","","","","",""
"","","","","","audio-keyboard-response","422","2.0.0","331973","pa8f83anjwk","mus","elk","21","female","no","yes","1","5","null","stimuli/sounds/phone_sound_B.wav","null","","","","","","",""
"","","","","","html-keyboard-response","423","2.0.0","332983","pa8f83anjwk","mus","elk","21","female","no","yes","1","5","null","","null","","","","","","",""
"","","","","","image-keyboard-response","424","2.0.0","333526","pa8f83anjwk","mus","elk","21","female","no","yes","1","5","543","stimuli/pictures/piano_electric_2.jpg","0","0","","true","no","sound","stimuli/sounds/phone_sound_B.wav",""
"","","","","","audio-keyboard-response","425","2.0.0","334543","pa8f83anjwk","mus","elk","21","female","no","yes","1","5","null","stimuli/sounds/bleep.wav","null","","","","","","",""
"","","","","","html-keyboard-response","426","2.0.0","334673","pa8f83anjwk","mus","elk","21","female","no","yes","1","5","21","<div style=""font-size:30px;"">Press space to start the trial</div>"," ","","","","","","",""
"","","","","","html-keyboard-response","427","2.0.0","334932","pa8f83anjwk","mus","elk","21","female","no","yes","1","5","null","<div style=""font-size:60px;"">+</div>","null","","","","","","",""
"","","","","","audio-keyboard-response","428","2.0.0","335562","pa8f83anjwk","mus","elk","21","female","no","yes","1","5","null","stimuli/sounds/piano_label_A.wav","null","","","","","","",""
"","","","","","html-keyboard-response","429","2.0.0","336565","pa8f83anjwk","mus","elk","21","female","no","yes","1","5","null","","null","","","","","","",""
"","","","","","image-keyboard-response","430","2.0.0","337060","pa8f83anjwk","mus","elk","21","female","no","yes","1","5","494","stimuli/pictures/piano_grand_1.jpg","1","1","","true","yes","sound","stimuli/sounds/piano_label_A.wav",""
"","","","","","audio-keyboard-response","431","2.0.0","338073","pa8f83anjwk","mus","elk","21","female","no","yes","1","5","null","stimuli/sounds/bleep.wav","null","","","","","","",""
"","","","","","html-keyboard-response","432","2.0.0","338514","pa8f83anjwk","mus","elk","21","female","no","yes","1","5","334","<div style=""font-size:30px;"">Press space to start the trial</div>"," ","","","","","","",""
"","","","","","html-keyboard-response","433","2.0.0","338773","pa8f83anjwk","mus","elk","21","female","no","yes","1","5","null","<div style=""font-size:60px;"">+</div>","null","","","","","","",""
"","","","","","audio-keyboard-response","434","2.0.0","339374","pa8f83anjwk","mus","elk","21","female","no","yes","1","5","null","stimuli/sounds/bird_sound_B.wav","null","","","","","","",""
"","","","","","html-keyboard-response","435","2.0.0","340390","pa8f83anjwk","mus","elk","21","female","no","yes","1","5","null","","null","","","","","","",""
"","","","","","image-keyboard-response","436","2.0.0","340868","pa8f83anjwk","mus","elk","21","female","no","yes","1","5","477","stimuli/pictures/drum_kit_1.jpg","0","0","","true","no","sound","stimuli/sounds/bird_sound_B.wav",""
"","","","","","audio-keyboard-response","437","2.0.0","341873","pa8f83anjwk","mus","elk","21","female","no","yes","1","5","null","stimuli/sounds/bleep.wav","null","","","","","","",""
"","","","","","html-keyboard-response","438","2.0.0","342270","pa8f83anjwk","mus","elk","21","female","no","yes","1","5","289","<div style=""font-size:30px;"">Press space to start the trial</div>"," ","","","","","","",""
"","","","","","html-keyboard-response","439","2.0.0","342527","pa8f83anjwk","mus","elk","21","female","no","yes","1","5","null","<div style=""font-size:60px;"">+</div>","null","","","","","","",""
"","","","","","audio-keyboard-response","440","2.0.0","343134","pa8f83anjwk","mus","elk","21","female","no","yes","1","5","null","stimuli/sounds/flute_label_B.wav","null","","","","","","",""
"","","","","","html-keyboard-response","441","2.0.0","344147","pa8f83anjwk","mus","elk","21","female","no","yes","1","5","null","","null","","","","","","",""
"","","","","","image-keyboard-response","442","2.0.0","344579","pa8f83anjwk","mus","elk","21","female","no","yes","1","5","431","stimuli/pictures/drum_kit_2.jpg","0","0","","true","no","sound","stimuli/sounds/flute_label_B.wav",""
"","","","","","audio-keyboard-response","443","2.0.0","345584","pa8f83anjwk","mus","elk","21","female","no","yes","1","5","null","stimuli/sounds/bleep.wav","null","","","","","","",""
"","","","","","html-keyboard-response","444","2.0.0","346026","pa8f83anjwk","mus","elk","21","female","no","yes","1","5","334","<div style=""font-size:30px;"">Press space to start the trial</div>"," ","","","","","","",""
"","","","","","html-keyboard-response","445","2.0.0","346283","pa8f83anjwk","mus","elk","21","female","no","yes","1","5","null","<div style=""font-size:60px;"">+</div>","null","","","","","","",""
"","","","","","audio-keyboard-response","446","2.0.0","346883","pa8f83anjwk","mus","elk","21","female","no","yes","1","5","null","stimuli/sounds/drum_label_A.wav","null","","","","","","",""
"","","","","","html-keyboard-response","447","2.0.0","347890","pa8f83anjwk","mus","elk","21","female","no","yes","1","5","null","","null","","","","","","",""
"","","","","","image-keyboard-response","448","2.0.0","348452","pa8f83anjwk","mus","elk","21","female","no","yes","1","5","561","stimuli/pictures/drum_bongo_2.jpg","1","1","","true","yes","sound","stimuli/sounds/drum_label_A.wav",""
"","","","","","audio-keyboard-response","449","2.0.0","349467","pa8f83anjwk","mus","elk","21","female","no","yes","1","5","null","stimuli/sounds/bleep.wav","null","","","","","","",""
"","","","","","html-keyboard-response","450","2.0.0","349964","pa8f83anjwk","mus","elk","21","female","no","yes","1","5","388","<div style=""font-size:30px;"">Press space to start the trial</div>"," ","","","","","","",""
"","","","","","html-keyboard-response","451","2.0.0","350228","pa8f83anjwk","mus","elk","21","female","no","yes","1","5","null","<div style=""font-size:60px;"">+</div>","null","","","","","","",""
"","","","","","audio-keyboard-response","452","2.0.0","350833","pa8f83anjwk","mus","elk","21","female","no","yes","1","5","null","stimuli/sounds/piano_sound_A.wav","null","","","","","","",""
"","","","","","html-keyboard-response","453","2.0.0","351847","pa8f83anjwk","mus","elk","21","female","no","yes","1","5","null","","null","","","","","","",""
"","","","","","image-keyboard-response","454","2.0.0","352436","pa8f83anjwk","mus","elk","21","female","no","yes","1","5","588","stimuli/pictures/drum_kit_1.jpg","0","0","","true","no","sound","stimuli/sounds/piano_sound_A.wav",""
"","","","","","audio-keyboard-response","455","2.0.0","353454","pa8f83anjwk","mus","elk","21","female","no","yes","1","5","null","stimuli/sounds/bleep.wav","null","","","","","","",""
"","","","","","html-keyboard-response","456","2.0.0","353925","pa8f83anjwk","mus","elk","21","female","no","yes","1","5","362","<div style=""font-size:30px;"">Press space to start the trial</div>"," ","","","","","","",""
"","","","","","html-keyboard-response","457","2.0.0","354186","pa8f83anjwk","mus","elk","21","female","no","yes","1","5","null","<div style=""font-size:60px;"">+</div>","null","","","","","","",""
"","","","","","audio-keyboard-response","458","2.0.0","354813","pa8f83anjwk","mus","elk","21","female","no","yes","1","5","null","stimuli/sounds/piano_label_A.wav","null","","","","","","",""
"","","","","","html-keyboard-response","459","2.0.0","355821","pa8f83anjwk","mus","elk","21","female","no","yes","1","5","null","","null","","","","","","",""
"","","","","","image-keyboard-response","460","2.0.0","356265","pa8f83anjwk","mus","elk","21","female","no","yes","1","5","442","stimuli/pictures/phone_cell_2.jpg","0","0","","true","no","sound","stimuli/sounds/piano_label_A.wav",""
"","","","","","audio-keyboard-response","461","2.0.0","357269","pa8f83anjwk","mus","elk","21","female","no","yes","1","5","null","stimuli/sounds/bleep.wav","null","","","","","","",""
"","","","","","html-keyboard-response","462","2.0.0","357872","pa8f83anjwk","mus","elk","21","female","no","yes","1","5","493","<div style=""font-size:30px;"">Press space to start the trial</div>"," ","","","","","","",""
"","","","","","html-keyboard-response","463","2.0.0","358127","pa8f83anjwk","mus","elk","21","female","no","yes","1","5","null","<div style=""font-size:60px;"">+</div>","null","","","","","","",""
"","","","","","audio-keyboard-response","464","2.0.0","358753","pa8f83anjwk","mus","elk","21","female","no","yes","1","5","null","stimuli/sounds/piano_label_A.wav","null","","","","","","",""
"","","","","","html-keyboard-response","465","2.0.0","359765","pa8f83anjwk","mus","elk","21","female","no","yes","1","5","null","","null","","","","","","",""
"","","","","","image-keyboard-response","466","2.0.0","360270","pa8f83anjwk","mus","elk","21","female","no","yes","1","5","504","stimuli/pictures/phone_rotary_1.jpg","0","0","","true","no","sound","stimuli/sounds/piano_label_A.wav",""
"","","","","","audio-keyboard-response","467","2.0.0","361283","pa8f83anjwk","mus","elk","21","female","no","yes","1","5","null","stimuli/sounds/bleep.wav","null","","","","","","",""
"","","","","","html-keyboard-response","468","2.0.0","361878","pa8f83anjwk","mus","elk","21","female","no","yes","1","5","486","<div style=""font-size:30px;"">Press space to start the trial</div>"," ","","","","","","",""
"","","","","","html-keyboard-response","469","2.0.0","362143","pa8f83anjwk","mus","elk","21","female","no","yes","1","5","null","<div style=""font-size:60px;"">+</div>","null","","","","","","",""
"","","","","","audio-keyboard-response","470","2.0.0","362742","pa8f83anjwk","mus","elk","21","female","no","yes","1","5","null","stimuli/sounds/bird_label_A.wav","null","","","","","","",""
"","","","","","html-keyboard-response","471","2.0.0","363748","pa8f83anjwk","mus","elk","21","female","no","yes","1","5","null","","null","","","","","","",""
"","","","","","image-keyboard-response","472","2.0.0","364142","pa8f83anjwk","mus","elk","21","female","no","yes","1","5","392","stimuli/pictures/flute_wooden_2.jpg","0","0","","true","no","sound","stimuli/sounds/bird_label_A.wav",""
"","","","","","audio-keyboard-response","473","2.0.0","365147","pa8f83anjwk","mus","elk","21","female","no","yes","1","5","null","stimuli/sounds/bleep.wav","null","","","","","","",""
"","","","","","html-keyboard-response","474","2.0.0","365786","pa8f83anjwk","mus","elk","21","female","no","yes","1","5","529","<div style=""font-size:30px;"">Press space to start the trial</div>"," ","","","","","","",""
"","","","","","html-keyboard-response","475","2.0.0","366051","pa8f83anjwk","mus","elk","21","female","no","yes","1","5","null","<div style=""font-size:60px;"">+</div>","null","","","","","","",""
"","","","","","audio-keyboard-response","476","2.0.0","366643","pa8f83anjwk","mus","elk","21","female","no","yes","1","5","null","stimuli/sounds/phone_label_B.wav","null","","","","","","",""
"","","","","","html-keyboard-response","477","2.0.0","367654","pa8f83anjwk","mus","elk","21","female","no","yes","1","5","null","","null","","","","","","",""
"","","","","","image-keyboard-response","478","2.0.0","368018","pa8f83anjwk","mus","elk","21","female","no","yes","1","5","362","stimuli/pictures/phone_rotary_1.jpg","1","1","","true","yes","sound","stimuli/sounds/phone_label_B.wav",""
"","","","","","audio-keyboard-response","479","2.0.0","369021","pa8f83anjwk","mus","elk","21","female","no","yes","1","5","null","stimuli/sounds/bleep.wav","null","","","","","","",""
"","","","","","html-keyboard-response","480","2.0.0","369499","pa8f83anjwk","mus","elk","21","female","no","yes","1","5","371","<div style=""font-size:30px;"">Press space to start the trial</div>"," ","","","","","","",""
"","","","","","html-keyboard-response","481","2.0.0","369752","pa8f83anjwk","mus","elk","21","female","no","yes","1","5","null","<div style=""font-size:60px;"">+</div>","null","","","","","","",""
"","","","","","audio-keyboard-response","482","2.0.0","370353","pa8f83anjwk","mus","elk","21","female","no","yes","1","5","null","stimuli/sounds/bird_sound_B.wav","null","","","","","","",""
"","","","","","html-keyboard-response","483","2.0.0","371360","pa8f83anjwk","mus","elk","21","female","no","yes","1","5","null","","null","","","","","","",""
"","","","","","image-keyboard-response","484","2.0.0","371860","pa8f83anjwk","mus","elk","21","female","no","yes","1","5","500","stimuli/pictures/drum_bongo_1.jpg","0","0","","true","no","sound","stimuli/sounds/bird_sound_B.wav",""
"","","","","","audio-keyboard-response","485","2.0.0","372864","pa8f83anjwk","mus","elk","21","female","no","yes","1","5","null","stimuli/sounds/bleep.wav","null","","","","","","",""
"","","","","","html-keyboard-response","486","2.0.0","373379","pa8f83anjwk","mus","elk","21","female","no","yes","1","5","412","<div style=""font-size:30px;"">Press space to start the trial</div>"," ","","","","","","",""
"","","","","","html-keyboard-response","487","2.0.0","373637","pa8f83anjwk","mus","elk","21","female","no","yes","1","5","null","<div style=""font-size:60px;"">+</div>","null","","","","","","",""
"","","","","","audio-keyboard-response","488","2.0.0","374232","pa8f83anjwk","mus","elk","21","female","no","yes","1","5","null","stimuli/sounds/drum_label_A.wav","null","","","","","","",""
"","","","","","html-keyboard-response","489","2.0.0","375236","pa8f83anjwk","mus","elk","21","female","no","yes","1","5","null","","null","","","","","","",""
"","","","","","image-keyboard-response","490","2.0.0","375650","pa8f83anjwk","mus","elk","21","female","no","yes","1","5","414","stimuli/pictures/bird_hawk_1.jpg","0","0","","true","no","sound","stimuli/sounds/drum_label_A.wav",""
"","","","","","audio-keyboard-response","491","2.0.0","376656","pa8f83anjwk","mus","elk","21","female","no","yes","1","5","null","stimuli/sounds/bleep.wav","null","","","","","","",""
"","","","","","html-keyboard-response","492","2.0.0","377145","pa8f83anjwk","mus","elk","21","female","no","yes","1","5","386","<div style=""font-size:30px;"">Press space to start the trial</div>"," ","","","","","","",""
"","","","","","html-keyboard-response","493","2.0.0","377399","pa8f83anjwk","mus","elk","21","female","no","yes","1","5","null","<div style=""font-size:60px;"">+</div>","null","","","","","","",""
"","","","","","audio-keyboard-response","494","2.0.0","378002","pa8f83anjwk","mus","elk","21","female","no","yes","1","5","null","stimuli/sounds/flute_sound_B.wav","null","","","","","","",""
"","","","","","html-keyboard-response","495","2.0.0","379018","pa8f83anjwk","mus","elk","21","female","no","yes","1","5","null","","null","","","","","","",""
