"success","timeout","failed_images","failed_audio","failed_video","trial_type","trial_index","plugin_version","time_elapsed","random_id","condition","participant","age","gender_id","mus_exp","inst_exp","years_exp","mus_listening","rt","stimulus","response","correct_response","practice","correct","congruent","sound_type","audio","question_order"
"true","false","[]","[]","[]","preload","0","2.0.0","456","pcrnr1osu7h","mus","giraffe","30","Male","yes","yes","2","2","","","","","","","","","",""
"","","","","","html-keyboard-response","1","2.0.0","4204","pcrnr1osu7h","mus","giraffe","30","Male","yes","yes","2","2","3747","Welcome to the experiment! Press any key to begin.","ArrowRight","","","","","","",""
"true","","","","","fullscreen","2","null","9507","pcrnr1osu7h","mus","giraffe","30","Male","yes","yes","2","2","4293","","","","","","","","",""
"","","","","","survey-text","3","2.0.0","31667","pcrnr1osu7h","mus","giraffe","30","Male","yes","yes","2","2","22156","","{""participant_id"":""giraffe""}","","","","","","",""
"","","","","","html-keyboard-response","4","2.0.0","53259","pcrnr1osu7h","mus","giraffe","30","Male","yes","yes","2","2","21591","
    <p> Please use headphones for the duration of the study.</p>
    <p> Within each trial, you will hear a sound and then be presented with an image in the center of your screen.</p>
    <p>Press the <b>'1'</b> key if what you hear <u>matches</u> what you see.</p>
    <p>Press the <b>'0'</b> key if what you hear <u>does not match</u> what you see.</p>
    <p>Try to respond as quickly and accurately as you can.</p>
    <p> Press any key to begin.</p>
    ","AudioVolumeUp","","","","","","",""
"","","","","","html-keyboard-response","5","2.0.0","54665","pcrnr1osu7h","mus","giraffe","30","Male","yes","yes","2","2","1405","
    <div style=""font-size:28px;"">
      <p>You will now complete 4 short practice trials.</p>
      <p>This is just to help you get familiar with the task.</p>
      <p>Press any key to begin.</p>
    </div>
  ","AudioVolumeDown","","","","","","",""
"","","","","","html-keyboard-response","6","2.0.0","55175","pcrnr1osu7h","mus","giraffe","30","Male","yes","yes","2","2","null","<div style=""font-size:60px;"">+</div>","null","","","","","","",""
"","","","","","audio-keyboard-response","7","2.0.0","57475","pcrnr1osu7h","mus","giraffe","30","Male","yes","yes","2","2","null","stimuli/sounds/guitar_label_A.wav","null","","","","","","",""
"","","","","","image-keyboard-response","8","2.0.0","59124","pcrnr1osu7h","mus","giraffe","30","Male","yes","yes","2","2","1645","stimuli/pictures/guitar_acoustic_1.jpg","1","1","true","true","","","",""
"","","","","","audio-keyboard-response","9","2.0.0","59928","pcrnr1osu7h","mus","giraffe","30","Male","yes","yes","2","2","null","stimuli/sounds/bleep.wav","null","","","","","","",""
"","","","","","html-keyboard-response","10","2.0.0","60637","pcrnr1osu7h","mus","giraffe","30","Male","yes","yes","2","2","null","<p style='color:green; font-size:30px;'>Correct!</p>","null","","","","","","",""
"","","","","","html-keyboard-response","11","2.0.0","61144","pcrnr1osu7h","mus","giraffe","30","Male","yes","yes","2","2","null","<div style=""font-size:60px;"">+</div>","null","","","","","","",""
"","","","","","audio-keyboard-response","12","2.0.0","61745","pcrnr1osu7h","mus","giraffe","30","Male","yes","yes","2","2","null","stimuli/sounds/guitar_sound_B.wav","null","","","","","","",""
"","","","","","image-keyboard-response","13","2.0.0","62550","pcrnr1osu7h","mus","giraffe","30","Male","yes","yes","2","2","804","stimuli/pictures/guitar_acoustic_2.jpg","1","1","true","true","","","",""
"","","","","","audio-keyboard-response","14","2.0.0","63352","pcrnr1osu7h","mus","giraffe","30","Male","yes","yes","2","2","null","stimuli/sounds/bleep.wav","null","","","","","","",""
"","","","","","html-keyboard-response","15","2.0.0","64067","pcrnr1osu7h","mus","giraffe","30","Male","yes","yes","2","2","null","<p style='color:green; font-size:30px;'>Correct!</p>","null","","","","","","",""
"","","","","","html-keyboard-response","16","2.0.0","64582","pcrnr1osu7h","mus","giraffe","30","Male","yes","yes","2","2","null","<div style=""font-size:60px;"">+</div>","null","","","","","","",""
"","","","","","audio-keyboard-response","17","2.0.0","65192","pcrnr1osu7h","mus","giraffe","30","Male","yes","yes","2","2","null","stimuli/sounds/flute_sound_A.wav","null","","","","","","",""
"","","","","","image-keyboard-response","18","2.0.0","66306","pcrnr1osu7h","mus","giraffe","30","Male","yes","yes","2","2","1113","stimuli/pictures/guitar_electric_1.jpg","0","0","true","true","","","",""
"","","","","","audio-keyboard-response","19","2.0.0","67108","pcrnr1osu7h","mus","giraffe","30","Male","yes","yes","2","2","null","stimuli/sounds/bleep.wav","null","","","","","","",""
"","","","","","html-keyboard-response","20","2.0.0","67825","pcrnr1osu7h","mus","giraffe","30","Male","yes","yes","2","2","null","<p style='color:green; font-size:30px;'>Correct!</p>","null","","","","","","",""
"","","","","","html-keyboard-response","21","2.0.0","68331","pcrnr1osu7h","mus","giraffe","30","Male","yes","yes","2","2","null","<div style=""font-size:60px;"">+</div>","null","","","","","","",""
"","","","","","audio-keyboard-response","22","2.0.0","68937","pcrnr1osu7h","mus","giraffe","30","Male","yes","yes","2","2","null","stimuli/sounds/guitar_sound_A.wav","null","","","","","","",""
"","","","","","image-keyboard-response","23","2.0.0","69729","pcrnr1osu7h","mus","giraffe","30","Male","yes","yes","2","2","791","stimuli/pictures/guitar_acoustic_1.jpg","1","1","true","true","","","",""
"","","","","","audio-keyboard-response","24","2.0.0","70543","pcrnr1osu7h","mus","giraffe","30","Male","yes","yes","2","2","null","stimuli/sounds/bleep.wav","null","","","","","","",""
"","","","","","html-keyboard-response","25","2.0.0","71251","pcrnr1osu7h","mus","giraffe","30","Male","yes","yes","2","2","null","<p style='color:green; font-size:30px;'>Correct!</p>","null","","","","","","",""
"","","","","","html-keyboard-response","26","2.0.0","75748","pcrnr1osu7h","mus","giraffe","30","Male","yes","yes","2","2","4496","<p>Practice complete. Press any key to begin the real experiment.</p>","1","","","","","","",""
"","","","","","html-keyboard-response","27","2.0.0","81154","pcrnr1osu7h","mus","giraffe","30","Male","yes","yes","2","2","5405","<div style=""font-size:30px;"">Press space to start the trial</div>"," ","","","","","","",""
"","","","","","html-keyboard-response","28","2.0.0","81415","pcrnr1osu7h","mus","giraffe","30","Male","yes","yes","2","2","null","<div style=""font-size:60px;"">+</div>","null","","","","","","",""
"","","","","","audio-keyboard-response","29","2.0.0","82016","pcrnr1osu7h","mus","giraffe","30","Male","yes","yes","2","2","null","stimuli/sounds/drum_label_A.wav","null","","","","","","",""
"","","","","","html-keyboard-response","30","2.0.0","83026","pcrnr1osu7h","mus","giraffe","30","Male","yes","yes","2","2","null","","null","","","","","","",""
"","","","","","image-keyboard-response","31","2.0.0","83737","pcrnr1osu7h","mus","giraffe","30","Male","yes","yes","2","2","709","stimuli/pictures/bird_song_2.jpg","0","0","","true","no","sound","stimuli/sounds/drum_label_A.wav",""
"","","","","","audio-keyboard-response","32","2.0.0","84745","pcrnr1osu7h","mus","giraffe","30","Male","yes","yes","2","2","null","stimuli/sounds/bleep.wav","null","","","","","","",""
"","","","","","html-keyboard-response","33","2.0.0","89163","pcrnr1osu7h","mus","giraffe","30","Male","yes","yes","2","2","4301","<div style=""font-size:30px;"">Press space to start the trial</div>"," ","","","","","","",""
"","","","","","html-keyboard-response","34","2.0.0","89431","pcrnr1osu7h","mus","giraffe","30","Male","yes","yes","2","2","null","<div style=""font-size:60px;"">+</div>","null","","","","","","",""
"","","","","","audio-keyboard-response","35","2.0.0","90038","pcrnr1osu7h","mus","giraffe","30","Male","yes","yes","2","2","null","stimuli/sounds/flute_sound_A.wav","null","","","","","","",""
"","","","","","html-keyboard-response","36","2.0.0","91043","pcrnr1osu7h","mus","giraffe","30","Male","yes","yes","2","2","null","","null","","","","","","",""
"","","","","","image-keyboard-response","37","2.0.0","91723","pcrnr1osu7h","mus","giraffe","30","Male","yes","yes","2","2","678","stimuli/pictures/phone_rotary_1.jpg","0","0","","true","no","sound","stimuli/sounds/flute_sound_A.wav",""
"","","","","","audio-keyboard-response","38","2.0.0","92737","pcrnr1osu7h","mus","giraffe","30","Male","yes","yes","2","2","null","stimuli/sounds/bleep.wav","null","","","","","","",""
"","","","","","html-keyboard-response","39","2.0.0","94177","pcrnr1osu7h","mus","giraffe","30","Male","yes","yes","2","2","1323","<div style=""font-size:30px;"">Press space to start the trial</div>"," ","","","","","","",""
"","","","","","html-keyboard-response","40","2.0.0","94439","pcrnr1osu7h","mus","giraffe","30","Male","yes","yes","2","2","null","<div style=""font-size:60px;"">+</div>","null","","","","","","",""
"","","","","","audio-keyboard-response","41","2.0.0","95045","pcrnr1osu7h","mus","giraffe","30","Male","yes","yes","2","2","null","stimuli/sounds/flute_label_A.wav","null","","","","","","",""
"","","","","","html-keyboard-response","42","2.0.0","96055","pcrnr1osu7h","mus","giraffe","30","Male","yes","yes","2","2","null","","null","","","","","","",""
"","","","","","image-keyboard-response","43","2.0.0","96626","pcrnr1osu7h","mus","giraffe","30","Male","yes","yes","2","2","570","stimuli/pictures/flute_metal_1.jpg","1","1","","true","yes","sound","stimuli/sounds/flute_label_A.wav",""
"","","","","","audio-keyboard-response","44","2.0.0","97636","pcrnr1osu7h","mus","giraffe","30","Male","yes","yes","2","2","null","stimuli/sounds/bleep.wav","null","","","","","","",""
"","","","","","html-keyboard-response","45","2.0.0","99610","pcrnr1osu7h","mus","giraffe","30","Male","yes","yes","2","2","1861","<div style=""font-size:30px;"">Press space to start the trial</div>"," ","","","","","","",""
"","","","","","html-keyboard-response","46","2.0.0","99874","pcrnr1osu7h","mus","giraffe","30","Male","yes","yes","2","2","null","<div style=""font-size:60px;"">+</div>","null","","","","","","",""
"","","","","","audio-keyboard-response","47","2.0.0","100475","pcrnr1osu7h","mus","giraffe","30","Male","yes","yes","2","2","null","stimuli/sounds/bird_label_A.wav","null","","","","","","",""
"","","","","","html-keyboard-response","48","2.0.0","101491","pcrnr1osu7h","mus","giraffe","30","Male","yes","yes","2","2","null","","null","","","","","","",""
"","","","","","image-keyboard-response","49","2.0.0","102034","pcrnr1osu7h","mus","giraffe","30","Male","yes","yes","2","2","541","stimuli/pictures/flute_metal_1.jpg","0","0","","true","no","sound","stimuli/sounds/bird_label_A.wav",""
"","","","","","audio-keyboard-response","50","2.0.0","103052","pcrnr1osu7h","mus","giraffe","30","Male","yes","yes","2","2","null","stimuli/sounds/bleep.wav","null","","","","","","",""
"","","","","","html-keyboard-response","51","2.0.0","104167","pcrnr1osu7h","mus","giraffe","30","Male","yes","yes","2","2","1004","<div style=""font-size:30px;"">Press space to start the trial</div>"," ","","","","","","",""
"","","","","","html-keyboard-response","52","2.0.0","104429","pcrnr1osu7h","mus","giraffe","30","Male","yes","yes","2","2","null","<div style=""font-size:60px;"">+</div>","null","","","","","","",""
"","","","","","audio-keyboard-response","53","2.0.0","105035","pcrnr1osu7h","mus","giraffe","30","Male","yes","yes","2","2","null","stimuli/sounds/flute_label_A.wav","null","","","","","","",""
"","","","","","html-keyboard-response","54","2.0.0","106040","pcrnr1osu7h","mus","giraffe","30","Male","yes","yes","2","2","null","","null","","","","","","",""
"","","","","","image-keyboard-response","55","2.0.0","106558","pcrnr1osu7h","mus","giraffe","30","Male","yes","yes","2","2","516","stimuli/pictures/piano_grand_1.jpg","0","0","","true","no","sound","stimuli/sounds/flute_label_A.wav",""
"","","","","","audio-keyboard-response","56","2.0.0","107567","pcrnr1osu7h","mus","giraffe","30","Male","yes","yes","2","2","null","stimuli/sounds/bleep.wav","null","","","","","","",""
"","","","","","html-keyboard-response","57","2.0.0","108334","pcrnr1osu7h","mus","giraffe","30","Male","yes","yes","2","2","655","<div style=""font-size:30px;"">Press space to start the trial</div>"," ","","","","","","",""
"","","","","","html-keyboard-response","58","2.0.0","108599","pcrnr1osu7h","mus","giraffe","30","Male","yes","yes","2","2","null","<div style=""font-size:60px;"">+</div>","null","","","","","","",""
"","","","","","audio-keyboard-response","59","2.0.0","109226","pcrnr1osu7h","mus","giraffe","30","Male","yes","yes","2","2","null","stimuli/sounds/piano_label_A.wav","null","","","","","","",""
"","","","","","html-keyboard-response","60","2.0.0","110243","pcrnr1osu7h","mus","giraffe","30","Male","yes","yes","2","2","null","","null","","","","","","",""
"","","","","","image-keyboard-response","61","2.0.0","110988","pcrnr1osu7h","mus","giraffe","30","Male","yes","yes","2","2","744","stimuli/pictures/phone_cell_2.jpg","0","0","","true","no","sound","stimuli/sounds/piano_label_A.wav",""
"","","","","","audio-keyboard-response","62","2.0.0","112004","pcrnr1osu7h","mus","giraffe","30","Male","yes","yes","2","2","null","stimuli/sounds/bleep.wav","null","","","","","","",""
"","","","","","html-keyboard-response","63","2.0.0","113495","pcrnr1osu7h","mus","giraffe","30","Male","yes","yes","2","2","1376","<div style=""font-size:30px;"">Press space to start the trial</div>"," ","","","","","","",""
"","","","","","html-keyboard-response","64","2.0.0","113756","pcrnr1osu7h","mus","giraffe","30","Male","yes","yes","2","2","null","<div style=""font-size:60px;"">+</div>","null","","","","","","",""
"","","","","","audio-keyboard-response","65","2.0.0","114368","pcrnr1osu7h","mus","giraffe","30","Male","yes","yes","2","2","null","stimuli/sounds/flute_label_B.wav","null","","","","","","",""
"","","","","","html-keyboard-response","66","2.0.0","115386","pcrnr1osu7h","mus","giraffe","30","Male","yes","yes","2","2","null","","null","","","","","","",""
"","","","","","image-keyboard-response","67","2.0.0","115948","pcrnr1osu7h","mus","giraffe","30","Male","yes","yes","2","2","561","stimuli/pictures/flute_metal_2.jpg","1","1","","true","yes","sound","stimuli/sounds/flute_label_B.wav",""
"","","","","","audio-keyboard-response","68","2.0.0","116955","pcrnr1osu7h","mus","giraffe","30","Male","yes","yes","2","2","null","stimuli/sounds/bleep.wav","null","","","","","","",""
"","","","","","html-keyboard-response","69","2.0.0","117892","pcrnr1osu7h","mus","giraffe","30","Male","yes","yes","2","2","823","<div style=""font-size:30px;"">Press space to start the trial</div>"," ","","","","","","",""
"","","","","","html-keyboard-response","70","2.0.0","118155","pcrnr1osu7h","mus","giraffe","30","Male","yes","yes","2","2","null","<div style=""font-size:60px;"">+</div>","null","","","","","","",""
"","","","","","audio-keyboard-response","71","2.0.0","118757","pcrnr1osu7h","mus","giraffe","30","Male","yes","yes","2","2","null","stimuli/sounds/drum_label_B.wav","null","","","","","","",""
"","","","","","html-keyboard-response","72","2.0.0","119772","pcrnr1osu7h","mus","giraffe","30","Male","yes","yes","2","2","null","","null","","","","","","",""
"","","","","","image-keyboard-response","73","2.0.0","120452","pcrnr1osu7h","mus","giraffe","30","Male","yes","yes","2","2","679","stimuli/pictures/drum_kit_2.jpg","1","1","","true","yes","sound","stimuli/sounds/drum_label_B.wav",""
"","","","","","audio-keyboard-response","74","2.0.0","121462","pcrnr1osu7h","mus","giraffe","30","Male","yes","yes","2","2","null","stimuli/sounds/bleep.wav","null","","","","","","",""
"","","","","","html-keyboard-response","75","2.0.0","122317","pcrnr1osu7h","mus","giraffe","30","Male","yes","yes","2","2","746","<div style=""font-size:30px;"">Press space to start the trial</div>"," ","","","","","","",""
"","","","","","html-keyboard-response","76","2.0.0","122583","pcrnr1osu7h","mus","giraffe","30","Male","yes","yes","2","2","null","<div style=""font-size:60px;"">+</div>","null","","","","","","",""
"","","","","","audio-keyboard-response","77","2.0.0","123195","pcrnr1osu7h","mus","giraffe","30","Male","yes","yes","2","2","null","stimuli/sounds/piano_label_B.wav","null","","","","","","",""
"","","","","","html-keyboard-response","78","2.0.0","124208","pcrnr1osu7h","mus","giraffe","30","Male","yes","yes","2","2","null","","null","","","","","","",""
"","","","","","image-keyboard-response","79","2.0.0","124851","pcrnr1osu7h","mus","giraffe","30","Male","yes","yes","2","2","641","stimuli/pictures/bird_hawk_1.jpg","0","0","","true","no","sound","stimuli/sounds/piano_label_B.wav",""
"","","","","","audio-keyboard-response","80","2.0.0","125868","pcrnr1osu7h","mus","giraffe","30","Male","yes","yes","2","2","null","stimuli/sounds/bleep.wav","null","","","","","","",""
"","","","","","html-keyboard-response","81","2.0.0","127029","pcrnr1osu7h","mus","giraffe","30","Male","yes","yes","2","2","1050","<div style=""font-size:30px;"">Press space to start the trial</div>"," ","","","","","","",""
"","","","","","html-keyboard-response","82","2.0.0","127295","pcrnr1osu7h","mus","giraffe","30","Male","yes","yes","2","2","null","<div style=""font-size:60px;"">+</div>","null","","","","","","",""
"","","","","","audio-keyboard-response","83","2.0.0","127930","pcrnr1osu7h","mus","giraffe","30","Male","yes","yes","2","2","null","stimuli/sounds/piano_label_A.wav","null","","","","","","",""
"","","","","","html-keyboard-response","84","2.0.0","128938","pcrnr1osu7h","mus","giraffe","30","Male","yes","yes","2","2","null","","null","","","","","","",""
"","","","","","image-keyboard-response","85","2.0.0","129629","pcrnr1osu7h","mus","giraffe","30","Male","yes","yes","2","2","690","stimuli/pictures/phone_cell_1.jpg","0","0","","true","no","sound","stimuli/sounds/piano_label_A.wav",""
"","","","","","audio-keyboard-response","86","2.0.0","130634","pcrnr1osu7h","mus","giraffe","30","Male","yes","yes","2","2","null","stimuli/sounds/bleep.wav","null","","","","","","",""
"","","","","","html-keyboard-response","87","2.0.0","131390","pcrnr1osu7h","mus","giraffe","30","Male","yes","yes","2","2","642","<div style=""font-size:30px;"">Press space to start the trial</div>"," ","","","","","","",""
"","","","","","html-keyboard-response","88","2.0.0","131657","pcrnr1osu7h","mus","giraffe","30","Male","yes","yes","2","2","null","<div style=""font-size:60px;"">+</div>","null","","","","","","",""
"","","","","","audio-keyboard-response","89","2.0.0","132257","pcrnr1osu7h","mus","giraffe","30","Male","yes","yes","2","2","null","stimuli/sounds/bird_sound_A.wav","null","","","","","","",""
"","","","","","html-keyboard-response","90","2.0.0","133265","pcrnr1osu7h","mus","giraffe","30","Male","yes","yes","2","2","null","","null","","","","","","",""
"","","","","","image-keyboard-response","91","2.0.0","133889","pcrnr1osu7h","mus","giraffe","30","Male","yes","yes","2","2","623","stimuli/pictures/piano_electric_2.jpg","0","0","","true","no","sound","stimuli/sounds/bird_sound_A.wav",""
"","","","","","audio-keyboard-response","92","2.0.0","134899","pcrnr1osu7h","mus","giraffe","30","Male","yes","yes","2","2","null","stimuli/sounds/bleep.wav","null","","","","","","",""
"","","","","","html-keyboard-response","93","2.0.0","135587","pcrnr1osu7h","mus","giraffe","30","Male","yes","yes","2","2","569","<div style=""font-size:30px;"">Press space to start the trial</div>"," ","","","","","","",""
"","","","","","html-keyboard-response","94","2.0.0","135854","pcrnr1osu7h","mus","giraffe","30","Male","yes","yes","2","2","null","<div style=""font-size:60px;"">+</div>","null","","","","","","",""
"","","","","","audio-keyboard-response","95","2.0.0","136448","pcrnr1osu7h","mus","giraffe","30","Male","yes","yes","2","2","null","stimuli/sounds/bird_sound_A.wav","null","","","","","","",""
"","","","","","html-keyboard-response","96","2.0.0","137452","pcrnr1osu7h","mus","giraffe","30","Male","yes","yes","2","2","null","","null","","","","","","",""
"","","","","","image-keyboard-response","97","2.0.0","137967","pcrnr1osu7h","mus","giraffe","30","Male","yes","yes","2","2","514","stimuli/pictures/piano_grand_1.jpg","0","0","","true","no","sound","stimuli/sounds/bird_sound_A.wav",""
"","","","","","audio-keyboard-response","98","2.0.0","138980","pcrnr1osu7h","mus","giraffe","30","Male","yes","yes","2","2","null","stimuli/sounds/bleep.wav","null","","","","","","",""
"","","","","","html-keyboard-response","99","2.0.0","139626","pcrnr1osu7h","mus","giraffe","30","Male","yes","yes","2","2","529","<div style=""font-size:30px;"">Press space to start the trial</div>"," ","","","","","","",""
"","","","","","html-keyboard-response","100","2.0.0","139883","pcrnr1osu7h","mus","giraffe","30","Male","yes","yes","2","2","null","<div style=""font-size:60px;"">+</div>","null","","","","","","",""
"","","","","","audio-keyboard-response","101","2.0.0","140479","pcrnr1osu7h","mus","giraffe","30","Male","yes","yes","2","2","null","stimuli/sounds/phone_label_B.wav","null","","","","","","",""
"","","","","","html-keyboard-response","102","2.0.0","141484","pcrnr1osu7h","mus","giraffe","30","Male","yes","yes","2","2","null","","null","","","","","","",""
"","","","","","image-keyboard-response","103","2.0.0","142187","pcrnr1osu7h","mus","giraffe","30","Male","yes","yes","2","2","701","stimuli/pictures/flute_wooden_1.jpg","0","0","","true","no","sound","stimuli/sounds/phone_label_B.wav",""
"","","","","","audio-keyboard-response","104","2.0.0","143188","pcrnr1osu7h","mus","giraffe","30","Male","yes","yes","2","2","null","stimuli/sounds/bleep.wav","null","","","","","","",""
"","","","","","html-keyboard-response","105","2.0.0","143748","pcrnr1osu7h","mus","giraffe","30","Male","yes","yes","2","2","443","<div style=""font-size:30px;"">Press space to start the trial</div>"," ","","","","","","",""
"","","","","","html-keyboard-response","106","2.0.0","144006","pcrnr1osu7h","mus","giraffe","30","Male","yes","yes","2","2","null","<div style=""font-size:60px;"">+</div>","null","","","","","","",""
"","","","","","audio-keyboard-response","107","2.0.0","144611","pcrnr1osu7h","mus","giraffe","30","Male","yes","yes","2","2","null","stimuli/sounds/piano_sound_A.wav","null","","","","","","",""
"","","","","","html-keyboard-response","108","2.0.0","145615","pcrnr1osu7h","mus","giraffe","30","Male","yes","yes","2","2","null","","null","","","","","","",""
"","","","","","image-keyboard-response","109","2.0.0","146148","pcrnr1osu7h","mus","giraffe","30","Male","yes","yes","2","2","532","stimuli/pictures/drum_bongo_2.jpg","0","0","","true","no","sound","stimuli/sounds/piano_sound_A.wav",""
"","","","","","audio-keyboard-response","110","2.0.0","147164","pcrnr1osu7h","mus","giraffe","30","Male","yes","yes","2","2","null","stimuli/sounds/bleep.wav","null","","","","","","",""
"","","","","","html-keyboard-response","111","2.0.0","147672","pcrnr1osu7h","mus","giraffe","30","Male","yes","yes","2","2","392","<div style=""font-size:30px;"">Press space to start the trial</div>"," ","","","","","","",""
"","","","","","html-keyboard-response","112","2.0.0","147938","pcrnr1osu7h","mus","giraffe","30","Male","yes","yes","2","2","null","<div style=""font-size:60px;"">+</div>","null","","","","","","",""
"","","","","","audio-keyboard-response","113","2.0.0","148539","pcrnr1osu7h","mus","giraffe","30","Male","yes","yes","2","2","null","stimuli/sounds/piano_label_B.wav","null","","","","","","",""
"","","","","","html-keyboard-response","114","2.0.0","149553","pcrnr1osu7h","mus","giraffe","30","Male","yes","yes","2","2","null","","null","","","","","","",""
"","","","","","image-keyboard-response","115","2.0.0","150131","pcrnr1osu7h","mus","giraffe","30","Male","yes","yes","2","2","577","stimuli/pictures/bird_song_1.jpg","0","0","","true","no","sound","stimuli/sounds/piano_label_B.wav",""
"","","","","","audio-keyboard-response","116","2.0.0","151144","pcrnr1osu7h","mus","giraffe","30","Male","yes","yes","2","2","null","stimuli/sounds/bleep.wav","null","","","","","","",""
"","","","","","html-keyboard-response","117","2.0.0","151602","pcrnr1osu7h","mus","giraffe","30","Male","yes","yes","2","2","344","<div style=""font-size:30px;"">Press space to start the trial</div>"," ","","","","","","",""
"","","","","","html-keyboard-response","118","2.0.0","151866","pcrnr1osu7h","mus","giraffe","30","Male","yes","yes","2","2","null","<div style=""font-size:60px;"">+</div>","null","","","","","","",""
"","","","","","audio-keyboard-response","119","2.0.0","152460","pcrnr1osu7h","mus","giraffe","30","Male","yes","yes","2","2","null","stimuli/sounds/phone_label_A.wav","null","","","","","","",""
"","","","","","html-keyboard-response","120","2.0.0","153474","pcrnr1osu7h","mus","giraffe","30","Male","yes","yes","2","2","null","","null","","","","","","",""
"","","","","","image-keyboard-response","121","2.0.0","154014","pcrnr1osu7h","mus","giraffe","30","Male","yes","yes","2","2","539","stimuli/pictures/drum_kit_2.jpg","0","0","","true","no","sound","stimuli/sounds/phone_label_A.wav",""
"","","","","","audio-keyboard-response","122","2.0.0","155024","pcrnr1osu7h","mus","giraffe","30","Male","yes","yes","2","2","null","stimuli/sounds/bleep.wav","null","","","","","","",""
"","","","","","html-keyboard-response","123","2.0.0","155528","pcrnr1osu7h","mus","giraffe","30","Male","yes","yes","2","2","392","<div style=""font-size:30px;"">Press space to start the trial</div>"," ","","","","","","",""
"","","","","","html-keyboard-response","124","2.0.0","155786","pcrnr1osu7h","mus","giraffe","30","Male","yes","yes","2","2","null","<div style=""font-size:60px;"">+</div>","null","","","","","","",""
"","","","","","audio-keyboard-response","125","2.0.0","156377","pcrnr1osu7h","mus","giraffe","30","Male","yes","yes","2","2","null","stimuli/sounds/drum_label_A.wav","null","","","","","","",""
"","","","","","html-keyboard-response","126","2.0.0","157392","pcrnr1osu7h","mus","giraffe","30","Male","yes","yes","2","2","null","","null","","","","","","",""
"","","","","","image-keyboard-response","127","2.0.0","157818","pcrnr1osu7h","mus","giraffe","30","Male","yes","yes","2","2","425","stimuli/pictures/bird_song_1.jpg","0","0","","true","no","sound","stimuli/sounds/drum_label_A.wav",""
"","","","","","audio-keyboard-response","128","2.0.0","158833","pcrnr1osu7h","mus","giraffe","30","Male","yes","yes","2","2","null","stimuli/sounds/bleep.wav","null","","","","","","",""
"","","","","","html-keyboard-response","129","2.0.0","159300","pcrnr1osu7h","mus","giraffe","30","Male","yes","yes","2","2","353","<div style=""font-size:30px;"">Press space to start the trial</div>"," ","","","","","","",""
"","","","","","html-keyboard-response","130","2.0.0","159558","pcrnr1osu7h","mus","giraffe","30","Male","yes","yes","2","2","null","<div style=""font-size:60px;"">+</div>","null","","","","","","",""
"","","","","","audio-keyboard-response","131","2.0.0","160170","pcrnr1osu7h","mus","giraffe","30","Male","yes","yes","2","2","null","stimuli/sounds/flute_sound_B.wav","null","","","","","","",""
"","","","","","html-keyboard-response","132","2.0.0","161180","pcrnr1osu7h","mus","giraffe","30","Male","yes","yes","2","2","null","","null","","","","","","",""
"","","","","","image-keyboard-response","133","2.0.0","162133","pcrnr1osu7h","mus","giraffe","30","Male","yes","yes","2","2","952","stimuli/pictures/flute_wooden_2.jpg","1","1","","true","yes","sound","stimuli/sounds/flute_sound_B.wav",""
"","","","","","audio-keyboard-response","134","2.0.0","163137","pcrnr1osu7h","mus","giraffe","30","Male","yes","yes","2","2","null","stimuli/sounds/bleep.wav","null","","","","","","",""
"","","","","","html-keyboard-response","135","2.0.0","163649","pcrnr1osu7h","mus","giraffe","30","Male","yes","yes","2","2","397","<div style=""font-size:30px;"">Press space to start the trial</div>"," ","","","","","","",""
"","","","","","html-keyboard-response","136","2.0.0","163905","pcrnr1osu7h","mus","giraffe","30","Male","yes","yes","2","2","null","<div style=""font-size:60px;"">+</div>","null","","","","","","",""
"","","","","","audio-keyboard-response","137","2.0.0","164502","pcrnr1osu7h","mus","giraffe","30","Male","yes","yes","2","2","null","stimuli/sounds/phone_label_B.wav","null","","","","","","",""
"","","","","","html-keyboard-response","138","2.0.0","165504","pcrnr1osu7h","mus","giraffe","30","Male","yes","yes","2","2","null","","null","","","","","","",""
"","","","","","image-keyboard-response","139","2.0.0","166158","pcrnr1osu7h","mus","giraffe","30","Male","yes","yes","2","2","653","stimuli/pictures/phone_rotary_2.jpg","1","1","","true","yes","sound","stimuli/sounds/phone_label_B.wav",""
"","","","","","audio-keyboard-response","140","2.0.0","167172","pcrnr1osu7h","mus","giraffe","30","Male","yes","yes","2","2","null","stimuli/sounds/bleep.wav","null","","","","","","",""
"","","","","","html-keyboard-response","141","2.0.0","167818","pcrnr1osu7h","mus","giraffe","30","Male","yes","yes","2","2","531","<div style=""font-size:30px;"">Press space to start the trial</div>"," ","","","","","","",""
"","","","","","html-keyboard-response","142","2.0.0","168079","pcrnr1osu7h","mus","giraffe","30","Male","yes","yes","2","2","null","<div style=""font-size:60px;"">+</div>","null","","","","","","",""
"","","","","","audio-keyboard-response","143","2.0.0","168682","pcrnr1osu7h","mus","giraffe","30","Male","yes","yes","2","2","null","stimuli/sounds/phone_sound_B.wav","null","","","","","","",""
"","","","","","html-keyboard-response","144","2.0.0","169685","pcrnr1osu7h","mus","giraffe","30","Male","yes","yes","2","2","null","","null","","","","","","",""
"","","","","","image-keyboard-response","145","2.0.0","170214","pcrnr1osu7h","mus","giraffe","30","Male","yes","yes","2","2","527","stimuli/pictures/phone_cell_2.jpg","0","1","","false","no","sound","stimuli/sounds/phone_sound_B.wav",""
"","","","","","audio-keyboard-response","146","2.0.0","171218","pcrnr1osu7h","mus","giraffe","30","Male","yes","yes","2","2","null","stimuli/sounds/buzz.wav","null","","","","","","",""
"","","","","","html-keyboard-response","147","2.0.0","173944","pcrnr1osu7h","mus","giraffe","30","Male","yes","yes","2","2","2613","<p>You have completed a block. Press R when you are ready to continue</p>","r","","","","","","",""
"","","","","","html-keyboard-response","148","2.0.0","179103","pcrnr1osu7h","mus","giraffe","30","Male","yes","yes","2","2","5157","<div style=""font-size:30px;"">Press space to start the trial</div>"," ","","","","","","",""
"","","","","","html-keyboard-response","149","2.0.0","179362","pcrnr1osu7h","mus","giraffe","30","Male","yes","yes","2","2","null","<div style=""font-size:60px;"">+</div>","null","","","","","","",""
"","","","","","audio-keyboard-response","150","2.0.0","179972","pcrnr1osu7h","mus","giraffe","30","Male","yes","yes","2","2","null","stimuli/sounds/flute_sound_A.wav","null","","","","","","",""
"","","","","","html-keyboard-response","151","2.0.0","180989","pcrnr1osu7h","mus","giraffe","30","Male","yes","yes","2","2","null","","null","","","","","","",""
"","","","","","image-keyboard-response","152","2.0.0","181866","pcrnr1osu7h","mus","giraffe","30","Male","yes","yes","2","2","876","stimuli/pictures/phone_cell_2.jpg","0","0","","true","no","sound","stimuli/sounds/flute_sound_A.wav",""
"","","","","","audio-keyboard-response","153","2.0.0","182871","pcrnr1osu7h","mus","giraffe","30","Male","yes","yes","2","2","null","stimuli/sounds/bleep.wav","null","","","","","","",""
"","","","","","html-keyboard-response","154","2.0.0","183452","pcrnr1osu7h","mus","giraffe","30","Male","yes","yes","2","2","464","<div style=""font-size:30px;"">Press space to start the trial</div>"," ","","","","","","",""
"","","","","","html-keyboard-response","155","2.0.0","183703","pcrnr1osu7h","mus","giraffe","30","Male","yes","yes","2","2","null","<div style=""font-size:60px;"">+</div>","null","","","","","","",""
"","","","","","audio-keyboard-response","156","2.0.0","184311","pcrnr1osu7h","mus","giraffe","30","Male","yes","yes","2","2","null","stimuli/sounds/flute_sound_B.wav","null","","","","","","",""
"","","","","","html-keyboard-response","157","2.0.0","185312","pcrnr1osu7h","mus","giraffe","30","Male","yes","yes","2","2","null","","null","","","","","","",""
"","","","","","image-keyboard-response","158","2.0.0","186104","pcrnr1osu7h","mus","giraffe","30","Male","yes","yes","2","2","790","stimuli/pictures/flute_metal_1.jpg","1","1","","true","no","sound","stimuli/sounds/flute_sound_B.wav",""
"","","","","","audio-keyboard-response","159","2.0.0","187113","pcrnr1osu7h","mus","giraffe","30","Male","yes","yes","2","2","null","stimuli/sounds/bleep.wav","null","","","","","","",""
"","","","","","html-keyboard-response","160","2.0.0","187802","pcrnr1osu7h","mus","giraffe","30","Male","yes","yes","2","2","578","<div style=""font-size:30px;"">Press space to start the trial</div>"," ","","","","","","",""
"","","","","","html-keyboard-response","161","2.0.0","188062","pcrnr1osu7h","mus","giraffe","30","Male","yes","yes","2","2","null","<div style=""font-size:60px;"">+</div>","null","","","","","","",""
"","","","","","audio-keyboard-response","162","2.0.0","188673","pcrnr1osu7h","mus","giraffe","30","Male","yes","yes","2","2","null","stimuli/sounds/flute_sound_B.wav","null","","","","","","",""
"","","","","","html-keyboard-response","163","2.0.0","189674","pcrnr1osu7h","mus","giraffe","30","Male","yes","yes","2","2","null","","null","","","","","","",""
"","","","","","image-keyboard-response","164","2.0.0","190368","pcrnr1osu7h","mus","giraffe","30","Male","yes","yes","2","2","692","stimuli/pictures/bird_song_1.jpg","0","0","","true","no","sound","stimuli/sounds/flute_sound_B.wav",""
"","","","","","audio-keyboard-response","165","2.0.0","191380","pcrnr1osu7h","mus","giraffe","30","Male","yes","yes","2","2","null","stimuli/sounds/bleep.wav","null","","","","","","",""
"","","","","","html-keyboard-response","166","2.0.0","193250","pcrnr1osu7h","mus","giraffe","30","Male","yes","yes","2","2","1754","<div style=""font-size:30px;"">Press space to start the trial</div>"," ","","","","","","",""
"","","","","","html-keyboard-response","167","2.0.0","193513","pcrnr1osu7h","mus","giraffe","30","Male","yes","yes","2","2","null","<div style=""font-size:60px;"">+</div>","null","","","","","","",""
"","","","","","audio-keyboard-response","168","2.0.0","194111","pcrnr1osu7h","mus","giraffe","30","Male","yes","yes","2","2","null","stimuli/sounds/bird_sound_B.wav","null","","","","","","",""
"","","","","","html-keyboard-response","169","2.0.0","195122","pcrnr1osu7h","mus","giraffe","30","Male","yes","yes","2","2","null","","null","","","","","","",""
"","","","","","image-keyboard-response","170","2.0.0","196039","pcrnr1osu7h","mus","giraffe","30","Male","yes","yes","2","2","916","stimuli/pictures/drum_bongo_1.jpg","0","0","","true","no","sound","stimuli/sounds/bird_sound_B.wav",""
"","","","","","audio-keyboard-response","171","2.0.0","197051","pcrnr1osu7h","mus","giraffe","30","Male","yes","yes","2","2","null","stimuli/sounds/bleep.wav","null","","","","","","",""
"","","","","","html-keyboard-response","172","2.0.0","197894","pcrnr1osu7h","mus","giraffe","30","Male","yes","yes","2","2","728","<div style=""font-size:30px;"">Press space to start the trial</div>"," ","","","","","","",""
"","","","","","html-keyboard-response","173","2.0.0","198158","pcrnr1osu7h","mus","giraffe","30","Male","yes","yes","2","2","null","<div style=""font-size:60px;"">+</div>","null","","","","","","",""
"","","","","","audio-keyboard-response","174","2.0.0","198752","pcrnr1osu7h","mus","giraffe","30","Male","yes","yes","2","2","null","stimuli/sounds/bird_sound_A.wav","null","","","","","","",""
"","","","","","html-keyboard-response","175","2.0.0","199766","pcrnr1osu7h","mus","giraffe","30","Male","yes","yes","2","2","null","","null","","","","","","",""
"","","","","","image-keyboard-response","176","2.0.0","200780","pcrnr1osu7h","mus","giraffe","30","Male","yes","yes","2","2","1013","stimuli/pictures/piano_electric_1.jpg","0","0","","true","no","sound","stimuli/sounds/bird_sound_A.wav",""
"","","","","","audio-keyboard-response","177","2.0.0","201790","pcrnr1osu7h","mus","giraffe","30","Male","yes","yes","2","2","null","stimuli/sounds/bleep.wav","null","","","","","","",""
"","","","","","html-keyboard-response","178","2.0.0","206357","pcrnr1osu7h","mus","giraffe","30","Male","yes","yes","2","2","4464","<div style=""font-size:30px;"">Press space to start the trial</div>"," ","","","","","","",""
"","","","","","html-keyboard-response","179","2.0.0","206624","pcrnr1osu7h","mus","giraffe","30","Male","yes","yes","2","2","null","<div style=""font-size:60px;"">+</div>","null","","","","","","",""
"","","","","","audio-keyboard-response","180","2.0.0","207216","pcrnr1osu7h","mus","giraffe","30","Male","yes","yes","2","2","null","stimuli/sounds/bird_label_B.wav","null","","","","","","",""
"","","","","","html-keyboard-response","181","2.0.0","208218","pcrnr1osu7h","mus","giraffe","30","Male","yes","yes","2","2","null","","null","","","","","","",""
"","","","","","image-keyboard-response","182","2.0.0","208690","pcrnr1osu7h","mus","giraffe","30","Male","yes","yes","2","2","471","stimuli/pictures/bird_song_2.jpg","1","1","","true","yes","sound","stimuli/sounds/bird_label_B.wav",""
"","","","","","audio-keyboard-response","183","2.0.0","209692","pcrnr1osu7h","mus","giraffe","30","Male","yes","yes","2","2","null","stimuli/sounds/bleep.wav","null","","","","","","",""
"","","","","","html-keyboard-response","184","2.0.0","210313","pcrnr1osu7h","mus","giraffe","30","Male","yes","yes","2","2","505","<div style=""font-size:30px;"">Press space to start the trial</div>"," ","","","","","","",""
"","","","","","html-keyboard-response","185","2.0.0","210572","pcrnr1osu7h","mus","giraffe","30","Male","yes","yes","2","2","null","<div style=""font-size:60px;"">+</div>","null","","","","","","",""
"","","","","","audio-keyboard-response","186","2.0.0","211175","pcrnr1osu7h","mus","giraffe","30","Male","yes","yes","2","2","null","stimuli/sounds/phone_sound_A.wav","null","","","","","","",""
"","","","","","html-keyboard-response","187","2.0.0","212176","pcrnr1osu7h","mus","giraffe","30","Male","yes","yes","2","2","null","","null","","","","","","",""
"","","","","","image-keyboard-response","188","2.0.0","212805","pcrnr1osu7h","mus","giraffe","30","Male","yes","yes","2","2","627","stimuli/pictures/bird_song_1.jpg","0","0","","true","no","sound","stimuli/sounds/phone_sound_A.wav",""
"","","","","","audio-keyboard-response","189","2.0.0","213820","pcrnr1osu7h","mus","giraffe","30","Male","yes","yes","2","2","null","stimuli/sounds/bleep.wav","null","","","","","","",""
"","","","","","html-keyboard-response","190","2.0.0","214438","pcrnr1osu7h","mus","giraffe","30","Male","yes","yes","2","2","502","<div style=""font-size:30px;"">Press space to start the trial</div>"," ","","","","","","",""
"","","","","","html-keyboard-response","191","2.0.0","214694","pcrnr1osu7h","mus","giraffe","30","Male","yes","yes","2","2","null","<div style=""font-size:60px;"">+</div>","null","","","","","","",""
"","","","","","audio-keyboard-response","192","2.0.0","215301","pcrnr1osu7h","mus","giraffe","30","Male","yes","yes","2","2","null","stimuli/sounds/piano_sound_A.wav","null","","","","","","",""
"","","","","","html-keyboard-response","193","2.0.0","216317","pcrnr1osu7h","mus","giraffe","30","Male","yes","yes","2","2","null","","null","","","","","","",""
"","","","","","image-keyboard-response","194","2.0.0","216819","pcrnr1osu7h","mus","giraffe","30","Male","yes","yes","2","2","501","stimuli/pictures/piano_electric_1.jpg","1","1","","true","no","sound","stimuli/sounds/piano_sound_A.wav",""
"","","","","","audio-keyboard-response","195","2.0.0","217822","pcrnr1osu7h","mus","giraffe","30","Male","yes","yes","2","2","null","stimuli/sounds/bleep.wav","null","","","","","","",""
"","","","","","html-keyboard-response","196","2.0.0","218595","pcrnr1osu7h","mus","giraffe","30","Male","yes","yes","2","2","673","<div style=""font-size:30px;"">Press space to start the trial</div>"," ","","","","","","",""
"","","","","","html-keyboard-response","197","2.0.0","218859","pcrnr1osu7h","mus","giraffe","30","Male","yes","yes","2","2","null","<div style=""font-size:60px;"">+</div>","null","","","","","","",""
"","","","","","audio-keyboard-response","198","2.0.0","219452","pcrnr1osu7h","mus","giraffe","30","Male","yes","yes","2","2","null","stimuli/sounds/drum_label_B.wav","null","","","","","","",""
"","","","","","html-keyboard-response","199","2.0.0","220461","pcrnr1osu7h","mus","giraffe","30","Male","yes","yes","2","2","null","","null","","","","","","",""
"","","","","","image-keyboard-response","200","2.0.0","221313","pcrnr1osu7h","mus","giraffe","30","Male","yes","yes","2","2","851","stimuli/pictures/drum_bongo_1.jpg","1","1","","true","yes","sound","stimuli/sounds/drum_label_B.wav",""
"","","","","","audio-keyboard-response","201","2.0.0","222319","pcrnr1osu7h","mus","giraffe","30","Male","yes","yes","2","2","null","stimuli/sounds/bleep.wav","null","","","","","","",""
"","","","","","html-keyboard-response","202","2.0.0","223081","pcrnr1osu7h","mus","giraffe","30","Male","yes","yes","2","2","648","<div style=""font-size:30px;"">Press space to start the trial</div>"," ","","","","","","",""
"","","","","","html-keyboard-response","203","2.0.0","223334","pcrnr1osu7h","mus","giraffe","30","Male","yes","yes","2","2","null","<div style=""font-size:60px;"">+</div>","null","","","","","","",""
"","","","","","audio-keyboard-response","204","2.0.0","223954","pcrnr1osu7h","mus","giraffe","30","Male","yes","yes","2","2","null","stimuli/sounds/piano_label_A.wav","null","","","","","","",""
"","","","","","html-keyboard-response","205","2.0.0","224959","pcrnr1osu7h","mus","giraffe","30","Male","yes","yes","2","2","null","","null","","","","","","",""
"","","","","","image-keyboard-response","206","2.0.0","225550","pcrnr1osu7h","mus","giraffe","30","Male","yes","yes","2","2","589","stimuli/pictures/piano_electric_2.jpg","1","1","","true","yes","sound","stimuli/sounds/piano_label_A.wav",""
"","","","","","audio-keyboard-response","207","2.0.0","226555","pcrnr1osu7h","mus","giraffe","30","Male","yes","yes","2","2","null","stimuli/sounds/bleep.wav","null","","","","","","",""
"","","","","","html-keyboard-response","208","2.0.0","227049","pcrnr1osu7h","mus","giraffe","30","Male","yes","yes","2","2","389","<div style=""font-size:30px;"">Press space to start the trial</div>"," ","","","","","","",""
"","","","","","html-keyboard-response","209","2.0.0","227311","pcrnr1osu7h","mus","giraffe","30","Male","yes","yes","2","2","null","<div style=""font-size:60px;"">+</div>","null","","","","","","",""
"","","","","","audio-keyboard-response","210","2.0.0","227913","pcrnr1osu7h","mus","giraffe","30","Male","yes","yes","2","2","null","stimuli/sounds/piano_sound_A.wav","null","","","","","","",""
"","","","","","html-keyboard-response","211","2.0.0","228924","pcrnr1osu7h","mus","giraffe","30","Male","yes","yes","2","2","null","","null","","","","","","",""
"","","","","","image-keyboard-response","212","2.0.0","229773","pcrnr1osu7h","mus","giraffe","30","Male","yes","yes","2","2","848","stimuli/pictures/piano_grand_1.jpg","1","1","","true","yes","sound","stimuli/sounds/piano_sound_A.wav",""
"","","","","","audio-keyboard-response","213","2.0.0","230778","pcrnr1osu7h","mus","giraffe","30","Male","yes","yes","2","2","null","stimuli/sounds/bleep.wav","null","","","","","","",""
"","","","","","html-keyboard-response","214","2.0.0","231296","pcrnr1osu7h","mus","giraffe","30","Male","yes","yes","2","2","401","<div style=""font-size:30px;"">Press space to start the trial</div>"," ","","","","","","",""
"","","","","","html-keyboard-response","215","2.0.0","231560","pcrnr1osu7h","mus","giraffe","30","Male","yes","yes","2","2","null","<div style=""font-size:60px;"">+</div>","null","","","","","","",""
"","","","","","audio-keyboard-response","216","2.0.0","232155","pcrnr1osu7h","mus","giraffe","30","Male","yes","yes","2","2","null","stimuli/sounds/phone_sound_A.wav","null","","","","","","",""
"","","","","","html-keyboard-response","217","2.0.0","233169","pcrnr1osu7h","mus","giraffe","30","Male","yes","yes","2","2","null","","null","","","","","","",""
"","","","","","image-keyboard-response","218","2.0.0","233814","pcrnr1osu7h","mus","giraffe","30","Male","yes","yes","2","2","643","stimuli/pictures/bird_hawk_1.jpg","0","0","","true","no","sound","stimuli/sounds/phone_sound_A.wav",""
"","","","","","audio-keyboard-response","219","2.0.0","234820","pcrnr1osu7h","mus","giraffe","30","Male","yes","yes","2","2","null","stimuli/sounds/bleep.wav","null","","","","","","",""
"","","","","","html-keyboard-response","220","2.0.0","235198","pcrnr1osu7h","mus","giraffe","30","Male","yes","yes","2","2","274","<div style=""font-size:30px;"">Press space to start the trial</div>"," ","","","","","","",""
"","","","","","html-keyboard-response","221","2.0.0","235465","pcrnr1osu7h","mus","giraffe","30","Male","yes","yes","2","2","null","<div style=""font-size:60px;"">+</div>","null","","","","","","",""
"","","","","","audio-keyboard-response","222","2.0.0","236058","pcrnr1osu7h","mus","giraffe","30","Male","yes","yes","2","2","null","stimuli/sounds/bird_sound_B.wav","null","","","","","","",""
"","","","","","html-keyboard-response","223","2.0.0","237074","pcrnr1osu7h","mus","giraffe","30","Male","yes","yes","2","2","null","","null","","","","","","",""
"","","","","","image-keyboard-response","224","2.0.0","238138","pcrnr1osu7h","mus","giraffe","30","Male","yes","yes","2","2","1063","stimuli/pictures/drum_kit_2.jpg","0","0","","true","no","sound","stimuli/sounds/bird_sound_B.wav",""
"","","","","","audio-keyboard-response","225","2.0.0","239148","pcrnr1osu7h","mus","giraffe","30","Male","yes","yes","2","2","null","stimuli/sounds/bleep.wav","null","","","","","","",""
"","","","","","html-keyboard-response","226","2.0.0","239750","pcrnr1osu7h","mus","giraffe","30","Male","yes","yes","2","2","486","<div style=""font-size:30px;"">Press space to start the trial</div>"," ","","","","","","",""
"","","","","","html-keyboard-response","227","2.0.0","240012","pcrnr1osu7h","mus","giraffe","30","Male","yes","yes","2","2","null","<div style=""font-size:60px;"">+</div>","null","","","","","","",""
"","","","","","audio-keyboard-response","228","2.0.0","240616","pcrnr1osu7h","mus","giraffe","30","Male","yes","yes","2","2","null","stimuli/sounds/flute_sound_A.wav","null","","","","","","",""
"","","","","","html-keyboard-response","229","2.0.0","241627","pcrnr1osu7h","mus","giraffe","30","Male","yes","yes","2","2","null","","null","","","","","","",""
"","","","","","image-keyboard-response","230","2.0.0","242265","pcrnr1osu7h","mus","giraffe","30","Male","yes","yes","2","2","636","stimuli/pictures/flute_wooden_1.jpg","1","1","","true","no","sound","stimuli/sounds/flute_sound_A.wav",""
"","","","","","audio-keyboard-response","231","2.0.0","243267","pcrnr1osu7h","mus","giraffe","30","Male","yes","yes","2","2","null","stimuli/sounds/bleep.wav","null","","","","","","",""
"","","","","","html-keyboard-response","232","2.0.0","243948","pcrnr1osu7h","mus","giraffe","30","Male","yes","yes","2","2","568","<div style=""font-size:30px;"">Press space to start the trial</div>"," ","","","","","","",""
"","","","","","html-keyboard-response","233","2.0.0","244213","pcrnr1osu7h","mus","giraffe","30","Male","yes","yes","2","2","null","<div style=""font-size:60px;"">+</div>","null","","","","","","",""
"","","","","","audio-keyboard-response","234","2.0.0","244844","pcrnr1osu7h","mus","giraffe","30","Male","yes","yes","2","2","null","stimuli/sounds/piano_label_A.wav","null","","","","","","",""
"","","","","","html-keyboard-response","235","2.0.0","245850","pcrnr1osu7h","mus","giraffe","30","Male","yes","yes","2","2","null","","null","","","","","","",""
"","","","","","image-keyboard-response","236","2.0.0","246539","pcrnr1osu7h","mus","giraffe","30","Male","yes","yes","2","2","688","stimuli/pictures/piano_grand_1.jpg","1","1","","true","yes","sound","stimuli/sounds/piano_label_A.wav",""
"","","","","","audio-keyboard-response","237","2.0.0","247541","pcrnr1osu7h","mus","giraffe","30","Male","yes","yes","2","2","null","stimuli/sounds/bleep.wav","null","","","","","","",""
"","","","","","html-keyboard-response","238","2.0.0","248366","pcrnr1osu7h","mus","giraffe","30","Male","yes","yes","2","2","711","<div style=""font-size:30px;"">Press space to start the trial</div>"," ","","","","","","",""
"","","","","","html-keyboard-response","239","2.0.0","248628","pcrnr1osu7h","mus","giraffe","30","Male","yes","yes","2","2","null","<div style=""font-size:60px;"">+</div>","null","","","","","","",""
"","","","","","audio-keyboard-response","240","2.0.0","249237","pcrnr1osu7h","mus","giraffe","30","Male","yes","yes","2","2","null","stimuli/sounds/flute_label_B.wav","null","","","","","","",""
"","","","","","html-keyboard-response","241","2.0.0","250247","pcrnr1osu7h","mus","giraffe","30","Male","yes","yes","2","2","null","","null","","","","","","",""
"","","","","","image-keyboard-response","242","2.0.0","250757","pcrnr1osu7h","mus","giraffe","30","Male","yes","yes","2","2","508","stimuli/pictures/drum_bongo_1.jpg","0","0","","true","no","sound","stimuli/sounds/flute_label_B.wav",""
"","","","","","audio-keyboard-response","243","2.0.0","251767","pcrnr1osu7h","mus","giraffe","30","Male","yes","yes","2","2","null","stimuli/sounds/bleep.wav","null","","","","","","",""
"","","","","","html-keyboard-response","244","2.0.0","252422","pcrnr1osu7h","mus","giraffe","30","Male","yes","yes","2","2","539","<div style=""font-size:30px;"">Press space to start the trial</div>"," ","","","","","","",""
"","","","","","html-keyboard-response","245","2.0.0","252675","pcrnr1osu7h","mus","giraffe","30","Male","yes","yes","2","2","null","<div style=""font-size:60px;"">+</div>","null","","","","","","",""
"","","","","","audio-keyboard-response","246","2.0.0","253287","pcrnr1osu7h","mus","giraffe","30","Male","yes","yes","2","2","null","stimuli/sounds/flute_label_A.wav","null","","","","","","",""
"","","","","","html-keyboard-response","247","2.0.0","254304","pcrnr1osu7h","mus","giraffe","30","Male","yes","yes","2","2","null","","null","","","","","","",""
"","","","","","image-keyboard-response","248","2.0.0","254798","pcrnr1osu7h","mus","giraffe","30","Male","yes","yes","2","2","492","stimuli/pictures/piano_grand_2.jpg","0","0","","true","no","sound","stimuli/sounds/flute_label_A.wav",""
"","","","","","audio-keyboard-response","249","2.0.0","255815","pcrnr1osu7h","mus","giraffe","30","Male","yes","yes","2","2","null","stimuli/sounds/bleep.wav","null","","","","","","",""
"","","","","","html-keyboard-response","250","2.0.0","256594","pcrnr1osu7h","mus","giraffe","30","Male","yes","yes","2","2","663","<div style=""font-size:30px;"">Press space to start the trial</div>"," ","","","","","","",""
"","","","","","html-keyboard-response","251","2.0.0","256851","pcrnr1osu7h","mus","giraffe","30","Male","yes","yes","2","2","null","<div style=""font-size:60px;"">+</div>","null","","","","","","",""
"","","","","","audio-keyboard-response","252","2.0.0","257447","pcrnr1osu7h","mus","giraffe","30","Male","yes","yes","2","2","null","stimuli/sounds/drum_label_B.wav","null","","","","","","",""
"","","","","","html-keyboard-response","253","2.0.0","258457","pcrnr1osu7h","mus","giraffe","30","Male","yes","yes","2","2","null","","null","","","","","","",""
"","","","","","image-keyboard-response","254","2.0.0","258941","pcrnr1osu7h","mus","giraffe","30","Male","yes","yes","2","2","482","stimuli/pictures/drum_kit_1.jpg","1","1","","true","yes","sound","stimuli/sounds/drum_label_B.wav",""
"","","","","","audio-keyboard-response","255","2.0.0","259943","pcrnr1osu7h","mus","giraffe","30","Male","yes","yes","2","2","null","stimuli/sounds/bleep.wav","null","","","","","","",""
"","","","","","html-keyboard-response","256","2.0.0","260495","pcrnr1osu7h","mus","giraffe","30","Male","yes","yes","2","2","436","<div style=""font-size:30px;"">Press space to start the trial</div>"," ","","","","","","",""
"","","","","","html-keyboard-response","257","2.0.0","260761","pcrnr1osu7h","mus","giraffe","30","Male","yes","yes","2","2","null","<div style=""font-size:60px;"">+</div>","null","","","","","","",""
"","","","","","audio-keyboard-response","258","2.0.0","261367","pcrnr1osu7h","mus","giraffe","30","Male","yes","yes","2","2","null","stimuli/sounds/piano_sound_A.wav","null","","","","","","",""
"","","","","","html-keyboard-response","259","2.0.0","262371","pcrnr1osu7h","mus","giraffe","30","Male","yes","yes","2","2","null","","null","","","","","","",""
"","","","","","image-keyboard-response","260","2.0.0","263026","pcrnr1osu7h","mus","giraffe","30","Male","yes","yes","2","2","653","stimuli/pictures/piano_electric_2.jpg","1","1","","true","no","sound","stimuli/sounds/piano_sound_A.wav",""
"","","","","","audio-keyboard-response","261","2.0.0","264028","pcrnr1osu7h","mus","giraffe","30","Male","yes","yes","2","2","null","stimuli/sounds/bleep.wav","null","","","","","","",""
"","","","","","html-keyboard-response","262","2.0.0","264542","pcrnr1osu7h","mus","giraffe","30","Male","yes","yes","2","2","399","<div style=""font-size:30px;"">Press space to start the trial</div>"," ","","","","","","",""
"","","","","","html-keyboard-response","263","2.0.0","264793","pcrnr1osu7h","mus","giraffe","30","Male","yes","yes","2","2","null","<div style=""font-size:60px;"">+</div>","null","","","","","","",""
"","","","","","audio-keyboard-response","264","2.0.0","265387","pcrnr1osu7h","mus","giraffe","30","Male","yes","yes","2","2","null","stimuli/sounds/bird_label_A.wav","null","","","","","","",""
"","","","","","html-keyboard-response","265","2.0.0","266407","pcrnr1osu7h","mus","giraffe","30","Male","yes","yes","2","2","null","","null","","","","","","",""
"","","","","","image-keyboard-response","266","2.0.0","267229","pcrnr1osu7h","mus","giraffe","30","Male","yes","yes","2","2","820","stimuli/pictures/flute_metal_2.jpg","0","0","","true","no","sound","stimuli/sounds/bird_label_A.wav",""
"","","","","","audio-keyboard-response","267","2.0.0","268234","pcrnr1osu7h","mus","giraffe","30","Male","yes","yes","2","2","null","stimuli/sounds/bleep.wav","null","","","","","","",""
"","","","","","html-keyboard-response","268","2.0.0","270306","pcrnr1osu7h","mus","giraffe","30","Male","yes","yes","2","2","1970","<p>You have completed a block. Press R when you are ready to continue</p>","r","","","","","","",""
"","","","","","html-keyboard-response","269","2.0.0","271294","pcrnr1osu7h","mus","giraffe","30","Male","yes","yes","2","2","987","<div style=""font-size:30px;"">Press space to start the trial</div>"," ","","","","","","",""
"","","","","","html-keyboard-response","270","2.0.0","271558","pcrnr1osu7h","mus","giraffe","30","Male","yes","yes","2","2","null","<div style=""font-size:60px;"">+</div>","null","","","","","","",""
"","","","","","audio-keyboard-response","271","2.0.0","272156","pcrnr1osu7h","mus","giraffe","30","Male","yes","yes","2","2","null","stimuli/sounds/flute_sound_A.wav","null","","","","","","",""
"","","","","","html-keyboard-response","272","2.0.0","273173","pcrnr1osu7h","mus","giraffe","30","Male","yes","yes","2","2","null","","null","","","","","","",""
"","","","","","image-keyboard-response","273","2.0.0","273719","pcrnr1osu7h","mus","giraffe","30","Male","yes","yes","2","2","545","stimuli/pictures/flute_metal_1.jpg","1","1","","true","yes","sound","stimuli/sounds/flute_sound_A.wav",""
"","","","","","audio-keyboard-response","274","2.0.0","274727","pcrnr1osu7h","mus","giraffe","30","Male","yes","yes","2","2","null","stimuli/sounds/bleep.wav","null","","","","","","",""
"","","","","","html-keyboard-response","275","2.0.0","275260","pcrnr1osu7h","mus","giraffe","30","Male","yes","yes","2","2","421","<div style=""font-size:30px;"">Press space to start the trial</div>"," ","","","","","","",""
"","","","","","html-keyboard-response","276","2.0.0","275514","pcrnr1osu7h","mus","giraffe","30","Male","yes","yes","2","2","null","<div style=""font-size:60px;"">+</div>","null","","","","","","",""
"","","","","","audio-keyboard-response","277","2.0.0","276106","pcrnr1osu7h","mus","giraffe","30","Male","yes","yes","2","2","null","stimuli/sounds/drum_sound_A.wav","null","","","","","","",""
"","","","","","html-keyboard-response","278","2.0.0","277116","pcrnr1osu7h","mus","giraffe","30","Male","yes","yes","2","2","null","","null","","","","","","",""
"","","","","","image-keyboard-response","279","2.0.0","277648","pcrnr1osu7h","mus","giraffe","30","Male","yes","yes","2","2","531","stimuli/pictures/flute_metal_2.jpg","0","0","","true","no","sound","stimuli/sounds/drum_sound_A.wav",""
"","","","","","audio-keyboard-response","280","2.0.0","278658","pcrnr1osu7h","mus","giraffe","30","Male","yes","yes","2","2","null","stimuli/sounds/bleep.wav","null","","","","","","",""
"","","","","","html-keyboard-response","281","2.0.0","279203","pcrnr1osu7h","mus","giraffe","30","Male","yes","yes","2","2","430","<div style=""font-size:30px;"">Press space to start the trial</div>"," ","","","","","","",""
"","","","","","html-keyboard-response","282","2.0.0","279469","pcrnr1osu7h","mus","giraffe","30","Male","yes","yes","2","2","null","<div style=""font-size:60px;"">+</div>","null","","","","","","",""
"","","","","","audio-keyboard-response","283","2.0.0","280071","pcrnr1osu7h","mus","giraffe","30","Male","yes","yes","2","2","null","stimuli/sounds/phone_sound_A.wav","null","","","","","","",""
"","","","","","html-keyboard-response","284","2.0.0","281083","pcrnr1osu7h","mus","giraffe","30","Male","yes","yes","2","2","null","","null","","","","","","",""
"","","","","","image-keyboard-response","285","2.0.0","281616","pcrnr1osu7h","mus","giraffe","30","Male","yes","yes","2","2","531","stimuli/pictures/phone_cell_2.jpg","1","1","","true","yes","sound","stimuli/sounds/phone_sound_A.wav",""
"","","","","","audio-keyboard-response","286","2.0.0","282629","pcrnr1osu7h","mus","giraffe","30","Male","yes","yes","2","2","null","stimuli/sounds/bleep.wav","null","","","","","","",""
"","","","","","html-keyboard-response","287","2.0.0","283120","pcrnr1osu7h","mus","giraffe","30","Male","yes","yes","2","2","388","<div style=""font-size:30px;"">Press space to start the trial</div>"," ","","","","","","",""
"","","","","","html-keyboard-response","288","2.0.0","283384","pcrnr1osu7h","mus","giraffe","30","Male","yes","yes","2","2","null","<div style=""font-size:60px;"">+</div>","null","","","","","","",""
"","","","","","audio-keyboard-response","289","2.0.0","283990","pcrnr1osu7h","mus","giraffe","30","Male","yes","yes","2","2","null","stimuli/sounds/piano_sound_B.wav","null","","","","","","",""
"","","","","","html-keyboard-response","290","2.0.0","284999","pcrnr1osu7h","mus","giraffe","30","Male","yes","yes","2","2","null","","null","","","","","","",""
"","","","","","image-keyboard-response","291","2.0.0","285456","pcrnr1osu7h","mus","giraffe","30","Male","yes","yes","2","2","456","stimuli/pictures/piano_electric_2.jpg","1","1","","true","yes","sound","stimuli/sounds/piano_sound_B.wav",""
"","","","","","audio-keyboard-response","292","2.0.0","286468","pcrnr1osu7h","mus","giraffe","30","Male","yes","yes","2","2","null","stimuli/sounds/bleep.wav","null","","","","","","",""
"","","","","","html-keyboard-response","293","2.0.0","287060","pcrnr1osu7h","mus","giraffe","30","Male","yes","yes","2","2","474","<div style=""font-size:30px;"">Press space to start the trial</div>"," ","","","","","","",""
"","","","","","html-keyboard-response","294","2.0.0","287318","pcrnr1osu7h","mus","giraffe","30","Male","yes","yes","2","2","null","<div style=""font-size:60px;"">+</div>","null","","","","","","",""
"","","","","","audio-keyboard-response","295","2.0.0","287912","pcrnr1osu7h","mus","giraffe","30","Male","yes","yes","2","2","null","stimuli/sounds/bird_sound_B.wav","null","","","","","","",""
"","","","","","html-keyboard-response","296","2.0.0","288923","pcrnr1osu7h","mus","giraffe","30","Male","yes","yes","2","2","null","","null","","","","","","",""
"","","","","","image-keyboard-response","297","2.0.0","289410","pcrnr1osu7h","mus","giraffe","30","Male","yes","yes","2","2","485","stimuli/pictures/drum_kit_1.jpg","0","0","","true","no","sound","stimuli/sounds/bird_sound_B.wav",""
"","","","","","audio-keyboard-response","298","2.0.0","290421","pcrnr1osu7h","mus","giraffe","30","Male","yes","yes","2","2","null","stimuli/sounds/bleep.wav","null","","","","","","",""
"","","","","","html-keyboard-response","299","2.0.0","291195","pcrnr1osu7h","mus","giraffe","30","Male","yes","yes","2","2","660","<div style=""font-size:30px;"">Press space to start the trial</div>"," ","","","","","","",""
"","","","","","html-keyboard-response","300","2.0.0","291448","pcrnr1osu7h","mus","giraffe","30","Male","yes","yes","2","2","null","<div style=""font-size:60px;"">+</div>","null","","","","","","",""
"","","","","","audio-keyboard-response","301","2.0.0","292050","pcrnr1osu7h","mus","giraffe","30","Male","yes","yes","2","2","null","stimuli/sounds/drum_sound_B.wav","null","","","","","","",""
"","","","","","html-keyboard-response","302","2.0.0","293056","pcrnr1osu7h","mus","giraffe","30","Male","yes","yes","2","2","null","","null","","","","","","",""
"","","","","","image-keyboard-response","303","2.0.0","293679","pcrnr1osu7h","mus","giraffe","30","Male","yes","yes","2","2","621","stimuli/pictures/drum_kit_2.jpg","1","1","","true","no","sound","stimuli/sounds/drum_sound_B.wav",""
"","","","","","audio-keyboard-response","304","2.0.0","294681","pcrnr1osu7h","mus","giraffe","30","Male","yes","yes","2","2","null","stimuli/sounds/bleep.wav","null","","","","","","",""
"","","","","","html-keyboard-response","305","2.0.0","295186","pcrnr1osu7h","mus","giraffe","30","Male","yes","yes","2","2","404","<div style=""font-size:30px;"">Press space to start the trial</div>"," ","","","","","","",""
"","","","","","html-keyboard-response","306","2.0.0","295443","pcrnr1osu7h","mus","giraffe","30","Male","yes","yes","2","2","null","<div style=""font-size:60px;"">+</div>","null","","","","","","",""
"","","","","","audio-keyboard-response","307","2.0.0","296039","pcrnr1osu7h","mus","giraffe","30","Male","yes","yes","2","2","null","stimuli/sounds/bird_sound_A.wav","null","","","","","","",""
"","","","","","html-keyboard-response","308","2.0.0","297048","pcrnr1osu7h","mus","giraffe","30","Male","yes","yes","2","2","null","","null","","","","","","",""
"","","","","","image-keyboard-response","309","2.0.0","297521","pcrnr1osu7h","mus","giraffe","30","Male","yes","yes","2","2","472","stimuli/pictures/bird_hawk_1.jpg","1","1","","true","yes","sound","stimuli/sounds/bird_sound_A.wav",""
"","","","","","audio-keyboard-response","310","2.0.0","298539","pcrnr1osu7h","mus","giraffe","30","Male","yes","yes","2","2","null","stimuli/sounds/bleep.wav","null","","","","","","",""
"","","","","","html-keyboard-response","311","2.0.0","299175","pcrnr1osu7h","mus","giraffe","30","Male","yes","yes","2","2","520","<div style=""font-size:30px;"">Press space to start the trial</div>"," ","","","","","","",""
"","","","","","html-keyboard-response","312","2.0.0","299427","pcrnr1osu7h","mus","giraffe","30","Male","yes","yes","2","2","null","<div style=""font-size:60px;"">+</div>","null","","","","","","",""
"","","","","","audio-keyboard-response","313","2.0.0","300019","pcrnr1osu7h","mus","giraffe","30","Male","yes","yes","2","2","null","stimuli/sounds/bird_sound_B.wav","null","","","","","","",""
"","","","","","html-keyboard-response","314","2.0.0","301025","pcrnr1osu7h","mus","giraffe","30","Male","yes","yes","2","2","null","","null","","","","","","",""
"","","","","","image-keyboard-response","315","2.0.0","301684","pcrnr1osu7h","mus","giraffe","30","Male","yes","yes","2","2","658","stimuli/pictures/bird_song_1.jpg","1","1","","true","yes","sound","stimuli/sounds/bird_sound_B.wav",""
"","","","","","audio-keyboard-response","316","2.0.0","302694","pcrnr1osu7h","mus","giraffe","30","Male","yes","yes","2","2","null","stimuli/sounds/bleep.wav","null","","","","","","",""
"","","","","","html-keyboard-response","317","2.0.0","303424","pcrnr1osu7h","mus","giraffe","30","Male","yes","yes","2","2","616","<div style=""font-size:30px;"">Press space to start the trial</div>"," ","","","","","","",""
"","","","","","html-keyboard-response","318","2.0.0","303679","pcrnr1osu7h","mus","giraffe","30","Male","yes","yes","2","2","null","<div style=""font-size:60px;"">+</div>","null","","","","","","",""
"","","","","","audio-keyboard-response","319","2.0.0","304268","pcrnr1osu7h","mus","giraffe","30","Male","yes","yes","2","2","null","stimuli/sounds/drum_label_A.wav","null","","","","","","",""
"","","","","","html-keyboard-response","320","2.0.0","305281","pcrnr1osu7h","mus","giraffe","30","Male","yes","yes","2","2","null","","null","","","","","","",""
"","","","","","image-keyboard-response","321","2.0.0","305735","pcrnr1osu7h","mus","giraffe","30","Male","yes","yes","2","2","453","stimuli/pictures/drum_kit_2.jpg","1","1","","true","yes","sound","stimuli/sounds/drum_label_A.wav",""
"","","","","","audio-keyboard-response","322","2.0.0","306741","pcrnr1osu7h","mus","giraffe","30","Male","yes","yes","2","2","null","stimuli/sounds/bleep.wav","null","","","","","","",""
"","","","","","html-keyboard-response","323","2.0.0","307362","pcrnr1osu7h","mus","giraffe","30","Male","yes","yes","2","2","510","<div style=""font-size:30px;"">Press space to start the trial</div>"," ","","","","","","",""
"","","","","","html-keyboard-response","324","2.0.0","307624","pcrnr1osu7h","mus","giraffe","30","Male","yes","yes","2","2","null","<div style=""font-size:60px;"">+</div>","null","","","","","","",""
"","","","","","audio-keyboard-response","325","2.0.0","308219","pcrnr1osu7h","mus","giraffe","30","Male","yes","yes","2","2","null","stimuli/sounds/phone_sound_A.wav","null","","","","","","",""
"","","","","","html-keyboard-response","326","2.0.0","309230","pcrnr1osu7h","mus","giraffe","30","Male","yes","yes","2","2","null","","null","","","","","","",""
"","","","","","image-keyboard-response","327","2.0.0","309765","pcrnr1osu7h","mus","giraffe","30","Male","yes","yes","2","2","534","stimuli/pictures/bird_song_2.jpg","0","0","","true","no","sound","stimuli/sounds/phone_sound_A.wav",""
"","","","","","audio-keyboard-response","328","2.0.0","310778","pcrnr1osu7h","mus","giraffe","30","Male","yes","yes","2","2","null","stimuli/sounds/bleep.wav","null","","","","","","",""
"","","","","","html-keyboard-response","329","2.0.0","311530","pcrnr1osu7h","mus","giraffe","30","Male","yes","yes","2","2","639","<div style=""font-size:30px;"">Press space to start the trial</div>"," ","","","","","","",""
"","","","","","html-keyboard-response","330","2.0.0","311791","pcrnr1osu7h","mus","giraffe","30","Male","yes","yes","2","2","null","<div style=""font-size:60px;"">+</div>","null","","","","","","",""
"","","","","","audio-keyboard-response","331","2.0.0","312400","pcrnr1osu7h","mus","giraffe","30","Male","yes","yes","2","2","null","stimuli/sounds/piano_label_B.wav","null","","","","","","",""
"","","","","","html-keyboard-response","332","2.0.0","313410","pcrnr1osu7h","mus","giraffe","30","Male","yes","yes","2","2","null","","null","","","","","","",""
"","","","","","image-keyboard-response","333","2.0.0","314287","pcrnr1osu7h","mus","giraffe","30","Male","yes","yes","2","2","875","stimuli/pictures/piano_electric_1.jpg","1","1","","true","yes","sound","stimuli/sounds/piano_label_B.wav",""
"","","","","","audio-keyboard-response","334","2.0.0","315297","pcrnr1osu7h","mus","giraffe","30","Male","yes","yes","2","2","null","stimuli/sounds/bleep.wav","null","","","","","","",""
"","","","","","html-keyboard-response","335","2.0.0","316097","pcrnr1osu7h","mus","giraffe","30","Male","yes","yes","2","2","698","<div style=""font-size:30px;"">Press space to start the trial</div>"," ","","","","","","",""
"","","","","","html-keyboard-response","336","2.0.0","316362","pcrnr1osu7h","mus","giraffe","30","Male","yes","yes","2","2","null","<div style=""font-size:60px;"">+</div>","null","","","","","","",""
"","","","","","audio-keyboard-response","337","2.0.0","316961","pcrnr1osu7h","mus","giraffe","30","Male","yes","yes","2","2","null","stimuli/sounds/drum_label_B.wav","null","","","","","","",""
"","","","","","html-keyboard-response","338","2.0.0","317975","pcrnr1osu7h","mus","giraffe","30","Male","yes","yes","2","2","null","","null","","","","","","",""
"","","","","","image-keyboard-response","339","2.0.0","318956","pcrnr1osu7h","mus","giraffe","30","Male","yes","yes","2","2","980","stimuli/pictures/piano_grand_1.jpg","0","0","","true","no","sound","stimuli/sounds/drum_label_B.wav",""
"","","","","","audio-keyboard-response","340","2.0.0","319958","pcrnr1osu7h","mus","giraffe","30","Male","yes","yes","2","2","null","stimuli/sounds/bleep.wav","null","","","","","","",""
"","","","","","html-keyboard-response","341","2.0.0","320484","pcrnr1osu7h","mus","giraffe","30","Male","yes","yes","2","2","408","<div style=""font-size:30px;"">Press space to start the trial</div>"," ","","","","","","",""
"","","","","","html-keyboard-response","342","2.0.0","320736","pcrnr1osu7h","mus","giraffe","30","Male","yes","yes","2","2","null","<div style=""font-size:60px;"">+</div>","null","","","","","","",""
"","","","","","audio-keyboard-response","343","2.0.0","321340","pcrnr1osu7h","mus","giraffe","30","Male","yes","yes","2","2","null","stimuli/sounds/flute_label_A.wav","null","","","","","","",""
"","","","","","html-keyboard-response","344","2.0.0","322352","pcrnr1osu7h","mus","giraffe","30","Male","yes","yes","2","2","null","","null","","","","","","",""
"","","","","","image-keyboard-response","345","2.0.0","322902","pcrnr1osu7h","mus","giraffe","30","Male","yes","yes","2","2","548","stimuli/pictures/flute_wooden_2.jpg","1","1","","true","yes","sound","stimuli/sounds/flute_label_A.wav",""
"","","","","","audio-keyboard-response","346","2.0.0","323919","pcrnr1osu7h","mus","giraffe","30","Male","yes","yes","2","2","null","stimuli/sounds/bleep.wav","null","","","","","","",""
"","","","","","html-keyboard-response","347","2.0.0","324699","pcrnr1osu7h","mus","giraffe","30","Male","yes","yes","2","2","664","<div style=""font-size:30px;"">Press space to start the trial</div>"," ","","","","","","",""
"","","","","","html-keyboard-response","348","2.0.0","324952","pcrnr1osu7h","mus","giraffe","30","Male","yes","yes","2","2","null","<div style=""font-size:60px;"">+</div>","null","","","","","","",""
"","","","","","audio-keyboard-response","349","2.0.0","325553","pcrnr1osu7h","mus","giraffe","30","Male","yes","yes","2","2","null","stimuli/sounds/bird_label_A.wav","null","","","","","","",""
"","","","","","html-keyboard-response","350","2.0.0","326562","pcrnr1osu7h","mus","giraffe","30","Male","yes","yes","2","2","null","","null","","","","","","",""
"","","","","","image-keyboard-response","351","2.0.0","327395","pcrnr1osu7h","mus","giraffe","30","Male","yes","yes","2","2","832","stimuli/pictures/bird_song_1.jpg","1","1","","true","yes","sound","stimuli/sounds/bird_label_A.wav",""
"","","","","","audio-keyboard-response","352","2.0.0","328410","pcrnr1osu7h","mus","giraffe","30","Male","yes","yes","2","2","null","stimuli/sounds/bleep.wav","null","","","","","","",""
"","","","","","html-keyboard-response","353","2.0.0","328854","pcrnr1osu7h","mus","giraffe","30","Male","yes","yes","2","2","327","<div style=""font-size:30px;"">Press space to start the trial</div>"," ","","","","","","",""
"","","","","","html-keyboard-response","354","2.0.0","329109","pcrnr1osu7h","mus","giraffe","30","Male","yes","yes","2","2","null","<div style=""font-size:60px;"">+</div>","null","","","","","","",""
"","","","","","audio-keyboard-response","355","2.0.0","329712","pcrnr1osu7h","mus","giraffe","30","Male","yes","yes","2","2","null","stimuli/sounds/piano_label_B.wav","null","","","","","","",""
"","","","","","html-keyboard-response","356","2.0.0","330720","pcrnr1osu7h","mus","giraffe","30","Male","yes","yes","2","2","null","","null","","","","","","",""
"","","","","","image-keyboard-response","357","2.0.0","331469","pcrnr1osu7h","mus","giraffe","30","Male","yes","yes","2","2","747","stimuli/pictures/piano_grand_2.jpg","1","1","","true","yes","sound","stimuli/sounds/piano_label_B.wav",""
"","","","","","audio-keyboard-response","358","2.0.0","332478","pcrnr1osu7h","mus","giraffe","30","Male","yes","yes","2","2","null","stimuli/sounds/bleep.wav","null","","","","","","",""
"","","","","","html-keyboard-response","359","2.0.0","333811","pcrnr1osu7h","mus","giraffe","30","Male","yes","yes","2","2","1219","<div style=""font-size:30px;"">Press space to start the trial</div>"," ","","","","","","",""
"","","","","","html-keyboard-response","360","2.0.0","334078","pcrnr1osu7h","mus","giraffe","30","Male","yes","yes","2","2","null","<div style=""font-size:60px;"">+</div>","null","","","","","","",""
"","","","","","audio-keyboard-response","361","2.0.0","334670","pcrnr1osu7h","mus","giraffe","30","Male","yes","yes","2","2","null","stimuli/sounds/bird_label_B.wav","null","","","","","","",""
"","","","","","html-keyboard-response","362","2.0.0","335676","pcrnr1osu7h","mus","giraffe","30","Male","yes","yes","2","2","null","","null","","","","","","",""
"","","","","","image-keyboard-response","363","2.0.0","336332","pcrnr1osu7h","mus","giraffe","30","Male","yes","yes","2","2","654","stimuli/pictures/phone_cell_2.jpg","0","0","","true","no","sound","stimuli/sounds/bird_label_B.wav",""
"","","","","","audio-keyboard-response","364","2.0.0","337337","pcrnr1osu7h","mus","giraffe","30","Male","yes","yes","2","2","null","stimuli/sounds/bleep.wav","null","","","","","","",""
"","","","","","html-keyboard-response","365","2.0.0","337992","pcrnr1osu7h","mus","giraffe","30","Male","yes","yes","2","2","543","<div style=""font-size:30px;"">Press space to start the trial</div>"," ","","","","","","",""
"","","","","","html-keyboard-response","366","2.0.0","338252","pcrnr1osu7h","mus","giraffe","30","Male","yes","yes","2","2","null","<div style=""font-size:60px;"">+</div>","null","","","","","","",""
"","","","","","audio-keyboard-response","367","2.0.0","338864","pcrnr1osu7h","mus","giraffe","30","Male","yes","yes","2","2","null","stimuli/sounds/piano_sound_B.wav","null","","","","","","",""
"","","","","","html-keyboard-response","368","2.0.0","339869","pcrnr1osu7h","mus","giraffe","30","Male","yes","yes","2","2","null","","null","","","","","","",""
"","","","","","image-keyboard-response","369","2.0.0","340704","pcrnr1osu7h","mus","giraffe","30","Male","yes","yes","2","2","833","stimuli/pictures/piano_electric_1.jpg","1","1","","true","yes","sound","stimuli/sounds/piano_sound_B.wav",""
"","","","","","audio-keyboard-response","370","2.0.0","341706","pcrnr1osu7h","mus","giraffe","30","Male","yes","yes","2","2","null","stimuli/sounds/bleep.wav","null","","","","","","",""
"","","","","","html-keyboard-response","371","2.0.0","342322","pcrnr1osu7h","mus","giraffe","30","Male","yes","yes","2","2","500","<div style=""font-size:30px;"">Press space to start the trial</div>"," ","","","","","","",""
"","","","","","html-keyboard-response","372","2.0.0","342581","pcrnr1osu7h","mus","giraffe","30","Male","yes","yes","2","2","null","<div style=""font-size:60px;"">+</div>","null","","","","","","",""
"","","","","","audio-keyboard-response","373","2.0.0","343172","pcrnr1osu7h","mus","giraffe","30","Male","yes","yes","2","2","null","stimuli/sounds/drum_label_B.wav","null","","","","","","",""
"","","","","","html-keyboard-response","374","2.0.0","344181","pcrnr1osu7h","mus","giraffe","30","Male","yes","yes","2","2","null","","null","","","","","","",""
"","","","","","image-keyboard-response","375","2.0.0","344809","pcrnr1osu7h","mus","giraffe","30","Male","yes","yes","2","2","627","stimuli/pictures/piano_electric_1.jpg","0","0","","true","no","sound","stimuli/sounds/drum_label_B.wav",""
"","","","","","audio-keyboard-response","376","2.0.0","345823","pcrnr1osu7h","mus","giraffe","30","Male","yes","yes","2","2","null","stimuli/sounds/bleep.wav","null","","","","","","",""
"","","","","","html-keyboard-response","377","2.0.0","346365","pcrnr1osu7h","mus","giraffe","30","Male","yes","yes","2","2","439","<div style=""font-size:30px;"">Press space to start the trial</div>"," ","","","","","","",""
"","","","","","html-keyboard-response","378","2.0.0","346619","pcrnr1osu7h","mus","giraffe","30","Male","yes","yes","2","2","null","<div style=""font-size:60px;"">+</div>","null","","","","","","",""
"","","","","","audio-keyboard-response","379","2.0.0","347213","pcrnr1osu7h","mus","giraffe","30","Male","yes","yes","2","2","null","stimuli/sounds/bird_sound_A.wav","null","","","","","","",""
"","","","","","html-keyboard-response","380","2.0.0","348223","pcrnr1osu7h","mus","giraffe","30","Male","yes","yes","2","2","null","","null","","","","","","",""
"","","","","","image-keyboard-response","381","2.0.0","349044","pcrnr1osu7h","mus","giraffe","30","Male","yes","yes","2","2","820","stimuli/pictures/bird_song_1.jpg","1","1","","true","no","sound","stimuli/sounds/bird_sound_A.wav",""
"","","","","","audio-keyboard-response","382","2.0.0","350048","pcrnr1osu7h","mus","giraffe","30","Male","yes","yes","2","2","null","stimuli/sounds/bleep.wav","null","","","","","","",""
"","","","","","html-keyboard-response","383","2.0.0","350773","pcrnr1osu7h","mus","giraffe","30","Male","yes","yes","2","2","612","<div style=""font-size:30px;"">Press space to start the trial</div>"," ","","","","","","",""
"","","","","","html-keyboard-response","384","2.0.0","351036","pcrnr1osu7h","mus","giraffe","30","Male","yes","yes","2","2","null","<div style=""font-size:60px;"">+</div>","null","","","","","","",""
"","","","","","audio-keyboard-response","385","2.0.0","351632","pcrnr1osu7h","mus","giraffe","30","Male","yes","yes","2","2","null","stimuli/sounds/phone_label_B.wav","null","","","","","","",""
"","","","","","html-keyboard-response","386","2.0.0","352649","pcrnr1osu7h","mus","giraffe","30","Male","yes","yes","2","2","null","","null","","","","","","",""
"","","","","","image-keyboard-response","387","2.0.0","353405","pcrnr1osu7h","mus","giraffe","30","Male","yes","yes","2","2","755","stimuli/pictures/flute_wooden_2.jpg","0","0","","true","no","sound","stimuli/sounds/phone_label_B.wav",""
"","","","","","audio-keyboard-response","388","2.0.0","354419","pcrnr1osu7h","mus","giraffe","30","Male","yes","yes","2","2","null","stimuli/sounds/bleep.wav","null","","","","","","",""
"","","","","","html-keyboard-response","389","2.0.0","355848","pcrnr1osu7h","mus","giraffe","30","Male","yes","yes","2","2","1314","<p>You have completed a block. Press R when you are ready to continue</p>","r","","","","","","",""
"","","","","","html-keyboard-response","390","2.0.0","356502","pcrnr1osu7h","mus","giraffe","30","Male","yes","yes","2","2","654","<div style=""font-size:30px;"">Press space to start the trial</div>"," ","","","","","","",""
"","","","","","html-keyboard-response","391","2.0.0","356754","pcrnr1osu7h","mus","giraffe","30","Male","yes","yes","2","2","null","<div style=""font-size:60px;"">+</div>","null","","","","","","",""
"","","","","","audio-keyboard-response","392","2.0.0","357354","pcrnr1osu7h","mus","giraffe","30","Male","yes","yes","2","2","null","stimuli/sounds/phone_sound_A.wav","null","","","","","","",""
"","","","","","html-keyboard-response","393","2.0.0","358364","pcrnr1osu7h","mus","giraffe","30","Male","yes","yes","2","2","null","","null","","","","","","",""
"","","","","","image-keyboard-response","394","2.0.0","358944","pcrnr1osu7h","mus","giraffe","30","Male","yes","yes","2","2","579","stimuli/pictures/phone_cell_1.jpg","1","1","","true","yes","sound","stimuli/sounds/phone_sound_A.wav",""
"","","","","","audio-keyboard-response","395","2.0.0","359956","pcrnr1osu7h","mus","giraffe","30","Male","yes","yes","2","2","null","stimuli/sounds/bleep.wav","null","","","","","","",""
"","","","","","html-keyboard-response","396","2.0.0","360476","pcrnr1osu7h","mus","giraffe","30","Male","yes","yes","2","2","404","<div style=""font-size:30px;"">Press space to start the trial</div>"," ","","","","","","",""
"","","","","","html-keyboard-response","397","2.0.0","360727","pcrnr1osu7h","mus","giraffe","30","Male","yes","yes","2","2","null","<div style=""font-size:60px;"">+</div>","null","","","","","","",""
"","","","","","audio-keyboard-response","398","2.0.0","361324","pcrnr1osu7h","mus","giraffe","30","Male","yes","yes","2","2","null","stimuli/sounds/drum_sound_B.wav","null","","","","","","",""
"","","","","","html-keyboard-response","399","2.0.0","362332","pcrnr1osu7h","mus","giraffe","30","Male","yes","yes","2","2","null","","null","","","","","","",""
"","","","","","image-keyboard-response","400","2.0.0","362929","pcrnr1osu7h","mus","giraffe","30","Male","yes","yes","2","2","595","stimuli/pictures/drum_bongo_1.jpg","1","1","","true","yes","sound","stimuli/sounds/drum_sound_B.wav",""
"","","","","","audio-keyboard-response","401","2.0.0","363933","pcrnr1osu7h","mus","giraffe","30","Male","yes","yes","2","2","null","stimuli/sounds/bleep.wav","null","","","","","","",""
"","","","","","html-keyboard-response","402","2.0.0","364631","pcrnr1osu7h","mus","giraffe","30","Male","yes","yes","2","2","584","<div style=""font-size:30px;"">Press space to start the trial</div>"," ","","","","","","",""
"","","","","","html-keyboard-response","403","2.0.0","364895","pcrnr1osu7h","mus","giraffe","30","Male","yes","yes","2","2","null","<div style=""font-size:60px;"">+</div>","null","","","","","","",""
"","","","","","audio-keyboard-response","404","2.0.0","365492","pcrnr1osu7h","mus","giraffe","30","Male","yes","yes","2","2","null","stimuli/sounds/bird_sound_A.wav","null","","","","","","",""
"","","","","","html-keyboard-response","405","2.0.0","366501","pcrnr1osu7h","mus","giraffe","30","Male","yes","yes","2","2","null","","null","","","","","","",""
"","","","","","image-keyboard-response","406","2.0.0","367132","pcrnr1osu7h","mus","giraffe","30","Male","yes","yes","2","2","630","stimuli/pictures/bird_hawk_1.jpg","1","1","","true","yes","sound","stimuli/sounds/bird_sound_A.wav",""
"","","","","","audio-keyboard-response","407","2.0.0","368139","pcrnr1osu7h","mus","giraffe","30","Male","yes","yes","2","2","null","stimuli/sounds/bleep.wav","null","","","","","","",""
"","","","","","html-keyboard-response","408","2.0.0","368997","pcrnr1osu7h","mus","giraffe","30","Male","yes","yes","2","2","753","<div style=""font-size:30px;"">Press space to start the trial</div>"," ","","","","","","",""
"","","","","","html-keyboard-response","409","2.0.0","369254","pcrnr1osu7h","mus","giraffe","30","Male","yes","yes","2","2","null","<div style=""font-size:60px;"">+</div>","null","","","","","","",""
"","","","","","audio-keyboard-response","410","2.0.0","369855","pcrnr1osu7h","mus","giraffe","30","Male","yes","yes","2","2","null","stimuli/sounds/piano_sound_A.wav","null","","","","","","",""
"","","","","","html-keyboard-response","411","2.0.0","370864","pcrnr1osu7h","mus","giraffe","30","Male","yes","yes","2","2","null","","null","","","","","","",""
"","","","","","image-keyboard-response","412","2.0.0","371839","pcrnr1osu7h","mus","giraffe","30","Male","yes","yes","2","2","974","stimuli/pictures/drum_kit_1.jpg","0","0","","true","no","sound","stimuli/sounds/piano_sound_A.wav",""
"","","","","","audio-keyboard-response","413","2.0.0","372850","pcrnr1osu7h","mus","giraffe","30","Male","yes","yes","2","2","null","stimuli/sounds/bleep.wav","null","","","","","","",""
"","","","","","html-keyboard-response","414","2.0.0","373578","pcrnr1osu7h","mus","giraffe","30","Male","yes","yes","2","2","615","<div style=""font-size:30px;"">Press space to start the trial</div>"," ","","","","","","",""
"","","","","","html-keyboard-response","415","2.0.0","373836","pcrnr1osu7h","mus","giraffe","30","Male","yes","yes","2","2","null","<div style=""font-size:60px;"">+</div>","null","","","","","","",""
"","","","","","audio-keyboard-response","416","2.0.0","374436","pcrnr1osu7h","mus","giraffe","30","Male","yes","yes","2","2","null","stimuli/sounds/phone_label_B.wav","null","","","","","","",""
"","","","","","html-keyboard-response","417","2.0.0","375437","pcrnr1osu7h","mus","giraffe","30","Male","yes","yes","2","2","null","","null","","","","","","",""
"","","","","","image-keyboard-response","418","2.0.0","375943","pcrnr1osu7h","mus","giraffe","30","Male","yes","yes","2","2","505","stimuli/pictures/phone_cell_1.jpg","1","1","","true","yes","sound","stimuli/sounds/phone_label_B.wav",""
"","","","","","audio-keyboard-response","419","2.0.0","376953","pcrnr1osu7h","mus","giraffe","30","Male","yes","yes","2","2","null","stimuli/sounds/bleep.wav","null","","","","","","",""
"","","","","","html-keyboard-response","420","2.0.0","377516","pcrnr1osu7h","mus","giraffe","30","Male","yes","yes","2","2","449","<div style=""font-size:30px;"">Press space to start the trial</div>"," ","","","","","","",""
"","","","","","html-keyboard-response","421","2.0.0","377773","pcrnr1osu7h","mus","giraffe","30","Male","yes","yes","2","2","null","<div style=""font-size:60px;"">+</div>","null","","","","","","",""
"","","","","","audio-keyboard-response","422","2.0.0","378365","pcrnr1osu7h","mus","giraffe","30","Male","yes","yes","2","2","null","stimuli/sounds/bird_sound_B.wav","null","","","","","","",""
"","","","","","html-keyboard-response","423","2.0.0","379378","pcrnr1osu7h","mus","giraffe","30","Male","yes","yes","2","2","null","","null","","","","","","",""
"","","","","","image-keyboard-response","424","2.0.0","380152","pcrnr1osu7h","mus","giraffe","30","Male","yes","yes","2","2","772","stimuli/pictures/bird_song_2.jpg","1","1","","true","yes","sound","stimuli/sounds/bird_sound_B.wav",""
"","","","","","audio-keyboard-response","425","2.0.0","381156","pcrnr1osu7h","mus","giraffe","30","Male","yes","yes","2","2","null","stimuli/sounds/bleep.wav","null","","","","","","",""
"","","","","","html-keyboard-response","426","2.0.0","381725","pcrnr1osu7h","mus","giraffe","30","Male","yes","yes","2","2","452","<div style=""font-size:30px;"">Press space to start the trial</div>"," ","","","","","","",""
"","","","","","html-keyboard-response","427","2.0.0","381984","pcrnr1osu7h","mus","giraffe","30","Male","yes","yes","2","2","null","<div style=""font-size:60px;"">+</div>","null","","","","","","",""
"","","","","","audio-keyboard-response","428","2.0.0","382585","pcrnr1osu7h","mus","giraffe","30","Male","yes","yes","2","2","null","stimuli/sounds/phone_label_A.wav","null","","","","","","",""
"","","","","","html-keyboard-response","429","2.0.0","383604","pcrnr1osu7h","mus","giraffe","30","Male","yes","yes","2","2","null","","null","","","","","","",""
"","","","","","image-keyboard-response","430","2.0.0","384316","pcrnr1osu7h","mus","giraffe","30","Male","yes","yes","2","2","711","stimuli/pictures/drum_kit_1.jpg","0","0","","true","no","sound","stimuli/sounds/phone_label_A.wav",""
"","","","","","audio-keyboard-response","431","2.0.0","385324","pcrnr1osu7h","mus","giraffe","30","Male","yes","yes","2","2","null","stimuli/sounds/bleep.wav","null","","","","","","",""
"","","","","","html-keyboard-response","432","2.0.0","386007","pcrnr1osu7h","mus","giraffe","30","Male","yes","yes","2","2","566","<div style=""font-size:30px;"">Press space to start the trial</div>"," ","","","","","","",""
"","","","","","html-keyboard-response","433","2.0.0","386258","pcrnr1osu7h","mus","giraffe","30","Male","yes","yes","2","2","null","<div style=""font-size:60px;"">+</div>","null","","","","","","",""
"","","","","","audio-keyboard-response","434","2.0.0","386856","pcrnr1osu7h","mus","giraffe","30","Male","yes","yes","2","2","null","stimuli/sounds/phone_sound_A.wav","null","","","","","","",""
"","","","","","html-keyboard-response","435","2.0.0","387875","pcrnr1osu7h","mus","giraffe","30","Male","yes","yes","2","2","null","","null","","","","","","",""
"","","","","","image-keyboard-response","436","2.0.0","388730","pcrnr1osu7h","mus","giraffe","30","Male","yes","yes","2","2","853","stimuli/pictures/phone_rotary_1.jpg","1","1","","true","no","sound","stimuli/sounds/phone_sound_A.wav",""
"","","","","","audio-keyboard-response","437","2.0.0","389743","pcrnr1osu7h","mus","giraffe","30","Male","yes","yes","2","2","null","stimuli/sounds/bleep.wav","null","","","","","","",""
"","","","","","html-keyboard-response","438","2.0.0","390477","pcrnr1osu7h","mus","giraffe","30","Male","yes","yes","2","2","622","<div style=""font-size:30px;"">Press space to start the trial</div>"," ","","","","","","",""
"","","","","","html-keyboard-response","439","2.0.0","390736","pcrnr1osu7h","mus","giraffe","30","Male","yes","yes","2","2","null","<div style=""font-size:60px;"">+</div>","null","","","","","","",""
"","","","","","audio-keyboard-response","440","2.0.0","391346","pcrnr1osu7h","mus","giraffe","30","Male","yes","yes","2","2","null","stimuli/sounds/flute_label_B.wav","null","","","","","","",""
"","","","","","html-keyboard-response","441","2.0.0","392362","pcrnr1osu7h","mus","giraffe","30","Male","yes","yes","2","2","null","","null","","","","","","",""
"","","","","","image-keyboard-response","442","2.0.0","392875","pcrnr1osu7h","mus","giraffe","30","Male","yes","yes","2","2","512","stimuli/pictures/drum_kit_1.jpg","0","0","","true","no","sound","stimuli/sounds/flute_label_B.wav",""
"","","","","","audio-keyboard-response","443","2.0.0","393883","pcrnr1osu7h","mus","giraffe","30","Male","yes","yes","2","2","null","stimuli/sounds/bleep.wav","null","","","","","","",""
"","","","","","html-keyboard-response","444","2.0.0","394475","pcrnr1osu7h","mus","giraffe","30","Male","yes","yes","2","2","479","<div style=""font-size:30px;"">Press space to start the trial</div>"," ","","","","","","",""
"","","","","","html-keyboard-response","445","2.0.0","394734","pcrnr1osu7h","mus","giraffe","30","Male","yes","yes","2","2","null","<div style=""font-size:60px;"">+</div>","null","","","","","","",""
"","","","","","audio-keyboard-response","446","2.0.0","395345","pcrnr1osu7h","mus","giraffe","30","Male","yes","yes","2","2","null","stimuli/sounds/flute_sound_B.wav","null","","","","","","",""
"","","","","","html-keyboard-response","447","2.0.0","396355","pcrnr1osu7h","mus","giraffe","30","Male","yes","yes","2","2","null","","null","","","","","","",""
"","","","","","image-keyboard-response","448","2.0.0","397134","pcrnr1osu7h","mus","giraffe","30","Male","yes","yes","2","2","778","stimuli/pictures/flute_metal_2.jpg","1","1","","true","no","sound","stimuli/sounds/flute_sound_B.wav",""
"","","","","","audio-keyboard-response","449","2.0.0","398147","pcrnr1osu7h","mus","giraffe","30","Male","yes","yes","2","2","null","stimuli/sounds/bleep.wav","null","","","","","","",""
"","","","","","html-keyboard-response","450","2.0.0","398750","pcrnr1osu7h","mus","giraffe","30","Male","yes","yes","2","2","491","<div style=""font-size:30px;"">Press space to start the trial</div>"," ","","","","","","",""
"","","","","","html-keyboard-response","451","2.0.0","399001","pcrnr1osu7h","mus","giraffe","30","Male","yes","yes","2","2","null","<div style=""font-size:60px;"">+</div>","null","","","","","","",""
"","","","","","audio-keyboard-response","452","2.0.0","399603","pcrnr1osu7h","mus","giraffe","30","Male","yes","yes","2","2","null","stimuli/sounds/flute_sound_A.wav","null","","","","","","",""
"","","","","","html-keyboard-response","453","2.0.0","400605","pcrnr1osu7h","mus","giraffe","30","Male","yes","yes","2","2","null","","null","","","","","","",""
"","","","","","image-keyboard-response","454","2.0.0","401351","pcrnr1osu7h","mus","giraffe","30","Male","yes","yes","2","2","745","stimuli/pictures/flute_metal_2.jpg","1","1","","true","yes","sound","stimuli/sounds/flute_sound_A.wav",""
"","","","","","audio-keyboard-response","455","2.0.0","402362","pcrnr1osu7h","mus","giraffe","30","Male","yes","yes","2","2","null","stimuli/sounds/bleep.wav","null","","","","","","",""
"","","","","","html-keyboard-response","456","2.0.0","403041","pcrnr1osu7h","mus","giraffe","30","Male","yes","yes","2","2","574","<div style=""font-size:30px;"">Press space to start the trial</div>"," ","","","","","","",""
"","","","","","html-keyboard-response","457","2.0.0","403303","pcrnr1osu7h","mus","giraffe","30","Male","yes","yes","2","2","null","<div style=""font-size:60px;"">+</div>","null","","","","","","",""
"","","","","","audio-keyboard-response","458","2.0.0","403895","pcrnr1osu7h","mus","giraffe","30","Male","yes","yes","2","2","null","stimuli/sounds/phone_label_B.wav","null","","","","","","",""
"","","","","","html-keyboard-response","459","2.0.0","404906","pcrnr1osu7h","mus","giraffe","30","Male","yes","yes","2","2","null","","null","","","","","","",""
"","","","","","image-keyboard-response","460","2.0.0","405512","pcrnr1osu7h","mus","giraffe","30","Male","yes","yes","2","2","605","stimuli/pictures/flute_metal_1.jpg","0","0","","true","no","sound","stimuli/sounds/phone_label_B.wav",""
"","","","","","audio-keyboard-response","461","2.0.0","406525","pcrnr1osu7h","mus","giraffe","30","Male","yes","yes","2","2","null","stimuli/sounds/bleep.wav","null","","","","","","",""
"","","","","","html-keyboard-response","462","2.0.0","407276","pcrnr1osu7h","mus","giraffe","30","Male","yes","yes","2","2","634","<div style=""font-size:30px;"">Press space to start the trial</div>"," ","","","","","","",""
"","","","","","html-keyboard-response","463","2.0.0","407532","pcrnr1osu7h","mus","giraffe","30","Male","yes","yes","2","2","null","<div style=""font-size:60px;"">+</div>","null","","","","","","",""
"","","","","","audio-keyboard-response","464","2.0.0","408138","pcrnr1osu7h","mus","giraffe","30","Male","yes","yes","2","2","null","stimuli/sounds/flute_sound_A.wav","null","","","","","","",""
"","","","","","html-keyboard-response","465","2.0.0","409151","pcrnr1osu7h","mus","giraffe","30","Male","yes","yes","2","2","null","","null","","","","","","",""
"","","","","","image-keyboard-response","466","2.0.0","409897","pcrnr1osu7h","mus","giraffe","30","Male","yes","yes","2","2","745","stimuli/pictures/flute_wooden_2.jpg","1","1","","true","no","sound","stimuli/sounds/flute_sound_A.wav",""
"","","","","","audio-keyboard-response","467","2.0.0","410902","pcrnr1osu7h","mus","giraffe","30","Male","yes","yes","2","2","null","stimuli/sounds/bleep.wav","null","","","","","","",""
"","","","","","html-keyboard-response","468","2.0.0","411428","pcrnr1osu7h","mus","giraffe","30","Male","yes","yes","2","2","424","<div style=""font-size:30px;"">Press space to start the trial</div>"," ","","","","","","",""
"","","","","","html-keyboard-response","469","2.0.0","411688","pcrnr1osu7h","mus","giraffe","30","Male","yes","yes","2","2","null","<div style=""font-size:60px;"">+</div>","null","","","","","","",""
"","","","","","audio-keyboard-response","470","2.0.0","412287","pcrnr1osu7h","mus","giraffe","30","Male","yes","yes","2","2","null","stimuli/sounds/bird_sound_A.wav","null","","","","","","",""
"","","","","","html-keyboard-response","471","2.0.0","413308","pcrnr1osu7h","mus","giraffe","30","Male","yes","yes","2","2","null","","null","","","","","","",""
"","","","","","image-keyboard-response","472","2.0.0","413919","pcrnr1osu7h","mus","giraffe","30","Male","yes","yes","2","2","610","stimuli/pictures/piano_grand_2.jpg","0","0","","true","no","sound","stimuli/sounds/bird_sound_A.wav",""
"","","","","","audio-keyboard-response","473","2.0.0","414922","pcrnr1osu7h","mus","giraffe","30","Male","yes","yes","2","2","null","stimuli/sounds/bleep.wav","null","","","","","","",""
"","","","","","html-keyboard-response","474","2.0.0","415554","pcrnr1osu7h","mus","giraffe","30","Male","yes","yes","2","2","518","<div style=""font-size:30px;"">Press space to start the trial</div>"," ","","","","","","",""
"","","","","","html-keyboard-response","475","2.0.0","415807","pcrnr1osu7h","mus","giraffe","30","Male","yes","yes","2","2","null","<div style=""font-size:60px;"">+</div>","null","","","","","","",""
"","","","","","audio-keyboard-response","476","2.0.0","416416","pcrnr1osu7h","mus","giraffe","30","Male","yes","yes","2","2","null","stimuli/sounds/piano_label_B.wav","null","","","","","","",""
"","","","","","html-keyboard-response","477","2.0.0","417418","pcrnr1osu7h","mus","giraffe","30","Male","yes","yes","2","2","null","","null","","","","","","",""
"","","","","","image-keyboard-response","478","2.0.0","418470","pcrnr1osu7h","mus","giraffe","30","Male","yes","yes","2","2","1051","stimuli/pictures/piano_grand_1.jpg","1","1","","true","yes","sound","stimuli/sounds/piano_label_B.wav",""
"","","","","","audio-keyboard-response","479","2.0.0","419486","pcrnr1osu7h","mus","giraffe","30","Male","yes","yes","2","2","null","stimuli/sounds/bleep.wav","null","","","","","","",""
"","","","","","html-keyboard-response","480","2.0.0","419960","pcrnr1osu7h","mus","giraffe","30","Male","yes","yes","2","2","356","<div style=""font-size:30px;"">Press space to start the trial</div>"," ","","","","","","",""
"","","","","","html-keyboard-response","481","2.0.0","420212","pcrnr1osu7h","mus","giraffe","30","Male","yes","yes","2","2","null","<div style=""font-size:60px;"">+</div>","null","","","","","","",""
"","","","","","audio-keyboard-response","482","2.0.0","420807","pcrnr1osu7h","mus","giraffe","30","Male","yes","yes","2","2","null","stimuli/sounds/bird_label_A.wav","null","","","","","","",""
"","","","","","html-keyboard-response","483","2.0.0","421816","pcrnr1osu7h","mus","giraffe","30","Male","yes","yes","2","2","null","","null","","","","","","",""
"","","","","","image-keyboard-response","484","2.0.0","422368","pcrnr1osu7h","mus","giraffe","30","Male","yes","yes","2","2","550","stimuli/pictures/bird_hawk_1.jpg","1","1","","true","yes","sound","stimuli/sounds/bird_label_A.wav",""
"","","","","","audio-keyboard-response","485","2.0.0","423373","pcrnr1osu7h","mus","giraffe","30","Male","yes","yes","2","2","null","stimuli/sounds/bleep.wav","null","","","","","","",""
"","","","","","html-keyboard-response","486","2.0.0","423882","pcrnr1osu7h","mus","giraffe","30","Male","yes","yes","2","2","406","<div style=""font-size:30px;"">Press space to start the trial</div>"," ","","","","","","",""
"","","","","","html-keyboard-response","487","2.0.0","424140","pcrnr1osu7h","mus","giraffe","30","Male","yes","yes","2","2","null","<div style=""font-size:60px;"">+</div>","null","","","","","","",""
