"success","timeout","failed_images","failed_audio","failed_video","trial_type","trial_index","plugin_version","time_elapsed","random_id","condition","participant","age","gender_id","mus_exp","inst_exp","years_exp","mus_listening","rt","stimulus","response","correct_response","practice","correct","congruent","sound_type","audio","question_order"
"true","false","[]","[]","[]","preload","0","2.0.0","421","pd782474r7n","ono","swan","22","female","no","no","0","2","","","","","","","","","",""
"","","","","","html-keyboard-response","1","2.0.0","1195","pd782474r7n","ono","swan","22","female","no","no","0","2","774","Welcome to the experiment! Press any key to begin."," ","","","","","","",""
"true","","","","","fullscreen","2","null","4040","pd782474r7n","ono","swan","22","female","no","no","0","2","1840","","","","","","","","",""
"","","","","","survey-text","3","2.0.0","6506","pd782474r7n","ono","swan","22","female","no","no","0","2","2462","","{""participant_id"":""swan""}","","","","","","",""
"","","","","","html-keyboard-response","4","2.0.0","17762","pd782474r7n","ono","swan","22","female","no","no","0","2","11254","
    <p> Please use headphones for the duration of the study.</p>
    <p> Within each trial, you will hear a sound and then be presented with an image in the center of your screen.</p>
    <p>Press the <b>'1'</b> key if what you hear <u>matches</u> what you see.</p>
    <p>Press the <b>'0'</b> key if what you hear <u>does not match</u> what you see.</p>
    <p>Try to respond as quickly and accurately as you can.</p>
    <p> Press any key to begin.</p>
    ","1","","","","","","",""
"","","","","","html-keyboard-response","5","2.0.0","19338","pd782474r7n","ono","swan","22","female","no","no","0","2","1576","
    <div style=""font-size:28px;"">
      <p>You will now complete 4 short practice trials.</p>
      <p>This is just to help you get familiar with the task.</p>
      <p>Press any key to begin.</p>
    </div>
  ","1","","","","","","",""
"","","","","","html-keyboard-response","6","2.0.0","19840","pd782474r7n","ono","swan","22","female","no","no","0","2","null","<div style=""font-size:60px;"">+</div>","null","","","","","","",""
"","","","","","audio-keyboard-response","7","2.0.0","20481","pd782474r7n","ono","swan","22","female","no","no","0","2","null","stimuli/sounds/guitar_label_A.wav","null","","","","","","",""
"","","","","","image-keyboard-response","8","2.0.0","21227","pd782474r7n","ono","swan","22","female","no","no","0","2","743","stimuli/pictures/guitar_acoustic_1.jpg","1","1","true","true","","","",""
"","","","","","audio-keyboard-response","9","2.0.0","22030","pd782474r7n","ono","swan","22","female","no","no","0","2","null","stimuli/sounds/bleep.wav","null","","","","","","",""
"","","","","","html-keyboard-response","10","2.0.0","22732","pd782474r7n","ono","swan","22","female","no","no","0","2","null","<p style='color:green; font-size:30px;'>Correct!</p>","null","","","","","","",""
"","","","","","html-keyboard-response","11","2.0.0","23234","pd782474r7n","ono","swan","22","female","no","no","0","2","null","<div style=""font-size:60px;"">+</div>","null","","","","","","",""
"","","","","","audio-keyboard-response","12","2.0.0","23836","pd782474r7n","ono","swan","22","female","no","no","0","2","null","stimuli/sounds/guitar_sound_B.wav","null","","","","","","",""
"","","","","","image-keyboard-response","13","2.0.0","24474","pd782474r7n","ono","swan","22","female","no","no","0","2","637","stimuli/pictures/guitar_acoustic_2.jpg","1","1","true","true","","","",""
"","","","","","audio-keyboard-response","14","2.0.0","25277","pd782474r7n","ono","swan","22","female","no","no","0","2","null","stimuli/sounds/bleep.wav","null","","","","","","",""
"","","","","","html-keyboard-response","15","2.0.0","25980","pd782474r7n","ono","swan","22","female","no","no","0","2","null","<p style='color:green; font-size:30px;'>Correct!</p>","null","","","","","","",""
"","","","","","html-keyboard-response","16","2.0.0","26482","pd782474r7n","ono","swan","22","female","no","no","0","2","null","<div style=""font-size:60px;"">+</div>","null","","","","","","",""
"","","","","","audio-keyboard-response","17","2.0.0","27087","pd782474r7n","ono","swan","22","female","no","no","0","2","null","stimuli/sounds/flute_sound_A.wav","null","","","","","","",""
"","","","","","image-keyboard-response","18","2.0.0","28332","pd782474r7n","ono","swan","22","female","no","no","0","2","1244","stimuli/pictures/guitar_electric_1.jpg","0","0","true","true","","","",""
"","","","","","audio-keyboard-response","19","2.0.0","29135","pd782474r7n","ono","swan","22","female","no","no","0","2","null","stimuli/sounds/bleep.wav","null","","","","","","",""
"","","","","","html-keyboard-response","20","2.0.0","29837","pd782474r7n","ono","swan","22","female","no","no","0","2","null","<p style='color:green; font-size:30px;'>Correct!</p>","null","","","","","","",""
"","","","","","html-keyboard-response","21","2.0.0","30339","pd782474r7n","ono","swan","22","female","no","no","0","2","null","<div style=""font-size:60px;"">+</div>","null","","","","","","",""
"","","","","","audio-keyboard-response","22","2.0.0","30941","pd782474r7n","ono","swan","22","female","no","no","0","2","null","stimuli/sounds/guitar_sound_A.wav","null","","","","","","",""
"","","","","","image-keyboard-response","23","2.0.0","32068","pd782474r7n","ono","swan","22","female","no","no","0","2","1125","stimuli/pictures/guitar_acoustic_1.jpg","0","1","true","false","","","",""
"","","","","","audio-keyboard-response","24","2.0.0","32871","pd782474r7n","ono","swan","22","female","no","no","0","2","null","stimuli/sounds/buzz.wav","null","","","","","","",""
"","","","","","html-keyboard-response","25","2.0.0","33574","pd782474r7n","ono","swan","22","female","no","no","0","2","null","<p style='color:red; font-size:30px;'>Incorrect</p>","null","","","","","","",""
"","","","","","html-keyboard-response","26","2.0.0","35308","pd782474r7n","ono","swan","22","female","no","no","0","2","1733","<p>Practice complete. Press any key to begin the real experiment.</p>","w","","","","","","",""
"","","","","","html-keyboard-response","27","2.0.0","40095","pd782474r7n","ono","swan","22","female","no","no","0","2","4786","<div style=""font-size:30px;"">Press space to start the trial</div>"," ","","","","","","",""
"","","","","","html-keyboard-response","28","2.0.0","40348","pd782474r7n","ono","swan","22","female","no","no","0","2","null","<div style=""font-size:60px;"">+</div>","null","","","","","","",""
"","","","","","audio-keyboard-response","29","2.0.0","40955","pd782474r7n","ono","swan","22","female","no","no","0","2","null","stimuli/sounds/hiccup_label_B.wav","null","","","","","","",""
"","","","","","html-keyboard-response","30","2.0.0","41957","pd782474r7n","ono","swan","22","female","no","no","0","2","null","","null","","","","","","",""
"","","","","","image-keyboard-response","31","2.0.0","43322","pd782474r7n","ono","swan","22","female","no","no","0","2","1362","stimuli/pictures/dog_rott_1.jpg","0","0","","true","no","sound","stimuli/sounds/hiccup_label_B.wav",""
"","","","","","audio-keyboard-response","32","2.0.0","44324","pd782474r7n","ono","swan","22","female","no","no","0","2","null","stimuli/sounds/bleep.wav","null","","","","","","",""
"","","","","","html-keyboard-response","33","2.0.0","46200","pd782474r7n","ono","swan","22","female","no","no","0","2","1774","<div style=""font-size:30px;"">Press space to start the trial</div>"," ","","","","","","",""
"","","","","","html-keyboard-response","34","2.0.0","46453","pd782474r7n","ono","swan","22","female","no","no","0","2","null","<div style=""font-size:60px;"">+</div>","null","","","","","","",""
"","","","","","audio-keyboard-response","35","2.0.0","47038","pd782474r7n","ono","swan","22","female","no","no","0","2","null","stimuli/sounds/drop_sound_A.wav","null","","","","","","",""
"","","","","","html-keyboard-response","36","2.0.0","48041","pd782474r7n","ono","swan","22","female","no","no","0","2","null","","null","","","","","","",""
"","","","","","image-keyboard-response","37","2.0.0","48629","pd782474r7n","ono","swan","22","female","no","no","0","2","587","stimuli/pictures/drop_multi_1.jpg","1","1","","true","no","sound","stimuli/sounds/drop_sound_A.wav",""
"","","","","","audio-keyboard-response","38","2.0.0","49631","pd782474r7n","ono","swan","22","female","no","no","0","2","null","stimuli/sounds/bleep.wav","null","","","","","","",""
"","","","","","html-keyboard-response","39","2.0.0","50636","pd782474r7n","ono","swan","22","female","no","no","0","2","903","<div style=""font-size:30px;"">Press space to start the trial</div>"," ","","","","","","",""
"","","","","","html-keyboard-response","40","2.0.0","50888","pd782474r7n","ono","swan","22","female","no","no","0","2","null","<div style=""font-size:60px;"">+</div>","null","","","","","","",""
"","","","","","audio-keyboard-response","41","2.0.0","51555","pd782474r7n","ono","swan","22","female","no","no","0","2","null","stimuli/sounds/cough_sound_A.wav","null","","","","","","",""
"","","","","","html-keyboard-response","42","2.0.0","52556","pd782474r7n","ono","swan","22","female","no","no","0","2","null","","null","","","","","","",""
"","","","","","image-keyboard-response","43","2.0.0","53204","pd782474r7n","ono","swan","22","female","no","no","0","2","646","stimuli/pictures/cough_wom_2.jpg","1","1","","true","yes","sound","stimuli/sounds/cough_sound_A.wav",""
"","","","","","audio-keyboard-response","44","2.0.0","54207","pd782474r7n","ono","swan","22","female","no","no","0","2","null","stimuli/sounds/bleep.wav","null","","","","","","",""
"","","","","","html-keyboard-response","45","2.0.0","55054","pd782474r7n","ono","swan","22","female","no","no","0","2","745","<div style=""font-size:30px;"">Press space to start the trial</div>"," ","","","","","","",""
"","","","","","html-keyboard-response","46","2.0.0","55307","pd782474r7n","ono","swan","22","female","no","no","0","2","null","<div style=""font-size:60px;"">+</div>","null","","","","","","",""
"","","","","","audio-keyboard-response","47","2.0.0","55908","pd782474r7n","ono","swan","22","female","no","no","0","2","null","stimuli/sounds/hiccup_sound_A.wav","null","","","","","","",""
"","","","","","html-keyboard-response","48","2.0.0","56910","pd782474r7n","ono","swan","22","female","no","no","0","2","null","","null","","","","","","",""
"","","","","","image-keyboard-response","49","2.0.0","58378","pd782474r7n","ono","swan","22","female","no","no","0","2","1466","stimuli/pictures/hiccup_man_2.jpg","1","1","","true","no","sound","stimuli/sounds/hiccup_sound_A.wav",""
"","","","","","audio-keyboard-response","50","2.0.0","59381","pd782474r7n","ono","swan","22","female","no","no","0","2","null","stimuli/sounds/bleep.wav","null","","","","","","",""
"","","","","","html-keyboard-response","51","2.0.0","60875","pd782474r7n","ono","swan","22","female","no","no","0","2","1392","<div style=""font-size:30px;"">Press space to start the trial</div>"," ","","","","","","",""
"","","","","","html-keyboard-response","52","2.0.0","61127","pd782474r7n","ono","swan","22","female","no","no","0","2","null","<div style=""font-size:60px;"">+</div>","null","","","","","","",""
"","","","","","audio-keyboard-response","53","2.0.0","61731","pd782474r7n","ono","swan","22","female","no","no","0","2","null","stimuli/sounds/dog_label_A.wav","null","","","","","","",""
"","","","","","html-keyboard-response","54","2.0.0","62733","pd782474r7n","ono","swan","22","female","no","no","0","2","null","","null","","","","","","",""
"","","","","","image-keyboard-response","55","2.0.0","63964","pd782474r7n","ono","swan","22","female","no","no","0","2","1228","stimuli/pictures/drop_single_2.jpg","0","0","","true","no","sound","stimuli/sounds/dog_label_A.wav",""
"","","","","","audio-keyboard-response","56","2.0.0","64967","pd782474r7n","ono","swan","22","female","no","no","0","2","null","stimuli/sounds/bleep.wav","null","","","","","","",""
"","","","","","html-keyboard-response","57","2.0.0","65644","pd782474r7n","ono","swan","22","female","no","no","0","2","575","<div style=""font-size:30px;"">Press space to start the trial</div>"," ","","","","","","",""
"","","","","","html-keyboard-response","58","2.0.0","65896","pd782474r7n","ono","swan","22","female","no","no","0","2","null","<div style=""font-size:60px;"">+</div>","null","","","","","","",""
"","","","","","audio-keyboard-response","59","2.0.0","66497","pd782474r7n","ono","swan","22","female","no","no","0","2","null","stimuli/sounds/hiccup_sound_A.wav","null","","","","","","",""
"","","","","","html-keyboard-response","60","2.0.0","67499","pd782474r7n","ono","swan","22","female","no","no","0","2","null","","null","","","","","","",""
"","","","","","image-keyboard-response","61","2.0.0","68184","pd782474r7n","ono","swan","22","female","no","no","0","2","683","stimuli/pictures/motor_dirt_2.jpg","0","0","","true","no","sound","stimuli/sounds/hiccup_sound_A.wav",""
"","","","","","audio-keyboard-response","62","2.0.0","69187","pd782474r7n","ono","swan","22","female","no","no","0","2","null","stimuli/sounds/bleep.wav","null","","","","","","",""
"","","","","","html-keyboard-response","63","2.0.0","69801","pd782474r7n","ono","swan","22","female","no","no","0","2","512","<div style=""font-size:30px;"">Press space to start the trial</div>"," ","","","","","","",""
"","","","","","html-keyboard-response","64","2.0.0","70053","pd782474r7n","ono","swan","22","female","no","no","0","2","null","<div style=""font-size:60px;"">+</div>","null","","","","","","",""
"","","","","","audio-keyboard-response","65","2.0.0","70653","pd782474r7n","ono","swan","22","female","no","no","0","2","null","stimuli/sounds/motor_label_B.wav","null","","","","","","",""
"","","","","","html-keyboard-response","66","2.0.0","71655","pd782474r7n","ono","swan","22","female","no","no","0","2","null","","null","","","","","","",""
"","","","","","image-keyboard-response","67","2.0.0","72302","pd782474r7n","ono","swan","22","female","no","no","0","2","646","stimuli/pictures/hiccup_man_2.jpg","0","0","","true","no","sound","stimuli/sounds/motor_label_B.wav",""
"","","","","","audio-keyboard-response","68","2.0.0","73305","pd782474r7n","ono","swan","22","female","no","no","0","2","null","stimuli/sounds/bleep.wav","null","","","","","","",""
"","","","","","html-keyboard-response","69","2.0.0","74356","pd782474r7n","ono","swan","22","female","no","no","0","2","950","<div style=""font-size:30px;"">Press space to start the trial</div>"," ","","","","","","",""
"","","","","","html-keyboard-response","70","2.0.0","74608","pd782474r7n","ono","swan","22","female","no","no","0","2","null","<div style=""font-size:60px;"">+</div>","null","","","","","","",""
"","","","","","audio-keyboard-response","71","2.0.0","75210","pd782474r7n","ono","swan","22","female","no","no","0","2","null","stimuli/sounds/motor_label_A.wav","null","","","","","","",""
"","","","","","html-keyboard-response","72","2.0.0","76212","pd782474r7n","ono","swan","22","female","no","no","0","2","null","","null","","","","","","",""
"","","","","","image-keyboard-response","73","2.0.0","77153","pd782474r7n","ono","swan","22","female","no","no","0","2","938","stimuli/pictures/motor_harley_1.jpg","1","1","","true","yes","sound","stimuli/sounds/motor_label_A.wav",""
"","","","","","audio-keyboard-response","74","2.0.0","78155","pd782474r7n","ono","swan","22","female","no","no","0","2","null","stimuli/sounds/bleep.wav","null","","","","","","",""
"","","","","","html-keyboard-response","75","2.0.0","78832","pd782474r7n","ono","swan","22","female","no","no","0","2","574","<div style=""font-size:30px;"">Press space to start the trial</div>"," ","","","","","","",""
"","","","","","html-keyboard-response","76","2.0.0","79084","pd782474r7n","ono","swan","22","female","no","no","0","2","null","<div style=""font-size:60px;"">+</div>","null","","","","","","",""
"","","","","","audio-keyboard-response","77","2.0.0","79622","pd782474r7n","ono","swan","22","female","no","no","0","2","null","stimuli/sounds/hiccup_label_A.wav","null","","","","","","",""
"","","","","","html-keyboard-response","78","2.0.0","80624","pd782474r7n","ono","swan","22","female","no","no","0","2","null","","null","","","","","","",""
"","","","","","image-keyboard-response","79","2.0.0","82313","pd782474r7n","ono","swan","22","female","no","no","0","2","1687","stimuli/pictures/hiccup_man_2.jpg","1","1","","true","yes","sound","stimuli/sounds/hiccup_label_A.wav",""
"","","","","","audio-keyboard-response","80","2.0.0","83315","pd782474r7n","ono","swan","22","female","no","no","0","2","null","stimuli/sounds/bleep.wav","null","","","","","","",""
"","","","","","html-keyboard-response","81","2.0.0","84402","pd782474r7n","ono","swan","22","female","no","no","0","2","984","<div style=""font-size:30px;"">Press space to start the trial</div>"," ","","","","","","",""
"","","","","","html-keyboard-response","82","2.0.0","84653","pd782474r7n","ono","swan","22","female","no","no","0","2","null","<div style=""font-size:60px;"">+</div>","null","","","","","","",""
"","","","","","audio-keyboard-response","83","2.0.0","85253","pd782474r7n","ono","swan","22","female","no","no","0","2","null","stimuli/sounds/dog_sound_B.wav","null","","","","","","",""
"","","","","","html-keyboard-response","84","2.0.0","86255","pd782474r7n","ono","swan","22","female","no","no","0","2","null","","null","","","","","","",""
"","","","","","image-keyboard-response","85","2.0.0","87714","pd782474r7n","ono","swan","22","female","no","no","0","2","1457","stimuli/pictures/motor_dirt_1.jpg","0","0","","true","no","sound","stimuli/sounds/dog_sound_B.wav",""
"","","","","","audio-keyboard-response","86","2.0.0","88716","pd782474r7n","ono","swan","22","female","no","no","0","2","null","stimuli/sounds/bleep.wav","null","","","","","","",""
"","","","","","html-keyboard-response","87","2.0.0","89354","pd782474r7n","ono","swan","22","female","no","no","0","2","535","<div style=""font-size:30px;"">Press space to start the trial</div>"," ","","","","","","",""
"","","","","","html-keyboard-response","88","2.0.0","89606","pd782474r7n","ono","swan","22","female","no","no","0","2","null","<div style=""font-size:60px;"">+</div>","null","","","","","","",""
"","","","","","audio-keyboard-response","89","2.0.0","90193","pd782474r7n","ono","swan","22","female","no","no","0","2","null","stimuli/sounds/drop_sound_A.wav","null","","","","","","",""
"","","","","","html-keyboard-response","90","2.0.0","91194","pd782474r7n","ono","swan","22","female","no","no","0","2","null","","null","","","","","","",""
"","","","","","image-keyboard-response","91","2.0.0","91873","pd782474r7n","ono","swan","22","female","no","no","0","2","676","stimuli/pictures/drop_multi_2.jpg","1","1","","true","no","sound","stimuli/sounds/drop_sound_A.wav",""
"","","","","","audio-keyboard-response","92","2.0.0","92875","pd782474r7n","ono","swan","22","female","no","no","0","2","null","stimuli/sounds/bleep.wav","null","","","","","","",""
"","","","","","html-keyboard-response","93","2.0.0","93575","pd782474r7n","ono","swan","22","female","no","no","0","2","598","<div style=""font-size:30px;"">Press space to start the trial</div>"," ","","","","","","",""
"","","","","","html-keyboard-response","94","2.0.0","93828","pd782474r7n","ono","swan","22","female","no","no","0","2","null","<div style=""font-size:60px;"">+</div>","null","","","","","","",""
"","","","","","audio-keyboard-response","95","2.0.0","94430","pd782474r7n","ono","swan","22","female","no","no","0","2","null","stimuli/sounds/dog_label_A.wav","null","","","","","","",""
"","","","","","html-keyboard-response","96","2.0.0","95433","pd782474r7n","ono","swan","22","female","no","no","0","2","null","","null","","","","","","",""
"","","","","","image-keyboard-response","97","2.0.0","95998","pd782474r7n","ono","swan","22","female","no","no","0","2","563","stimuli/pictures/dog_rott_1.jpg","1","1","","true","yes","sound","stimuli/sounds/dog_label_A.wav",""
"","","","","","audio-keyboard-response","98","2.0.0","97000","pd782474r7n","ono","swan","22","female","no","no","0","2","null","stimuli/sounds/bleep.wav","null","","","","","","",""
"","","","","","html-keyboard-response","99","2.0.0","97802","pd782474r7n","ono","swan","22","female","no","no","0","2","700","<div style=""font-size:30px;"">Press space to start the trial</div>"," ","","","","","","",""
"","","","","","html-keyboard-response","100","2.0.0","98055","pd782474r7n","ono","swan","22","female","no","no","0","2","null","<div style=""font-size:60px;"">+</div>","null","","","","","","",""
"","","","","","audio-keyboard-response","101","2.0.0","98685","pd782474r7n","ono","swan","22","female","no","no","0","2","null","stimuli/sounds/cough_label_A.wav","null","","","","","","",""
"","","","","","html-keyboard-response","102","2.0.0","99688","pd782474r7n","ono","swan","22","female","no","no","0","2","null","","null","","","","","","",""
"","","","","","image-keyboard-response","103","2.0.0","100342","pd782474r7n","ono","swan","22","female","no","no","0","2","653","stimuli/pictures/motor_harley_2.jpg","0","0","","true","no","sound","stimuli/sounds/cough_label_A.wav",""
"","","","","","audio-keyboard-response","104","2.0.0","101345","pd782474r7n","ono","swan","22","female","no","no","0","2","null","stimuli/sounds/bleep.wav","null","","","","","","",""
"","","","","","html-keyboard-response","105","2.0.0","102073","pd782474r7n","ono","swan","22","female","no","no","0","2","626","<div style=""font-size:30px;"">Press space to start the trial</div>"," ","","","","","","",""
"","","","","","html-keyboard-response","106","2.0.0","102326","pd782474r7n","ono","swan","22","female","no","no","0","2","null","<div style=""font-size:60px;"">+</div>","null","","","","","","",""
"","","","","","audio-keyboard-response","107","2.0.0","102929","pd782474r7n","ono","swan","22","female","no","no","0","2","null","stimuli/sounds/drop_sound_B.wav","null","","","","","","",""
"","","","","","html-keyboard-response","108","2.0.0","103931","pd782474r7n","ono","swan","22","female","no","no","0","2","null","","null","","","","","","",""
"","","","","","image-keyboard-response","109","2.0.0","104450","pd782474r7n","ono","swan","22","female","no","no","0","2","518","stimuli/pictures/dog_rott_1.jpg","0","0","","true","no","sound","stimuli/sounds/drop_sound_B.wav",""
"","","","","","audio-keyboard-response","110","2.0.0","105453","pd782474r7n","ono","swan","22","female","no","no","0","2","null","stimuli/sounds/bleep.wav","null","","","","","","",""
"","","","","","html-keyboard-response","111","2.0.0","106166","pd782474r7n","ono","swan","22","female","no","no","0","2","611","<div style=""font-size:30px;"">Press space to start the trial</div>"," ","","","","","","",""
"","","","","","html-keyboard-response","112","2.0.0","106418","pd782474r7n","ono","swan","22","female","no","no","0","2","null","<div style=""font-size:60px;"">+</div>","null","","","","","","",""
"","","","","","audio-keyboard-response","113","2.0.0","107027","pd782474r7n","ono","swan","22","female","no","no","0","2","null","stimuli/sounds/hiccup_label_B.wav","null","","","","","","",""
"","","","","","html-keyboard-response","114","2.0.0","108029","pd782474r7n","ono","swan","22","female","no","no","0","2","null","","null","","","","","","",""
"","","","","","image-keyboard-response","115","2.0.0","109713","pd782474r7n","ono","swan","22","female","no","no","0","2","1683","stimuli/pictures/hiccup_man_1.jpg","1","1","","true","yes","sound","stimuli/sounds/hiccup_label_B.wav",""
"","","","","","audio-keyboard-response","116","2.0.0","110716","pd782474r7n","ono","swan","22","female","no","no","0","2","null","stimuli/sounds/bleep.wav","null","","","","","","",""
"","","","","","html-keyboard-response","117","2.0.0","111571","pd782474r7n","ono","swan","22","female","no","no","0","2","753","<div style=""font-size:30px;"">Press space to start the trial</div>"," ","","","","","","",""
"","","","","","html-keyboard-response","118","2.0.0","111823","pd782474r7n","ono","swan","22","female","no","no","0","2","null","<div style=""font-size:60px;"">+</div>","null","","","","","","",""
"","","","","","audio-keyboard-response","119","2.0.0","112426","pd782474r7n","ono","swan","22","female","no","no","0","2","null","stimuli/sounds/motor_label_B.wav","null","","","","","","",""
"","","","","","html-keyboard-response","120","2.0.0","113428","pd782474r7n","ono","swan","22","female","no","no","0","2","null","","null","","","","","","",""
"","","","","","image-keyboard-response","121","2.0.0","114214","pd782474r7n","ono","swan","22","female","no","no","0","2","785","stimuli/pictures/hiccup_man_1.jpg","0","0","","true","no","sound","stimuli/sounds/motor_label_B.wav",""
"","","","","","audio-keyboard-response","122","2.0.0","115216","pd782474r7n","ono","swan","22","female","no","no","0","2","null","stimuli/sounds/bleep.wav","null","","","","","","",""
"","","","","","html-keyboard-response","123","2.0.0","116744","pd782474r7n","ono","swan","22","female","no","no","0","2","1426","<div style=""font-size:30px;"">Press space to start the trial</div>"," ","","","","","","",""
"","","","","","html-keyboard-response","124","2.0.0","116997","pd782474r7n","ono","swan","22","female","no","no","0","2","null","<div style=""font-size:60px;"">+</div>","null","","","","","","",""
"","","","","","audio-keyboard-response","125","2.0.0","117598","pd782474r7n","ono","swan","22","female","no","no","0","2","null","stimuli/sounds/dog_sound_A.wav","null","","","","","","",""
"","","","","","html-keyboard-response","126","2.0.0","118600","pd782474r7n","ono","swan","22","female","no","no","0","2","null","","null","","","","","","",""
"","","","","","image-keyboard-response","127","2.0.0","119473","pd782474r7n","ono","swan","22","female","no","no","0","2","871","stimuli/pictures/hiccup_wom_2.jpg","0","0","","true","no","sound","stimuli/sounds/dog_sound_A.wav",""
"","","","","","audio-keyboard-response","128","2.0.0","120475","pd782474r7n","ono","swan","22","female","no","no","0","2","null","stimuli/sounds/bleep.wav","null","","","","","","",""
"","","","","","html-keyboard-response","129","2.0.0","121558","pd782474r7n","ono","swan","22","female","no","no","0","2","981","<div style=""font-size:30px;"">Press space to start the trial</div>"," ","","","","","","",""
"","","","","","html-keyboard-response","130","2.0.0","121810","pd782474r7n","ono","swan","22","female","no","no","0","2","null","<div style=""font-size:60px;"">+</div>","null","","","","","","",""
"","","","","","audio-keyboard-response","131","2.0.0","122410","pd782474r7n","ono","swan","22","female","no","no","0","2","null","stimuli/sounds/dog_sound_B.wav","null","","","","","","",""
"","","","","","html-keyboard-response","132","2.0.0","123412","pd782474r7n","ono","swan","22","female","no","no","0","2","null","","null","","","","","","",""
"","","","","","image-keyboard-response","133","2.0.0","124419","pd782474r7n","ono","swan","22","female","no","no","0","2","1005","stimuli/pictures/dog_rott_2.jpg","1","1","","true","no","sound","stimuli/sounds/dog_sound_B.wav",""
"","","","","","audio-keyboard-response","134","2.0.0","125420","pd782474r7n","ono","swan","22","female","no","no","0","2","null","stimuli/sounds/bleep.wav","null","","","","","","",""
"","","","","","html-keyboard-response","135","2.0.0","126107","pd782474r7n","ono","swan","22","female","no","no","0","2","585","<div style=""font-size:30px;"">Press space to start the trial</div>"," ","","","","","","",""
"","","","","","html-keyboard-response","136","2.0.0","126359","pd782474r7n","ono","swan","22","female","no","no","0","2","null","<div style=""font-size:60px;"">+</div>","null","","","","","","",""
"","","","","","audio-keyboard-response","137","2.0.0","126961","pd782474r7n","ono","swan","22","female","no","no","0","2","null","stimuli/sounds/motor_label_A.wav","null","","","","","","",""
"","","","","","html-keyboard-response","138","2.0.0","127963","pd782474r7n","ono","swan","22","female","no","no","0","2","null","","null","","","","","","",""
"","","","","","image-keyboard-response","139","2.0.0","128742","pd782474r7n","ono","swan","22","female","no","no","0","2","777","stimuli/pictures/motor_dirt_1.jpg","1","1","","true","yes","sound","stimuli/sounds/motor_label_A.wav",""
"","","","","","audio-keyboard-response","140","2.0.0","129745","pd782474r7n","ono","swan","22","female","no","no","0","2","null","stimuli/sounds/bleep.wav","null","","","","","","",""
"","","","","","html-keyboard-response","141","2.0.0","130632","pd782474r7n","ono","swan","22","female","no","no","0","2","786","<div style=""font-size:30px;"">Press space to start the trial</div>"," ","","","","","","",""
"","","","","","html-keyboard-response","142","2.0.0","130884","pd782474r7n","ono","swan","22","female","no","no","0","2","null","<div style=""font-size:60px;"">+</div>","null","","","","","","",""
"","","","","","audio-keyboard-response","143","2.0.0","131484","pd782474r7n","ono","swan","22","female","no","no","0","2","null","stimuli/sounds/hiccup_sound_A.wav","null","","","","","","",""
"","","","","","html-keyboard-response","144","2.0.0","132486","pd782474r7n","ono","swan","22","female","no","no","0","2","null","","null","","","","","","",""
"","","","","","image-keyboard-response","145","2.0.0","133118","pd782474r7n","ono","swan","22","female","no","no","0","2","630","stimuli/pictures/hiccup_wom_2.jpg","1","1","","true","yes","sound","stimuli/sounds/hiccup_sound_A.wav",""
"","","","","","audio-keyboard-response","146","2.0.0","134120","pd782474r7n","ono","swan","22","female","no","no","0","2","null","stimuli/sounds/bleep.wav","null","","","","","","",""
"","","","","","html-keyboard-response","147","2.0.0","136016","pd782474r7n","ono","swan","22","female","no","no","0","2","1794","<p>You have completed a block. Press R when you are ready to continue</p>","r","","","","","","",""
"","","","","","html-keyboard-response","148","2.0.0","137009","pd782474r7n","ono","swan","22","female","no","no","0","2","992","<div style=""font-size:30px;"">Press space to start the trial</div>"," ","","","","","","",""
"","","","","","html-keyboard-response","149","2.0.0","137261","pd782474r7n","ono","swan","22","female","no","no","0","2","null","<div style=""font-size:60px;"">+</div>","null","","","","","","",""
"","","","","","audio-keyboard-response","150","2.0.0","137863","pd782474r7n","ono","swan","22","female","no","no","0","2","null","stimuli/sounds/dog_sound_A.wav","null","","","","","","",""
"","","","","","html-keyboard-response","151","2.0.0","138865","pd782474r7n","ono","swan","22","female","no","no","0","2","null","","null","","","","","","",""
"","","","","","image-keyboard-response","152","2.0.0","139447","pd782474r7n","ono","swan","22","female","no","no","0","2","580","stimuli/pictures/hiccup_wom_1.jpg","0","0","","true","no","sound","stimuli/sounds/dog_sound_A.wav",""
"","","","","","audio-keyboard-response","153","2.0.0","140450","pd782474r7n","ono","swan","22","female","no","no","0","2","null","stimuli/sounds/bleep.wav","null","","","","","","",""
"","","","","","html-keyboard-response","154","2.0.0","141096","pd782474r7n","ono","swan","22","female","no","no","0","2","544","<div style=""font-size:30px;"">Press space to start the trial</div>"," ","","","","","","",""
"","","","","","html-keyboard-response","155","2.0.0","141349","pd782474r7n","ono","swan","22","female","no","no","0","2","null","<div style=""font-size:60px;"">+</div>","null","","","","","","",""
"","","","","","audio-keyboard-response","156","2.0.0","141950","pd782474r7n","ono","swan","22","female","no","no","0","2","null","stimuli/sounds/dog_sound_A.wav","null","","","","","","",""
"","","","","","html-keyboard-response","157","2.0.0","142952","pd782474r7n","ono","swan","22","female","no","no","0","2","null","","null","","","","","","",""
"","","","","","image-keyboard-response","158","2.0.0","143448","pd782474r7n","ono","swan","22","female","no","no","0","2","495","stimuli/pictures/hiccup_man_1.jpg","0","0","","true","no","sound","stimuli/sounds/dog_sound_A.wav",""
"","","","","","audio-keyboard-response","159","2.0.0","144450","pd782474r7n","ono","swan","22","female","no","no","0","2","null","stimuli/sounds/bleep.wav","null","","","","","","",""
"","","","","","html-keyboard-response","160","2.0.0","145137","pd782474r7n","ono","swan","22","female","no","no","0","2","585","<div style=""font-size:30px;"">Press space to start the trial</div>"," ","","","","","","",""
"","","","","","html-keyboard-response","161","2.0.0","145390","pd782474r7n","ono","swan","22","female","no","no","0","2","null","<div style=""font-size:60px;"">+</div>","null","","","","","","",""
"","","","","","audio-keyboard-response","162","2.0.0","145990","pd782474r7n","ono","swan","22","female","no","no","0","2","null","stimuli/sounds/dog_label_B.wav","null","","","","","","",""
"","","","","","html-keyboard-response","163","2.0.0","146993","pd782474r7n","ono","swan","22","female","no","no","0","2","null","","null","","","","","","",""
"","","","","","image-keyboard-response","164","2.0.0","147588","pd782474r7n","ono","swan","22","female","no","no","0","2","593","stimuli/pictures/dog_york_1.jpg","1","1","","true","yes","sound","stimuli/sounds/dog_label_B.wav",""
"","","","","","audio-keyboard-response","165","2.0.0","148589","pd782474r7n","ono","swan","22","female","no","no","0","2","null","stimuli/sounds/bleep.wav","null","","","","","","",""
"","","","","","html-keyboard-response","166","2.0.0","149377","pd782474r7n","ono","swan","22","female","no","no","0","2","686","<div style=""font-size:30px;"">Press space to start the trial</div>"," ","","","","","","",""
"","","","","","html-keyboard-response","167","2.0.0","149630","pd782474r7n","ono","swan","22","female","no","no","0","2","null","<div style=""font-size:60px;"">+</div>","null","","","","","","",""
"","","","","","audio-keyboard-response","168","2.0.0","150234","pd782474r7n","ono","swan","22","female","no","no","0","2","null","stimuli/sounds/motor_label_B.wav","null","","","","","","",""
"","","","","","html-keyboard-response","169","2.0.0","151235","pd782474r7n","ono","swan","22","female","no","no","0","2","null","","null","","","","","","",""
"","","","","","image-keyboard-response","170","2.0.0","152361","pd782474r7n","ono","swan","22","female","no","no","0","2","1124","stimuli/pictures/motor_dirt_2.jpg","1","1","","true","yes","sound","stimuli/sounds/motor_label_B.wav",""
"","","","","","audio-keyboard-response","171","2.0.0","153364","pd782474r7n","ono","swan","22","female","no","no","0","2","null","stimuli/sounds/bleep.wav","null","","","","","","",""
"","","","","","html-keyboard-response","172","2.0.0","153961","pd782474r7n","ono","swan","22","female","no","no","0","2","495","<div style=""font-size:30px;"">Press space to start the trial</div>"," ","","","","","","",""
"","","","","","html-keyboard-response","173","2.0.0","154213","pd782474r7n","ono","swan","22","female","no","no","0","2","null","<div style=""font-size:60px;"">+</div>","null","","","","","","",""
"","","","","","audio-keyboard-response","174","2.0.0","154878","pd782474r7n","ono","swan","22","female","no","no","0","2","null","stimuli/sounds/cough_sound_A.wav","null","","","","","","",""
"","","","","","html-keyboard-response","175","2.0.0","155879","pd782474r7n","ono","swan","22","female","no","no","0","2","null","","null","","","","","","",""
"","","","","","image-keyboard-response","176","2.0.0","156377","pd782474r7n","ono","swan","22","female","no","no","0","2","496","stimuli/pictures/cough_man_2.jpg","1","1","","true","no","sound","stimuli/sounds/cough_sound_A.wav",""
"","","","","","audio-keyboard-response","177","2.0.0","157380","pd782474r7n","ono","swan","22","female","no","no","0","2","null","stimuli/sounds/bleep.wav","null","","","","","","",""
"","","","","","html-keyboard-response","178","2.0.0","158442","pd782474r7n","ono","swan","22","female","no","no","0","2","961","<div style=""font-size:30px;"">Press space to start the trial</div>"," ","","","","","","",""
"","","","","","html-keyboard-response","179","2.0.0","158695","pd782474r7n","ono","swan","22","female","no","no","0","2","null","<div style=""font-size:60px;"">+</div>","null","","","","","","",""
"","","","","","audio-keyboard-response","180","2.0.0","159301","pd782474r7n","ono","swan","22","female","no","no","0","2","null","stimuli/sounds/cough_label_B.wav","null","","","","","","",""
"","","","","","html-keyboard-response","181","2.0.0","160303","pd782474r7n","ono","swan","22","female","no","no","0","2","null","","null","","","","","","",""
"","","","","","image-keyboard-response","182","2.0.0","160963","pd782474r7n","ono","swan","22","female","no","no","0","2","658","stimuli/pictures/drop_single_1.jpg","0","0","","true","no","sound","stimuli/sounds/cough_label_B.wav",""
"","","","","","audio-keyboard-response","183","2.0.0","161965","pd782474r7n","ono","swan","22","female","no","no","0","2","null","stimuli/sounds/bleep.wav","null","","","","","","",""
"","","","","","html-keyboard-response","184","2.0.0","162633","pd782474r7n","ono","swan","22","female","no","no","0","2","567","<div style=""font-size:30px;"">Press space to start the trial</div>"," ","","","","","","",""
"","","","","","html-keyboard-response","185","2.0.0","162886","pd782474r7n","ono","swan","22","female","no","no","0","2","null","<div style=""font-size:60px;"">+</div>","null","","","","","","",""
"","","","","","audio-keyboard-response","186","2.0.0","163492","pd782474r7n","ono","swan","22","female","no","no","0","2","null","stimuli/sounds/drop_label_B.wav","null","","","","","","",""
"","","","","","html-keyboard-response","187","2.0.0","164495","pd782474r7n","ono","swan","22","female","no","no","0","2","null","","null","","","","","","",""
"","","","","","image-keyboard-response","188","2.0.0","165026","pd782474r7n","ono","swan","22","female","no","no","0","2","530","stimuli/pictures/drop_multi_1.jpg","1","1","","true","yes","sound","stimuli/sounds/drop_label_B.wav",""
"","","","","","audio-keyboard-response","189","2.0.0","166029","pd782474r7n","ono","swan","22","female","no","no","0","2","null","stimuli/sounds/bleep.wav","null","","","","","","",""
"","","","","","html-keyboard-response","190","2.0.0","166779","pd782474r7n","ono","swan","22","female","no","no","0","2","648","<div style=""font-size:30px;"">Press space to start the trial</div>"," ","","","","","","",""
"","","","","","html-keyboard-response","191","2.0.0","167030","pd782474r7n","ono","swan","22","female","no","no","0","2","null","<div style=""font-size:60px;"">+</div>","null","","","","","","",""
"","","","","","audio-keyboard-response","192","2.0.0","167637","pd782474r7n","ono","swan","22","female","no","no","0","2","null","stimuli/sounds/cough_label_B.wav","null","","","","","","",""
"","","","","","html-keyboard-response","193","2.0.0","168639","pd782474r7n","ono","swan","22","female","no","no","0","2","null","","null","","","","","","",""
"","","","","","image-keyboard-response","194","2.0.0","169200","pd782474r7n","ono","swan","22","female","no","no","0","2","560","stimuli/pictures/drop_multi_1.jpg","0","0","","true","no","sound","stimuli/sounds/cough_label_B.wav",""
"","","","","","audio-keyboard-response","195","2.0.0","170203","pd782474r7n","ono","swan","22","female","no","no","0","2","null","stimuli/sounds/bleep.wav","null","","","","","","",""
"","","","","","html-keyboard-response","196","2.0.0","170916","pd782474r7n","ono","swan","22","female","no","no","0","2","611","<div style=""font-size:30px;"">Press space to start the trial</div>"," ","","","","","","",""
"","","","","","html-keyboard-response","197","2.0.0","171168","pd782474r7n","ono","swan","22","female","no","no","0","2","null","<div style=""font-size:60px;"">+</div>","null","","","","","","",""
"","","","","","audio-keyboard-response","198","2.0.0","171770","pd782474r7n","ono","swan","22","female","no","no","0","2","null","stimuli/sounds/hiccup_sound_A.wav","null","","","","","","",""
"","","","","","html-keyboard-response","199","2.0.0","172771","pd782474r7n","ono","swan","22","female","no","no","0","2","null","","null","","","","","","",""
"","","","","","image-keyboard-response","200","2.0.0","173501","pd782474r7n","ono","swan","22","female","no","no","0","2","728","stimuli/pictures/hiccup_man_1.jpg","0","1","","false","no","sound","stimuli/sounds/hiccup_sound_A.wav",""
"","","","","","audio-keyboard-response","201","2.0.0","174504","pd782474r7n","ono","swan","22","female","no","no","0","2","null","stimuli/sounds/buzz.wav","null","","","","","","",""
"","","","","","html-keyboard-response","202","2.0.0","177117","pd782474r7n","ono","swan","22","female","no","no","0","2","2512","<div style=""font-size:30px;"">Press space to start the trial</div>"," ","","","","","","",""
"","","","","","html-keyboard-response","203","2.0.0","177370","pd782474r7n","ono","swan","22","female","no","no","0","2","null","<div style=""font-size:60px;"">+</div>","null","","","","","","",""
"","","","","","audio-keyboard-response","204","2.0.0","177976","pd782474r7n","ono","swan","22","female","no","no","0","2","null","stimuli/sounds/drop_label_B.wav","null","","","","","","",""
"","","","","","html-keyboard-response","205","2.0.0","178978","pd782474r7n","ono","swan","22","female","no","no","0","2","null","","null","","","","","","",""
"","","","","","image-keyboard-response","206","2.0.0","179958","pd782474r7n","ono","swan","22","female","no","no","0","2","979","stimuli/pictures/drop_single_2.jpg","1","1","","true","yes","sound","stimuli/sounds/drop_label_B.wav",""
"","","","","","audio-keyboard-response","207","2.0.0","180961","pd782474r7n","ono","swan","22","female","no","no","0","2","null","stimuli/sounds/bleep.wav","null","","","","","","",""
"","","","","","html-keyboard-response","208","2.0.0","181697","pd782474r7n","ono","swan","22","female","no","no","0","2","634","<div style=""font-size:30px;"">Press space to start the trial</div>"," ","","","","","","",""
"","","","","","html-keyboard-response","209","2.0.0","181949","pd782474r7n","ono","swan","22","female","no","no","0","2","null","<div style=""font-size:60px;"">+</div>","null","","","","","","",""
"","","","","","audio-keyboard-response","210","2.0.0","182614","pd782474r7n","ono","swan","22","female","no","no","0","2","null","stimuli/sounds/cough_sound_A.wav","null","","","","","","",""
"","","","","","html-keyboard-response","211","2.0.0","183616","pd782474r7n","ono","swan","22","female","no","no","0","2","null","","null","","","","","","",""
"","","","","","image-keyboard-response","212","2.0.0","184459","pd782474r7n","ono","swan","22","female","no","no","0","2","841","stimuli/pictures/dog_rott_1.jpg","0","0","","true","no","sound","stimuli/sounds/cough_sound_A.wav",""
"","","","","","audio-keyboard-response","213","2.0.0","185461","pd782474r7n","ono","swan","22","female","no","no","0","2","null","stimuli/sounds/bleep.wav","null","","","","","","",""
"","","","","","html-keyboard-response","214","2.0.0","186164","pd782474r7n","ono","swan","22","female","no","no","0","2","601","<div style=""font-size:30px;"">Press space to start the trial</div>"," ","","","","","","",""
"","","","","","html-keyboard-response","215","2.0.0","186415","pd782474r7n","ono","swan","22","female","no","no","0","2","null","<div style=""font-size:60px;"">+</div>","null","","","","","","",""
"","","","","","audio-keyboard-response","216","2.0.0","187020","pd782474r7n","ono","swan","22","female","no","no","0","2","null","stimuli/sounds/motor_sound_A.wav","null","","","","","","",""
"","","","","","html-keyboard-response","217","2.0.0","188022","pd782474r7n","ono","swan","22","female","no","no","0","2","null","","null","","","","","","",""
"","","","","","image-keyboard-response","218","2.0.0","188615","pd782474r7n","ono","swan","22","female","no","no","0","2","591","stimuli/pictures/motor_dirt_2.jpg","1","1","","true","yes","sound","stimuli/sounds/motor_sound_A.wav",""
"","","","","","audio-keyboard-response","219","2.0.0","189617","pd782474r7n","ono","swan","22","female","no","no","0","2","null","stimuli/sounds/bleep.wav","null","","","","","","",""
"","","","","","html-keyboard-response","220","2.0.0","190352","pd782474r7n","ono","swan","22","female","no","no","0","2","633","<div style=""font-size:30px;"">Press space to start the trial</div>"," ","","","","","","",""
"","","","","","html-keyboard-response","221","2.0.0","190605","pd782474r7n","ono","swan","22","female","no","no","0","2","null","<div style=""font-size:60px;"">+</div>","null","","","","","","",""
"","","","","","audio-keyboard-response","222","2.0.0","191205","pd782474r7n","ono","swan","22","female","no","no","0","2","null","stimuli/sounds/drop_sound_B.wav","null","","","","","","",""
"","","","","","html-keyboard-response","223","2.0.0","192207","pd782474r7n","ono","swan","22","female","no","no","0","2","null","","null","","","","","","",""
"","","","","","image-keyboard-response","224","2.0.0","192909","pd782474r7n","ono","swan","22","female","no","no","0","2","700","stimuli/pictures/dog_rott_1.jpg","0","0","","true","no","sound","stimuli/sounds/drop_sound_B.wav",""
"","","","","","audio-keyboard-response","225","2.0.0","193912","pd782474r7n","ono","swan","22","female","no","no","0","2","null","stimuli/sounds/bleep.wav","null","","","","","","",""
"","","","","","html-keyboard-response","226","2.0.0","194675","pd782474r7n","ono","swan","22","female","no","no","0","2","661","<div style=""font-size:30px;"">Press space to start the trial</div>"," ","","","","","","",""
"","","","","","html-keyboard-response","227","2.0.0","194928","pd782474r7n","ono","swan","22","female","no","no","0","2","null","<div style=""font-size:60px;"">+</div>","null","","","","","","",""
"","","","","","audio-keyboard-response","228","2.0.0","195559","pd782474r7n","ono","swan","22","female","no","no","0","2","null","stimuli/sounds/cough_label_A.wav","null","","","","","","",""
"","","","","","html-keyboard-response","229","2.0.0","196561","pd782474r7n","ono","swan","22","female","no","no","0","2","null","","null","","","","","","",""
"","","","","","image-keyboard-response","230","2.0.0","197527","pd782474r7n","ono","swan","22","female","no","no","0","2","963","stimuli/pictures/cough_wom_2.jpg","1","1","","true","yes","sound","stimuli/sounds/cough_label_A.wav",""
"","","","","","audio-keyboard-response","231","2.0.0","198529","pd782474r7n","ono","swan","22","female","no","no","0","2","null","stimuli/sounds/bleep.wav","null","","","","","","",""
"","","","","","html-keyboard-response","232","2.0.0","199139","pd782474r7n","ono","swan","22","female","no","no","0","2","508","<div style=""font-size:30px;"">Press space to start the trial</div>"," ","","","","","","",""
"","","","","","html-keyboard-response","233","2.0.0","199392","pd782474r7n","ono","swan","22","female","no","no","0","2","null","<div style=""font-size:60px;"">+</div>","null","","","","","","",""
"","","","","","audio-keyboard-response","234","2.0.0","199994","pd782474r7n","ono","swan","22","female","no","no","0","2","null","stimuli/sounds/dog_sound_B.wav","null","","","","","","",""
"","","","","","html-keyboard-response","235","2.0.0","200996","pd782474r7n","ono","swan","22","female","no","no","0","2","null","","null","","","","","","",""
"","","","","","image-keyboard-response","236","2.0.0","201573","pd782474r7n","ono","swan","22","female","no","no","0","2","576","stimuli/pictures/dog_york_1.jpg","1","1","","true","yes","sound","stimuli/sounds/dog_sound_B.wav",""
"","","","","","audio-keyboard-response","237","2.0.0","202575","pd782474r7n","ono","swan","22","female","no","no","0","2","null","stimuli/sounds/bleep.wav","null","","","","","","",""
"","","","","","html-keyboard-response","238","2.0.0","203215","pd782474r7n","ono","swan","22","female","no","no","0","2","538","<div style=""font-size:30px;"">Press space to start the trial</div>"," ","","","","","","",""
"","","","","","html-keyboard-response","239","2.0.0","203468","pd782474r7n","ono","swan","22","female","no","no","0","2","null","<div style=""font-size:60px;"">+</div>","null","","","","","","",""
"","","","","","audio-keyboard-response","240","2.0.0","204069","pd782474r7n","ono","swan","22","female","no","no","0","2","null","stimuli/sounds/motor_sound_B.wav","null","","","","","","",""
"","","","","","html-keyboard-response","241","2.0.0","205071","pd782474r7n","ono","swan","22","female","no","no","0","2","null","","null","","","","","","",""
"","","","","","image-keyboard-response","242","2.0.0","205782","pd782474r7n","ono","swan","22","female","no","no","0","2","709","stimuli/pictures/cough_wom_1.jpg","0","0","","true","no","sound","stimuli/sounds/motor_sound_B.wav",""
"","","","","","audio-keyboard-response","243","2.0.0","206784","pd782474r7n","ono","swan","22","female","no","no","0","2","null","stimuli/sounds/bleep.wav","null","","","","","","",""
"","","","","","html-keyboard-response","244","2.0.0","207532","pd782474r7n","ono","swan","22","female","no","no","0","2","646","<div style=""font-size:30px;"">Press space to start the trial</div>"," ","","","","","","",""
"","","","","","html-keyboard-response","245","2.0.0","207784","pd782474r7n","ono","swan","22","female","no","no","0","2","null","<div style=""font-size:60px;"">+</div>","null","","","","","","",""
"","","","","","audio-keyboard-response","246","2.0.0","208388","pd782474r7n","ono","swan","22","female","no","no","0","2","null","stimuli/sounds/drop_sound_B.wav","null","","","","","","",""
"","","","","","html-keyboard-response","247","2.0.0","209390","pd782474r7n","ono","swan","22","female","no","no","0","2","null","","null","","","","","","",""
"","","","","","image-keyboard-response","248","2.0.0","210429","pd782474r7n","ono","swan","22","female","no","no","0","2","1037","stimuli/pictures/drop_multi_1.jpg","1","1","","true","yes","sound","stimuli/sounds/drop_sound_B.wav",""
"","","","","","audio-keyboard-response","249","2.0.0","211431","pd782474r7n","ono","swan","22","female","no","no","0","2","null","stimuli/sounds/bleep.wav","null","","","","","","",""
"","","","","","html-keyboard-response","250","2.0.0","212142","pd782474r7n","ono","swan","22","female","no","no","0","2","608","<div style=""font-size:30px;"">Press space to start the trial</div>"," ","","","","","","",""
"","","","","","html-keyboard-response","251","2.0.0","212394","pd782474r7n","ono","swan","22","female","no","no","0","2","null","<div style=""font-size:60px;"">+</div>","null","","","","","","",""
"","","","","","audio-keyboard-response","252","2.0.0","212997","pd782474r7n","ono","swan","22","female","no","no","0","2","null","stimuli/sounds/hiccup_sound_A.wav","null","","","","","","",""
"","","","","","html-keyboard-response","253","2.0.0","213999","pd782474r7n","ono","swan","22","female","no","no","0","2","null","","null","","","","","","",""
"","","","","","image-keyboard-response","254","2.0.0","214692","pd782474r7n","ono","swan","22","female","no","no","0","2","691","stimuli/pictures/motor_harley_2.jpg","0","0","","true","no","sound","stimuli/sounds/hiccup_sound_A.wav",""
"","","","","","audio-keyboard-response","255","2.0.0","215695","pd782474r7n","ono","swan","22","female","no","no","0","2","null","stimuli/sounds/bleep.wav","null","","","","","","",""
"","","","","","html-keyboard-response","256","2.0.0","216339","pd782474r7n","ono","swan","22","female","no","no","0","2","542","<div style=""font-size:30px;"">Press space to start the trial</div>"," ","","","","","","",""
"","","","","","html-keyboard-response","257","2.0.0","216591","pd782474r7n","ono","swan","22","female","no","no","0","2","null","<div style=""font-size:60px;"">+</div>","null","","","","","","",""
"","","","","","audio-keyboard-response","258","2.0.0","217130","pd782474r7n","ono","swan","22","female","no","no","0","2","null","stimuli/sounds/hiccup_label_A.wav","null","","","","","","",""
"","","","","","html-keyboard-response","259","2.0.0","218133","pd782474r7n","ono","swan","22","female","no","no","0","2","null","","null","","","","","","",""
"","","","","","image-keyboard-response","260","2.0.0","219236","pd782474r7n","ono","swan","22","female","no","no","0","2","1101","stimuli/pictures/cough_wom_1.jpg","0","0","","true","no","sound","stimuli/sounds/hiccup_label_A.wav",""
"","","","","","audio-keyboard-response","261","2.0.0","220238","pd782474r7n","ono","swan","22","female","no","no","0","2","null","stimuli/sounds/bleep.wav","null","","","","","","",""
"","","","","","html-keyboard-response","262","2.0.0","220912","pd782474r7n","ono","swan","22","female","no","no","0","2","572","<div style=""font-size:30px;"">Press space to start the trial</div>"," ","","","","","","",""
"","","","","","html-keyboard-response","263","2.0.0","221163","pd782474r7n","ono","swan","22","female","no","no","0","2","null","<div style=""font-size:60px;"">+</div>","null","","","","","","",""
"","","","","","audio-keyboard-response","264","2.0.0","221699","pd782474r7n","ono","swan","22","female","no","no","0","2","null","stimuli/sounds/hiccup_label_A.wav","null","","","","","","",""
"","","","","","html-keyboard-response","265","2.0.0","222701","pd782474r7n","ono","swan","22","female","no","no","0","2","null","","null","","","","","","",""
"","","","","","image-keyboard-response","266","2.0.0","223421","pd782474r7n","ono","swan","22","female","no","no","0","2","718","stimuli/pictures/cough_man_2.jpg","0","0","","true","no","sound","stimuli/sounds/hiccup_label_A.wav",""
"","","","","","audio-keyboard-response","267","2.0.0","224423","pd782474r7n","ono","swan","22","female","no","no","0","2","null","stimuli/sounds/bleep.wav","null","","","","","","",""
"","","","","","html-keyboard-response","268","2.0.0","225996","pd782474r7n","ono","swan","22","female","no","no","0","2","1471","<p>You have completed a block. Press R when you are ready to continue</p>","r","","","","","","",""
"","","","","","html-keyboard-response","269","2.0.0","226682","pd782474r7n","ono","swan","22","female","no","no","0","2","685","<div style=""font-size:30px;"">Press space to start the trial</div>"," ","","","","","","",""
"","","","","","html-keyboard-response","270","2.0.0","226934","pd782474r7n","ono","swan","22","female","no","no","0","2","null","<div style=""font-size:60px;"">+</div>","null","","","","","","",""
"","","","","","audio-keyboard-response","271","2.0.0","227539","pd782474r7n","ono","swan","22","female","no","no","0","2","null","stimuli/sounds/hiccup_sound_B.wav","null","","","","","","",""
"","","","","","html-keyboard-response","272","2.0.0","228541","pd782474r7n","ono","swan","22","female","no","no","0","2","null","","null","","","","","","",""
"","","","","","image-keyboard-response","273","2.0.0","229106","pd782474r7n","ono","swan","22","female","no","no","0","2","564","stimuli/pictures/hiccup_man_2.jpg","1","1","","true","yes","sound","stimuli/sounds/hiccup_sound_B.wav",""
"","","","","","audio-keyboard-response","274","2.0.0","230109","pd782474r7n","ono","swan","22","female","no","no","0","2","null","stimuli/sounds/bleep.wav","null","","","","","","",""
"","","","","","html-keyboard-response","275","2.0.0","231208","pd782474r7n","ono","swan","22","female","no","no","0","2","998","<div style=""font-size:30px;"">Press space to start the trial</div>"," ","","","","","","",""
"","","","","","html-keyboard-response","276","2.0.0","231460","pd782474r7n","ono","swan","22","female","no","no","0","2","null","<div style=""font-size:60px;"">+</div>","null","","","","","","",""
"","","","","","audio-keyboard-response","277","2.0.0","232061","pd782474r7n","ono","swan","22","female","no","no","0","2","null","stimuli/sounds/drop_sound_B.wav","null","","","","","","",""
"","","","","","html-keyboard-response","278","2.0.0","233063","pd782474r7n","ono","swan","22","female","no","no","0","2","null","","null","","","","","","",""
"","","","","","image-keyboard-response","279","2.0.0","233510","pd782474r7n","ono","swan","22","female","no","no","0","2","447","stimuli/pictures/drop_single_1.jpg","1","1","","true","no","sound","stimuli/sounds/drop_sound_B.wav",""
"","","","","","audio-keyboard-response","280","2.0.0","234513","pd782474r7n","ono","swan","22","female","no","no","0","2","null","stimuli/sounds/bleep.wav","null","","","","","","",""
"","","","","","html-keyboard-response","281","2.0.0","235290","pd782474r7n","ono","swan","22","female","no","no","0","2","675","<div style=""font-size:30px;"">Press space to start the trial</div>"," ","","","","","","",""
"","","","","","html-keyboard-response","282","2.0.0","235543","pd782474r7n","ono","swan","22","female","no","no","0","2","null","<div style=""font-size:60px;"">+</div>","null","","","","","","",""
"","","","","","audio-keyboard-response","283","2.0.0","236142","pd782474r7n","ono","swan","22","female","no","no","0","2","null","stimuli/sounds/hiccup_sound_B.wav","null","","","","","","",""
"","","","","","html-keyboard-response","284","2.0.0","237144","pd782474r7n","ono","swan","22","female","no","no","0","2","null","","null","","","","","","",""
"","","","","","image-keyboard-response","285","2.0.0","238087","pd782474r7n","ono","swan","22","female","no","no","0","2","942","stimuli/pictures/hiccup_wom_2.jpg","1","1","","true","no","sound","stimuli/sounds/hiccup_sound_B.wav",""
"","","","","","audio-keyboard-response","286","2.0.0","239089","pd782474r7n","ono","swan","22","female","no","no","0","2","null","stimuli/sounds/bleep.wav","null","","","","","","",""
"","","","","","html-keyboard-response","287","2.0.0","239790","pd782474r7n","ono","swan","22","female","no","no","0","2","598","<div style=""font-size:30px;"">Press space to start the trial</div>"," ","","","","","","",""
"","","","","","html-keyboard-response","288","2.0.0","240042","pd782474r7n","ono","swan","22","female","no","no","0","2","null","<div style=""font-size:60px;"">+</div>","null","","","","","","",""
"","","","","","audio-keyboard-response","289","2.0.0","240652","pd782474r7n","ono","swan","22","female","no","no","0","2","null","stimuli/sounds/drop_label_B.wav","null","","","","","","",""
"","","","","","html-keyboard-response","290","2.0.0","241655","pd782474r7n","ono","swan","22","female","no","no","0","2","null","","null","","","","","","",""
"","","","","","image-keyboard-response","291","2.0.0","242296","pd782474r7n","ono","swan","22","female","no","no","0","2","640","stimuli/pictures/drop_single_1.jpg","1","1","","true","yes","sound","stimuli/sounds/drop_label_B.wav",""
"","","","","","audio-keyboard-response","292","2.0.0","243298","pd782474r7n","ono","swan","22","female","no","no","0","2","null","stimuli/sounds/bleep.wav","null","","","","","","",""
"","","","","","html-keyboard-response","293","2.0.0","243992","pd782474r7n","ono","swan","22","female","no","no","0","2","591","<div style=""font-size:30px;"">Press space to start the trial</div>"," ","","","","","","",""
"","","","","","html-keyboard-response","294","2.0.0","244244","pd782474r7n","ono","swan","22","female","no","no","0","2","null","<div style=""font-size:60px;"">+</div>","null","","","","","","",""
"","","","","","audio-keyboard-response","295","2.0.0","244843","pd782474r7n","ono","swan","22","female","no","no","0","2","null","stimuli/sounds/dog_label_A.wav","null","","","","","","",""
"","","","","","html-keyboard-response","296","2.0.0","245845","pd782474r7n","ono","swan","22","female","no","no","0","2","null","","null","","","","","","",""
"","","","","","image-keyboard-response","297","2.0.0","246819","pd782474r7n","ono","swan","22","female","no","no","0","2","973","stimuli/pictures/drop_multi_2.jpg","0","0","","true","no","sound","stimuli/sounds/dog_label_A.wav",""
"","","","","","audio-keyboard-response","298","2.0.0","247822","pd782474r7n","ono","swan","22","female","no","no","0","2","null","stimuli/sounds/bleep.wav","null","","","","","","",""
"","","","","","html-keyboard-response","299","2.0.0","248383","pd782474r7n","ono","swan","22","female","no","no","0","2","459","<div style=""font-size:30px;"">Press space to start the trial</div>"," ","","","","","","",""
"","","","","","html-keyboard-response","300","2.0.0","248635","pd782474r7n","ono","swan","22","female","no","no","0","2","null","<div style=""font-size:60px;"">+</div>","null","","","","","","",""
"","","","","","audio-keyboard-response","301","2.0.0","249238","pd782474r7n","ono","swan","22","female","no","no","0","2","null","stimuli/sounds/motor_label_A.wav","null","","","","","","",""
"","","","","","html-keyboard-response","302","2.0.0","250240","pd782474r7n","ono","swan","22","female","no","no","0","2","null","","null","","","","","","",""
"","","","","","image-keyboard-response","303","2.0.0","250772","pd782474r7n","ono","swan","22","female","no","no","0","2","531","stimuli/pictures/dog_york_2.jpg","0","0","","true","no","sound","stimuli/sounds/motor_label_A.wav",""
"","","","","","audio-keyboard-response","304","2.0.0","251775","pd782474r7n","ono","swan","22","female","no","no","0","2","null","stimuli/sounds/bleep.wav","null","","","","","","",""
"","","","","","html-keyboard-response","305","2.0.0","252405","pd782474r7n","ono","swan","22","female","no","no","0","2","528","<div style=""font-size:30px;"">Press space to start the trial</div>"," ","","","","","","",""
"","","","","","html-keyboard-response","306","2.0.0","252658","pd782474r7n","ono","swan","22","female","no","no","0","2","null","<div style=""font-size:60px;"">+</div>","null","","","","","","",""
"","","","","","audio-keyboard-response","307","2.0.0","253261","pd782474r7n","ono","swan","22","female","no","no","0","2","null","stimuli/sounds/dog_label_B.wav","null","","","","","","",""
"","","","","","html-keyboard-response","308","2.0.0","254262","pd782474r7n","ono","swan","22","female","no","no","0","2","null","","null","","","","","","",""
"","","","","","image-keyboard-response","309","2.0.0","255348","pd782474r7n","ono","swan","22","female","no","no","0","2","1085","stimuli/pictures/cough_wom_2.jpg","0","0","","true","no","sound","stimuli/sounds/dog_label_B.wav",""
"","","","","","audio-keyboard-response","310","2.0.0","256350","pd782474r7n","ono","swan","22","female","no","no","0","2","null","stimuli/sounds/bleep.wav","null","","","","","","",""
"","","","","","html-keyboard-response","311","2.0.0","257007","pd782474r7n","ono","swan","22","female","no","no","0","2","554","<div style=""font-size:30px;"">Press space to start the trial</div>"," ","","","","","","",""
"","","","","","html-keyboard-response","312","2.0.0","257259","pd782474r7n","ono","swan","22","female","no","no","0","2","null","<div style=""font-size:60px;"">+</div>","null","","","","","","",""
"","","","","","audio-keyboard-response","313","2.0.0","257800","pd782474r7n","ono","swan","22","female","no","no","0","2","null","stimuli/sounds/hiccup_label_A.wav","null","","","","","","",""
"","","","","","html-keyboard-response","314","2.0.0","258801","pd782474r7n","ono","swan","22","female","no","no","0","2","null","","null","","","","","","",""
"","","","","","image-keyboard-response","315","2.0.0","259454","pd782474r7n","ono","swan","22","female","no","no","0","2","651","stimuli/pictures/hiccup_wom_2.jpg","1","1","","true","yes","sound","stimuli/sounds/hiccup_label_A.wav",""
"","","","","","audio-keyboard-response","316","2.0.0","260456","pd782474r7n","ono","swan","22","female","no","no","0","2","null","stimuli/sounds/bleep.wav","null","","","","","","",""
"","","","","","html-keyboard-response","317","2.0.0","261144","pd782474r7n","ono","swan","22","female","no","no","0","2","586","<div style=""font-size:30px;"">Press space to start the trial</div>"," ","","","","","","",""
"","","","","","html-keyboard-response","318","2.0.0","261396","pd782474r7n","ono","swan","22","female","no","no","0","2","null","<div style=""font-size:60px;"">+</div>","null","","","","","","",""
"","","","","","audio-keyboard-response","319","2.0.0","262073","pd782474r7n","ono","swan","22","female","no","no","0","2","null","stimuli/sounds/cough_sound_B.wav","null","","","","","","",""
"","","","","","html-keyboard-response","320","2.0.0","263075","pd782474r7n","ono","swan","22","female","no","no","0","2","null","","null","","","","","","",""
"","","","","","image-keyboard-response","321","2.0.0","263620","pd782474r7n","ono","swan","22","female","no","no","0","2","543","stimuli/pictures/hiccup_wom_2.jpg","1","0","","false","no","sound","stimuli/sounds/cough_sound_B.wav",""
"","","","","","audio-keyboard-response","322","2.0.0","264622","pd782474r7n","ono","swan","22","female","no","no","0","2","null","stimuli/sounds/buzz.wav","null","","","","","","",""
"","","","","","html-keyboard-response","323","2.0.0","265361","pd782474r7n","ono","swan","22","female","no","no","0","2","637","<div style=""font-size:30px;"">Press space to start the trial</div>"," ","","","","","","",""
"","","","","","html-keyboard-response","324","2.0.0","265613","pd782474r7n","ono","swan","22","female","no","no","0","2","null","<div style=""font-size:60px;"">+</div>","null","","","","","","",""
"","","","","","audio-keyboard-response","325","2.0.0","266217","pd782474r7n","ono","swan","22","female","no","no","0","2","null","stimuli/sounds/dog_label_A.wav","null","","","","","","",""
"","","","","","html-keyboard-response","326","2.0.0","267220","pd782474r7n","ono","swan","22","female","no","no","0","2","null","","null","","","","","","",""
"","","","","","image-keyboard-response","327","2.0.0","267904","pd782474r7n","ono","swan","22","female","no","no","0","2","684","stimuli/pictures/dog_york_1.jpg","1","1","","true","yes","sound","stimuli/sounds/dog_label_A.wav",""
"","","","","","audio-keyboard-response","328","2.0.0","268907","pd782474r7n","ono","swan","22","female","no","no","0","2","null","stimuli/sounds/bleep.wav","null","","","","","","",""
"","","","","","html-keyboard-response","329","2.0.0","269518","pd782474r7n","ono","swan","22","female","no","no","0","2","509","<div style=""font-size:30px;"">Press space to start the trial</div>"," ","","","","","","",""
"","","","","","html-keyboard-response","330","2.0.0","269771","pd782474r7n","ono","swan","22","female","no","no","0","2","null","<div style=""font-size:60px;"">+</div>","null","","","","","","",""
"","","","","","audio-keyboard-response","331","2.0.0","270356","pd782474r7n","ono","swan","22","female","no","no","0","2","null","stimuli/sounds/drop_sound_A.wav","null","","","","","","",""
"","","","","","html-keyboard-response","332","2.0.0","271359","pd782474r7n","ono","swan","22","female","no","no","0","2","null","","null","","","","","","",""
"","","","","","image-keyboard-response","333","2.0.0","272364","pd782474r7n","ono","swan","22","female","no","no","0","2","1004","stimuli/pictures/cough_man_1.jpg","0","0","","true","no","sound","stimuli/sounds/drop_sound_A.wav",""
"","","","","","audio-keyboard-response","334","2.0.0","273365","pd782474r7n","ono","swan","22","female","no","no","0","2","null","stimuli/sounds/bleep.wav","null","","","","","","",""
"","","","","","html-keyboard-response","335","2.0.0","274054","pd782474r7n","ono","swan","22","female","no","no","0","2","587","<div style=""font-size:30px;"">Press space to start the trial</div>"," ","","","","","","",""
"","","","","","html-keyboard-response","336","2.0.0","274307","pd782474r7n","ono","swan","22","female","no","no","0","2","null","<div style=""font-size:60px;"">+</div>","null","","","","","","",""
"","","","","","audio-keyboard-response","337","2.0.0","274907","pd782474r7n","ono","swan","22","female","no","no","0","2","null","stimuli/sounds/motor_label_B.wav","null","","","","","","",""
"","","","","","html-keyboard-response","338","2.0.0","275910","pd782474r7n","ono","swan","22","female","no","no","0","2","null","","null","","","","","","",""
"","","","","","image-keyboard-response","339","2.0.0","277388","pd782474r7n","ono","swan","22","female","no","no","0","2","1477","stimuli/pictures/hiccup_wom_1.jpg","0","0","","true","no","sound","stimuli/sounds/motor_label_B.wav",""
"","","","","","audio-keyboard-response","340","2.0.0","278390","pd782474r7n","ono","swan","22","female","no","no","0","2","null","stimuli/sounds/bleep.wav","null","","","","","","",""
"","","","","","html-keyboard-response","341","2.0.0","279065","pd782474r7n","ono","swan","22","female","no","no","0","2","573","<div style=""font-size:30px;"">Press space to start the trial</div>"," ","","","","","","",""
"","","","","","html-keyboard-response","342","2.0.0","279317","pd782474r7n","ono","swan","22","female","no","no","0","2","null","<div style=""font-size:60px;"">+</div>","null","","","","","","",""
"","","","","","audio-keyboard-response","343","2.0.0","279993","pd782474r7n","ono","swan","22","female","no","no","0","2","null","stimuli/sounds/cough_sound_B.wav","null","","","","","","",""
"","","","","","html-keyboard-response","344","2.0.0","280995","pd782474r7n","ono","swan","22","female","no","no","0","2","null","","null","","","","","","",""
"","","","","","image-keyboard-response","345","2.0.0","281684","pd782474r7n","ono","swan","22","female","no","no","0","2","688","stimuli/pictures/hiccup_man_2.jpg","0","0","","true","no","sound","stimuli/sounds/cough_sound_B.wav",""
"","","","","","audio-keyboard-response","346","2.0.0","282687","pd782474r7n","ono","swan","22","female","no","no","0","2","null","stimuli/sounds/bleep.wav","null","","","","","","",""
"","","","","","html-keyboard-response","347","2.0.0","283345","pd782474r7n","ono","swan","22","female","no","no","0","2","557","<div style=""font-size:30px;"">Press space to start the trial</div>"," ","","","","","","",""
"","","","","","html-keyboard-response","348","2.0.0","283598","pd782474r7n","ono","swan","22","female","no","no","0","2","null","<div style=""font-size:60px;"">+</div>","null","","","","","","",""
"","","","","","audio-keyboard-response","349","2.0.0","284137","pd782474r7n","ono","swan","22","female","no","no","0","2","null","stimuli/sounds/hiccup_label_A.wav","null","","","","","","",""
"","","","","","html-keyboard-response","350","2.0.0","285139","pd782474r7n","ono","swan","22","female","no","no","0","2","null","","null","","","","","","",""
"","","","","","image-keyboard-response","351","2.0.0","285734","pd782474r7n","ono","swan","22","female","no","no","0","2","593","stimuli/pictures/cough_wom_2.jpg","0","0","","true","no","sound","stimuli/sounds/hiccup_label_A.wav",""
"","","","","","audio-keyboard-response","352","2.0.0","286737","pd782474r7n","ono","swan","22","female","no","no","0","2","null","stimuli/sounds/bleep.wav","null","","","","","","",""
"","","","","","html-keyboard-response","353","2.0.0","287627","pd782474r7n","ono","swan","22","female","no","no","0","2","789","<div style=""font-size:30px;"">Press space to start the trial</div>"," ","","","","","","",""
"","","","","","html-keyboard-response","354","2.0.0","287879","pd782474r7n","ono","swan","22","female","no","no","0","2","null","<div style=""font-size:60px;"">+</div>","null","","","","","","",""
"","","","","","audio-keyboard-response","355","2.0.0","288427","pd782474r7n","ono","swan","22","female","no","no","0","2","null","stimuli/sounds/drop_label_A.wav","null","","","","","","",""
"","","","","","html-keyboard-response","356","2.0.0","289430","pd782474r7n","ono","swan","22","female","no","no","0","2","null","","null","","","","","","",""
"","","","","","image-keyboard-response","357","2.0.0","290358","pd782474r7n","ono","swan","22","female","no","no","0","2","927","stimuli/pictures/hiccup_man_1.jpg","0","0","","true","no","sound","stimuli/sounds/drop_label_A.wav",""
"","","","","","audio-keyboard-response","358","2.0.0","291361","pd782474r7n","ono","swan","22","female","no","no","0","2","null","stimuli/sounds/bleep.wav","null","","","","","","",""
"","","","","","html-keyboard-response","359","2.0.0","291991","pd782474r7n","ono","swan","22","female","no","no","0","2","528","<div style=""font-size:30px;"">Press space to start the trial</div>"," ","","","","","","",""
"","","","","","html-keyboard-response","360","2.0.0","292243","pd782474r7n","ono","swan","22","female","no","no","0","2","null","<div style=""font-size:60px;"">+</div>","null","","","","","","",""
"","","","","","audio-keyboard-response","361","2.0.0","292845","pd782474r7n","ono","swan","22","female","no","no","0","2","null","stimuli/sounds/dog_sound_A.wav","null","","","","","","",""
"","","","","","html-keyboard-response","362","2.0.0","293847","pd782474r7n","ono","swan","22","female","no","no","0","2","null","","null","","","","","","",""
"","","","","","image-keyboard-response","363","2.0.0","294346","pd782474r7n","ono","swan","22","female","no","no","0","2","497","stimuli/pictures/dog_york_1.jpg","1","1","","true","no","sound","stimuli/sounds/dog_sound_A.wav",""
"","","","","","audio-keyboard-response","364","2.0.0","295348","pd782474r7n","ono","swan","22","female","no","no","0","2","null","stimuli/sounds/bleep.wav","null","","","","","","",""
"","","","","","html-keyboard-response","365","2.0.0","296002","pd782474r7n","ono","swan","22","female","no","no","0","2","552","<div style=""font-size:30px;"">Press space to start the trial</div>"," ","","","","","","",""
"","","","","","html-keyboard-response","366","2.0.0","296254","pd782474r7n","ono","swan","22","female","no","no","0","2","null","<div style=""font-size:60px;"">+</div>","null","","","","","","",""
"","","","","","audio-keyboard-response","367","2.0.0","296856","pd782474r7n","ono","swan","22","female","no","no","0","2","null","stimuli/sounds/dog_sound_A.wav","null","","","","","","",""
"","","","","","html-keyboard-response","368","2.0.0","297858","pd782474r7n","ono","swan","22","female","no","no","0","2","null","","null","","","","","","",""
"","","","","","image-keyboard-response","369","2.0.0","298694","pd782474r7n","ono","swan","22","female","no","no","0","2","834","stimuli/pictures/dog_york_2.jpg","1","1","","true","no","sound","stimuli/sounds/dog_sound_A.wav",""
"","","","","","audio-keyboard-response","370","2.0.0","299697","pd782474r7n","ono","swan","22","female","no","no","0","2","null","stimuli/sounds/bleep.wav","null","","","","","","",""
"","","","","","html-keyboard-response","371","2.0.0","300341","pd782474r7n","ono","swan","22","female","no","no","0","2","542","<div style=""font-size:30px;"">Press space to start the trial</div>"," ","","","","","","",""
"","","","","","html-keyboard-response","372","2.0.0","300594","pd782474r7n","ono","swan","22","female","no","no","0","2","null","<div style=""font-size:60px;"">+</div>","null","","","","","","",""
"","","","","","audio-keyboard-response","373","2.0.0","301198","pd782474r7n","ono","swan","22","female","no","no","0","2","null","stimuli/sounds/dog_label_B.wav","null","","","","","","",""
"","","","","","html-keyboard-response","374","2.0.0","302200","pd782474r7n","ono","swan","22","female","no","no","0","2","null","","null","","","","","","",""
"","","","","","image-keyboard-response","375","2.0.0","302691","pd782474r7n","ono","swan","22","female","no","no","0","2","489","stimuli/pictures/cough_man_1.jpg","0","0","","true","no","sound","stimuli/sounds/dog_label_B.wav",""
"","","","","","audio-keyboard-response","376","2.0.0","303694","pd782474r7n","ono","swan","22","female","no","no","0","2","null","stimuli/sounds/bleep.wav","null","","","","","","",""
"","","","","","html-keyboard-response","377","2.0.0","304492","pd782474r7n","ono","swan","22","female","no","no","0","2","696","<div style=""font-size:30px;"">Press space to start the trial</div>"," ","","","","","","",""
"","","","","","html-keyboard-response","378","2.0.0","304745","pd782474r7n","ono","swan","22","female","no","no","0","2","null","<div style=""font-size:60px;"">+</div>","null","","","","","","",""
"","","","","","audio-keyboard-response","379","2.0.0","305355","pd782474r7n","ono","swan","22","female","no","no","0","2","null","stimuli/sounds/cough_label_B.wav","null","","","","","","",""
"","","","","","html-keyboard-response","380","2.0.0","306356","pd782474r7n","ono","swan","22","female","no","no","0","2","null","","null","","","","","","",""
"","","","","","image-keyboard-response","381","2.0.0","306921","pd782474r7n","ono","swan","22","female","no","no","0","2","564","stimuli/pictures/cough_man_2.jpg","1","1","","true","yes","sound","stimuli/sounds/cough_label_B.wav",""
"","","","","","audio-keyboard-response","382","2.0.0","307923","pd782474r7n","ono","swan","22","female","no","no","0","2","null","stimuli/sounds/bleep.wav","null","","","","","","",""
"","","","","","html-keyboard-response","383","2.0.0","308536","pd782474r7n","ono","swan","22","female","no","no","0","2","511","<div style=""font-size:30px;"">Press space to start the trial</div>"," ","","","","","","",""
"","","","","","html-keyboard-response","384","2.0.0","308788","pd782474r7n","ono","swan","22","female","no","no","0","2","null","<div style=""font-size:60px;"">+</div>","null","","","","","","",""
"","","","","","audio-keyboard-response","385","2.0.0","309395","pd782474r7n","ono","swan","22","female","no","no","0","2","null","stimuli/sounds/hiccup_label_B.wav","null","","","","","","",""
"","","","","","html-keyboard-response","386","2.0.0","310397","pd782474r7n","ono","swan","22","female","no","no","0","2","null","","null","","","","","","",""
"","","","","","image-keyboard-response","387","2.0.0","311099","pd782474r7n","ono","swan","22","female","no","no","0","2","701","stimuli/pictures/dog_rott_1.jpg","0","0","","true","no","sound","stimuli/sounds/hiccup_label_B.wav",""
"","","","","","audio-keyboard-response","388","2.0.0","312102","pd782474r7n","ono","swan","22","female","no","no","0","2","null","stimuli/sounds/bleep.wav","null","","","","","","",""
"","","","","","html-keyboard-response","389","2.0.0","313857","pd782474r7n","ono","swan","22","female","no","no","0","2","1654","<p>You have completed a block. Press R when you are ready to continue</p>","r","","","","","","",""
"","","","","","html-keyboard-response","390","2.0.0","314646","pd782474r7n","ono","swan","22","female","no","no","0","2","788","<div style=""font-size:30px;"">Press space to start the trial</div>"," ","","","","","","",""
"","","","","","html-keyboard-response","391","2.0.0","314898","pd782474r7n","ono","swan","22","female","no","no","0","2","null","<div style=""font-size:60px;"">+</div>","null","","","","","","",""
"","","","","","audio-keyboard-response","392","2.0.0","315566","pd782474r7n","ono","swan","22","female","no","no","0","2","null","stimuli/sounds/cough_sound_A.wav","null","","","","","","",""
"","","","","","html-keyboard-response","393","2.0.0","316568","pd782474r7n","ono","swan","22","female","no","no","0","2","null","","null","","","","","","",""
"","","","","","image-keyboard-response","394","2.0.0","317033","pd782474r7n","ono","swan","22","female","no","no","0","2","464","stimuli/pictures/cough_man_1.jpg","1","1","","true","no","sound","stimuli/sounds/cough_sound_A.wav",""
"","","","","","audio-keyboard-response","395","2.0.0","318036","pd782474r7n","ono","swan","22","female","no","no","0","2","null","stimuli/sounds/bleep.wav","null","","","","","","",""
"","","","","","html-keyboard-response","396","2.0.0","319154","pd782474r7n","ono","swan","22","female","no","no","0","2","1016","<div style=""font-size:30px;"">Press space to start the trial</div>"," ","","","","","","",""
"","","","","","html-keyboard-response","397","2.0.0","319406","pd782474r7n","ono","swan","22","female","no","no","0","2","null","<div style=""font-size:60px;"">+</div>","null","","","","","","",""
"","","","","","audio-keyboard-response","398","2.0.0","320012","pd782474r7n","ono","swan","22","female","no","no","0","2","null","stimuli/sounds/drop_label_B.wav","null","","","","","","",""
"","","","","","html-keyboard-response","399","2.0.0","321014","pd782474r7n","ono","swan","22","female","no","no","0","2","null","","null","","","","","","",""
"","","","","","image-keyboard-response","400","2.0.0","321720","pd782474r7n","ono","swan","22","female","no","no","0","2","705","stimuli/pictures/motor_dirt_1.jpg","0","0","","true","no","sound","stimuli/sounds/drop_label_B.wav",""
"","","","","","audio-keyboard-response","401","2.0.0","322722","pd782474r7n","ono","swan","22","female","no","no","0","2","null","stimuli/sounds/bleep.wav","null","","","","","","",""
"","","","","","html-keyboard-response","402","2.0.0","324101","pd782474r7n","ono","swan","22","female","no","no","0","2","1277","<div style=""font-size:30px;"">Press space to start the trial</div>"," ","","","","","","",""
"","","","","","html-keyboard-response","403","2.0.0","324353","pd782474r7n","ono","swan","22","female","no","no","0","2","null","<div style=""font-size:60px;"">+</div>","null","","","","","","",""
"","","","","","audio-keyboard-response","404","2.0.0","324958","pd782474r7n","ono","swan","22","female","no","no","0","2","null","stimuli/sounds/hiccup_sound_B.wav","null","","","","","","",""
"","","","","","html-keyboard-response","405","2.0.0","325961","pd782474r7n","ono","swan","22","female","no","no","0","2","null","","null","","","","","","",""
"","","","","","image-keyboard-response","406","2.0.0","326590","pd782474r7n","ono","swan","22","female","no","no","0","2","628","stimuli/pictures/drop_single_1.jpg","0","0","","true","no","sound","stimuli/sounds/hiccup_sound_B.wav",""
"","","","","","audio-keyboard-response","407","2.0.0","327593","pd782474r7n","ono","swan","22","female","no","no","0","2","null","stimuli/sounds/bleep.wav","null","","","","","","",""
"","","","","","html-keyboard-response","408","2.0.0","328166","pd782474r7n","ono","swan","22","female","no","no","0","2","472","<div style=""font-size:30px;"">Press space to start the trial</div>"," ","","","","","","",""
"","","","","","html-keyboard-response","409","2.0.0","328419","pd782474r7n","ono","swan","22","female","no","no","0","2","null","<div style=""font-size:60px;"">+</div>","null","","","","","","",""
"","","","","","audio-keyboard-response","410","2.0.0","329022","pd782474r7n","ono","swan","22","female","no","no","0","2","null","stimuli/sounds/dog_label_A.wav","null","","","","","","",""
"","","","","","html-keyboard-response","411","2.0.0","330024","pd782474r7n","ono","swan","22","female","no","no","0","2","null","","null","","","","","","",""
"","","","","","image-keyboard-response","412","2.0.0","330498","pd782474r7n","ono","swan","22","female","no","no","0","2","472","stimuli/pictures/drop_multi_1.jpg","0","0","","true","no","sound","stimuli/sounds/dog_label_A.wav",""
"","","","","","audio-keyboard-response","413","2.0.0","331501","pd782474r7n","ono","swan","22","female","no","no","0","2","null","stimuli/sounds/bleep.wav","null","","","","","","",""
"","","","","","html-keyboard-response","414","2.0.0","332258","pd782474r7n","ono","swan","22","female","no","no","0","2","656","<div style=""font-size:30px;"">Press space to start the trial</div>"," ","","","","","","",""
"","","","","","html-keyboard-response","415","2.0.0","332511","pd782474r7n","ono","swan","22","female","no","no","0","2","null","<div style=""font-size:60px;"">+</div>","null","","","","","","",""
"","","","","","audio-keyboard-response","416","2.0.0","333114","pd782474r7n","ono","swan","22","female","no","no","0","2","null","stimuli/sounds/motor_sound_B.wav","null","","","","","","",""
"","","","","","html-keyboard-response","417","2.0.0","334117","pd782474r7n","ono","swan","22","female","no","no","0","2","null","","null","","","","","","",""
"","","","","","image-keyboard-response","418","2.0.0","334702","pd782474r7n","ono","swan","22","female","no","no","0","2","584","stimuli/pictures/motor_harley_2.jpg","1","1","","true","yes","sound","stimuli/sounds/motor_sound_B.wav",""
"","","","","","audio-keyboard-response","419","2.0.0","335705","pd782474r7n","ono","swan","22","female","no","no","0","2","null","stimuli/sounds/bleep.wav","null","","","","","","",""
"","","","","","html-keyboard-response","420","2.0.0","336371","pd782474r7n","ono","swan","22","female","no","no","0","2","565","<div style=""font-size:30px;"">Press space to start the trial</div>"," ","","","","","","",""
"","","","","","html-keyboard-response","421","2.0.0","336623","pd782474r7n","ono","swan","22","female","no","no","0","2","null","<div style=""font-size:60px;"">+</div>","null","","","","","","",""
"","","","","","audio-keyboard-response","422","2.0.0","337224","pd782474r7n","ono","swan","22","female","no","no","0","2","null","stimuli/sounds/drop_sound_B.wav","null","","","","","","",""
"","","","","","html-keyboard-response","423","2.0.0","338227","pd782474r7n","ono","swan","22","female","no","no","0","2","null","","null","","","","","","",""
"","","","","","image-keyboard-response","424","2.0.0","338694","pd782474r7n","ono","swan","22","female","no","no","0","2","467","stimuli/pictures/dog_york_1.jpg","0","0","","true","no","sound","stimuli/sounds/drop_sound_B.wav",""
"","","","","","audio-keyboard-response","425","2.0.0","339697","pd782474r7n","ono","swan","22","female","no","no","0","2","null","stimuli/sounds/bleep.wav","null","","","","","","",""
"","","","","","html-keyboard-response","426","2.0.0","340317","pd782474r7n","ono","swan","22","female","no","no","0","2","518","<div style=""font-size:30px;"">Press space to start the trial</div>"," ","","","","","","",""
"","","","","","html-keyboard-response","427","2.0.0","340570","pd782474r7n","ono","swan","22","female","no","no","0","2","null","<div style=""font-size:60px;"">+</div>","null","","","","","","",""
"","","","","","audio-keyboard-response","428","2.0.0","341171","pd782474r7n","ono","swan","22","female","no","no","0","2","null","stimuli/sounds/motor_label_A.wav","null","","","","","","",""
"","","","","","html-keyboard-response","429","2.0.0","342174","pd782474r7n","ono","swan","22","female","no","no","0","2","null","","null","","","","","","",""
"","","","","","image-keyboard-response","430","2.0.0","342608","pd782474r7n","ono","swan","22","female","no","no","0","2","433","stimuli/pictures/dog_york_1.jpg","0","0","","true","no","sound","stimuli/sounds/motor_label_A.wav",""
"","","","","","audio-keyboard-response","431","2.0.0","343611","pd782474r7n","ono","swan","22","female","no","no","0","2","null","stimuli/sounds/bleep.wav","null","","","","","","",""
"","","","","","html-keyboard-response","432","2.0.0","344266","pd782474r7n","ono","swan","22","female","no","no","0","2","553","<div style=""font-size:30px;"">Press space to start the trial</div>"," ","","","","","","",""
"","","","","","html-keyboard-response","433","2.0.0","344518","pd782474r7n","ono","swan","22","female","no","no","0","2","null","<div style=""font-size:60px;"">+</div>","null","","","","","","",""
"","","","","","audio-keyboard-response","434","2.0.0","345119","pd782474r7n","ono","swan","22","female","no","no","0","2","null","stimuli/sounds/dog_label_B.wav","null","","","","","","",""
"","","","","","html-keyboard-response","435","2.0.0","346120","pd782474r7n","ono","swan","22","female","no","no","0","2","null","","null","","","","","","",""
"","","","","","image-keyboard-response","436","2.0.0","346610","pd782474r7n","ono","swan","22","female","no","no","0","2","489","stimuli/pictures/cough_man_2.jpg","0","0","","true","no","sound","stimuli/sounds/dog_label_B.wav",""
"","","","","","audio-keyboard-response","437","2.0.0","347613","pd782474r7n","ono","swan","22","female","no","no","0","2","null","stimuli/sounds/bleep.wav","null","","","","","","",""
"","","","","","html-keyboard-response","438","2.0.0","348284","pd782474r7n","ono","swan","22","female","no","no","0","2","569","<div style=""font-size:30px;"">Press space to start the trial</div>"," ","","","","","","",""
"","","","","","html-keyboard-response","439","2.0.0","348537","pd782474r7n","ono","swan","22","female","no","no","0","2","null","<div style=""font-size:60px;"">+</div>","null","","","","","","",""
"","","","","","audio-keyboard-response","440","2.0.0","349165","pd782474r7n","ono","swan","22","female","no","no","0","2","null","stimuli/sounds/cough_label_A.wav","null","","","","","","",""
"","","","","","html-keyboard-response","441","2.0.0","350167","pd782474r7n","ono","swan","22","female","no","no","0","2","null","","null","","","","","","",""
"","","","","","image-keyboard-response","442","2.0.0","351042","pd782474r7n","ono","swan","22","female","no","no","0","2","874","stimuli/pictures/cough_wom_1.jpg","1","1","","true","yes","sound","stimuli/sounds/cough_label_A.wav",""
"","","","","","audio-keyboard-response","443","2.0.0","352044","pd782474r7n","ono","swan","22","female","no","no","0","2","null","stimuli/sounds/bleep.wav","null","","","","","","",""
"","","","","","html-keyboard-response","444","2.0.0","352745","pd782474r7n","ono","swan","22","female","no","no","0","2","599","<div style=""font-size:30px;"">Press space to start the trial</div>"," ","","","","","","",""
"","","","","","html-keyboard-response","445","2.0.0","352998","pd782474r7n","ono","swan","22","female","no","no","0","2","null","<div style=""font-size:60px;"">+</div>","null","","","","","","",""
"","","","","","audio-keyboard-response","446","2.0.0","353600","pd782474r7n","ono","swan","22","female","no","no","0","2","null","stimuli/sounds/hiccup_sound_A.wav","null","","","","","","",""
"","","","","","html-keyboard-response","447","2.0.0","354602","pd782474r7n","ono","swan","22","female","no","no","0","2","null","","null","","","","","","",""
"","","","","","image-keyboard-response","448","2.0.0","355146","pd782474r7n","ono","swan","22","female","no","no","0","2","543","stimuli/pictures/motor_harley_1.jpg","0","0","","true","no","sound","stimuli/sounds/hiccup_sound_A.wav",""
"","","","","","audio-keyboard-response","449","2.0.0","356148","pd782474r7n","ono","swan","22","female","no","no","0","2","null","stimuli/sounds/bleep.wav","null","","","","","","",""
"","","","","","html-keyboard-response","450","2.0.0","356695","pd782474r7n","ono","swan","22","female","no","no","0","2","445","<div style=""font-size:30px;"">Press space to start the trial</div>"," ","","","","","","",""
"","","","","","html-keyboard-response","451","2.0.0","356946","pd782474r7n","ono","swan","22","female","no","no","0","2","null","<div style=""font-size:60px;"">+</div>","null","","","","","","",""
"","","","","","audio-keyboard-response","452","2.0.0","357495","pd782474r7n","ono","swan","22","female","no","no","0","2","null","stimuli/sounds/drop_label_A.wav","null","","","","","","",""
"","","","","","html-keyboard-response","453","2.0.0","358497","pd782474r7n","ono","swan","22","female","no","no","0","2","null","","null","","","","","","",""
"","","","","","image-keyboard-response","454","2.0.0","359031","pd782474r7n","ono","swan","22","female","no","no","0","2","532","stimuli/pictures/drop_multi_1.jpg","1","1","","true","yes","sound","stimuli/sounds/drop_label_A.wav",""
"","","","","","audio-keyboard-response","455","2.0.0","360034","pd782474r7n","ono","swan","22","female","no","no","0","2","null","stimuli/sounds/bleep.wav","null","","","","","","",""
"","","","","","html-keyboard-response","456","2.0.0","361264","pd782474r7n","ono","swan","22","female","no","no","0","2","1128","<div style=""font-size:30px;"">Press space to start the trial</div>"," ","","","","","","",""
"","","","","","html-keyboard-response","457","2.0.0","361516","pd782474r7n","ono","swan","22","female","no","no","0","2","null","<div style=""font-size:60px;"">+</div>","null","","","","","","",""
"","","","","","audio-keyboard-response","458","2.0.0","362116","pd782474r7n","ono","swan","22","female","no","no","0","2","null","stimuli/sounds/dog_label_B.wav","null","","","","","","",""
"","","","","","html-keyboard-response","459","2.0.0","363118","pd782474r7n","ono","swan","22","female","no","no","0","2","null","","null","","","","","","",""
"","","","","","image-keyboard-response","460","2.0.0","364069","pd782474r7n","ono","swan","22","female","no","no","0","2","949","stimuli/pictures/cough_wom_1.jpg","0","0","","true","no","sound","stimuli/sounds/dog_label_B.wav",""
"","","","","","audio-keyboard-response","461","2.0.0","365071","pd782474r7n","ono","swan","22","female","no","no","0","2","null","stimuli/sounds/bleep.wav","null","","","","","","",""
"","","","","","html-keyboard-response","462","2.0.0","365661","pd782474r7n","ono","swan","22","female","no","no","0","2","488","<div style=""font-size:30px;"">Press space to start the trial</div>"," ","","","","","","",""
"","","","","","html-keyboard-response","463","2.0.0","365912","pd782474r7n","ono","swan","22","female","no","no","0","2","null","<div style=""font-size:60px;"">+</div>","null","","","","","","",""
"","","","","","audio-keyboard-response","464","2.0.0","366516","pd782474r7n","ono","swan","22","female","no","no","0","2","null","stimuli/sounds/dog_sound_A.wav","null","","","","","","",""
"","","","","","html-keyboard-response","465","2.0.0","367519","pd782474r7n","ono","swan","22","female","no","no","0","2","null","","null","","","","","","",""
"","","","","","image-keyboard-response","466","2.0.0","367980","pd782474r7n","ono","swan","22","female","no","no","0","2","460","stimuli/pictures/hiccup_man_2.jpg","0","0","","true","no","sound","stimuli/sounds/dog_sound_A.wav",""
"","","","","","audio-keyboard-response","467","2.0.0","368982","pd782474r7n","ono","swan","22","female","no","no","0","2","null","stimuli/sounds/bleep.wav","null","","","","","","",""
"","","","","","html-keyboard-response","468","2.0.0","369565","pd782474r7n","ono","swan","22","female","no","no","0","2","481","<div style=""font-size:30px;"">Press space to start the trial</div>"," ","","","","","","",""
"","","","","","html-keyboard-response","469","2.0.0","369818","pd782474r7n","ono","swan","22","female","no","no","0","2","null","<div style=""font-size:60px;"">+</div>","null","","","","","","",""
"","","","","","audio-keyboard-response","470","2.0.0","370492","pd782474r7n","ono","swan","22","female","no","no","0","2","null","stimuli/sounds/cough_sound_B.wav","null","","","","","","",""
"","","","","","html-keyboard-response","471","2.0.0","371495","pd782474r7n","ono","swan","22","female","no","no","0","2","null","","null","","","","","","",""
"","","","","","image-keyboard-response","472","2.0.0","372262","pd782474r7n","ono","swan","22","female","no","no","0","2","766","stimuli/pictures/hiccup_wom_1.jpg","0","0","","true","no","sound","stimuli/sounds/cough_sound_B.wav",""
"","","","","","audio-keyboard-response","473","2.0.0","373264","pd782474r7n","ono","swan","22","female","no","no","0","2","null","stimuli/sounds/bleep.wav","null","","","","","","",""
"","","","","","html-keyboard-response","474","2.0.0","374197","pd782474r7n","ono","swan","22","female","no","no","0","2","830","<div style=""font-size:30px;"">Press space to start the trial</div>"," ","","","","","","",""
"","","","","","html-keyboard-response","475","2.0.0","374449","pd782474r7n","ono","swan","22","female","no","no","0","2","null","<div style=""font-size:60px;"">+</div>","null","","","","","","",""
"","","","","","audio-keyboard-response","476","2.0.0","375049","pd782474r7n","ono","swan","22","female","no","no","0","2","null","stimuli/sounds/dog_sound_A.wav","null","","","","","","",""
"","","","","","html-keyboard-response","477","2.0.0","376052","pd782474r7n","ono","swan","22","female","no","no","0","2","null","","null","","","","","","",""
"","","","","","image-keyboard-response","478","2.0.0","376775","pd782474r7n","ono","swan","22","female","no","no","0","2","723","stimuli/pictures/dog_rott_2.jpg","1","1","","true","yes","sound","stimuli/sounds/dog_sound_A.wav",""
"","","","","","audio-keyboard-response","479","2.0.0","377778","pd782474r7n","ono","swan","22","female","no","no","0","2","null","stimuli/sounds/bleep.wav","null","","","","","","",""
"","","","","","html-keyboard-response","480","2.0.0","378291","pd782474r7n","ono","swan","22","female","no","no","0","2","412","<div style=""font-size:30px;"">Press space to start the trial</div>"," ","","","","","","",""
"","","","","","html-keyboard-response","481","2.0.0","378544","pd782474r7n","ono","swan","22","female","no","no","0","2","null","<div style=""font-size:60px;"">+</div>","null","","","","","","",""
"","","","","","audio-keyboard-response","482","2.0.0","379084","pd782474r7n","ono","swan","22","female","no","no","0","2","null","stimuli/sounds/hiccup_label_A.wav","null","","","","","","",""
"","","","","","html-keyboard-response","483","2.0.0","380086","pd782474r7n","ono","swan","22","female","no","no","0","2","null","","null","","","","","","",""
"","","","","","image-keyboard-response","484","2.0.0","380762","pd782474r7n","ono","swan","22","female","no","no","0","2","674","stimuli/pictures/cough_man_1.jpg","0","0","","true","no","sound","stimuli/sounds/hiccup_label_A.wav",""
"","","","","","audio-keyboard-response","485","2.0.0","381765","pd782474r7n","ono","swan","22","female","no","no","0","2","null","stimuli/sounds/bleep.wav","null","","","","","","",""
"","","","","","html-keyboard-response","486","2.0.0","382466","pd782474r7n","ono","swan","22","female","no","no","0","2","600","<div style=""font-size:30px;"">Press space to start the trial</div>"," ","","","","","","",""
"","","","","","html-keyboard-response","487","2.0.0","382718","pd782474r7n","ono","swan","22","female","no","no","0","2","null","<div style=""font-size:60px;"">+</div>","null","","","","","","",""
"","","","","","audio-keyboard-response","488","2.0.0","383321","pd782474r7n","ono","swan","22","female","no","no","0","2","null","stimuli/sounds/motor_sound_B.wav","null","","","","","","",""
"","","","","","html-keyboard-response","489","2.0.0","384324","pd782474r7n","ono","swan","22","female","no","no","0","2","null","","null","","","","","","",""
"","","","","","image-keyboard-response","490","2.0.0","384734","pd782474r7n","ono","swan","22","female","no","no","0","2","409","stimuli/pictures/cough_wom_2.jpg","0","0","","true","no","sound","stimuli/sounds/motor_sound_B.wav",""
"","","","","","audio-keyboard-response","491","2.0.0","385736","pd782474r7n","ono","swan","22","female","no","no","0","2","null","stimuli/sounds/bleep.wav","null","","","","","","",""
"","","","","","html-keyboard-response","492","2.0.0","386349","pd782474r7n","ono","swan","22","female","no","no","0","2","511","<div style=""font-size:30px;"">Press space to start the trial</div>"," ","","","","","","",""
"","","","","","html-keyboard-response","493","2.0.0","386601","pd782474r7n","ono","swan","22","female","no","no","0","2","null","<div style=""font-size:60px;"">+</div>","null","","","","","","",""
"","","","","","audio-keyboard-response","494","2.0.0","387205","pd782474r7n","ono","swan","22","female","no","no","0","2","null","stimuli/sounds/dog_label_B.wav","null","","","","","","",""
"","","","","","html-keyboard-response","495","2.0.0","388208","pd782474r7n","ono","swan","22","female","no","no","0","2","null","","null","","","","","","",""
"","","","","","image-keyboard-response","496","2.0.0","388962","pd782474r7n","ono","swan","22","female","no","no","0","2","753","stimuli/pictures/dog_rott_1.jpg","1","1","","true","yes","sound","stimuli/sounds/dog_label_B.wav",""
