"success","timeout","failed_images","failed_audio","failed_video","trial_type","trial_index","plugin_version","time_elapsed","random_id","condition","participant","age","gender_id","mus_exp","inst_exp","years_exp","mus_listening","rt","stimulus","response","correct_response","practice","correct","congruent","sound_type","audio","question_order"
"true","false","[]","[]","[]","preload","0","2.0.0","160","pdt8l2wq3fy","ono","fawn","20","Male","no","no","0","3-5","","","","","","","","","",""
"","","","","","html-keyboard-response","1","2.0.0","827","pdt8l2wq3fy","ono","fawn","20","Male","no","no","0","3-5","667","Welcome to the experiment! Press any key to begin."," ","","","","","","",""
"true","","","","","fullscreen","2","null","2589","pdt8l2wq3fy","ono","fawn","20","Male","no","no","0","3-5","760","","","","","","","","",""
"","","","","","survey-text","3","2.0.0","92140","pdt8l2wq3fy","ono","fawn","20","Male","no","no","0","3-5","89550","","{""participant_id"":""fawn""}","","","","","","",""
"","","","","","html-keyboard-response","4","2.0.0","93521","pdt8l2wq3fy","ono","fawn","20","Male","no","no","0","3-5","1380","
    <p> Please use headphones for the duration of the study.</p>
    <p> Within each trial, you will hear a sound and then be presented with an image in the center of your screen.</p>
    <p>Press the <b>'1'</b> key if what you hear <u>matches</u> what you see.</p>
    <p>Press the <b>'0'</b> key if what you hear <u>does not match</u> what you see.</p>
    <p>Try to respond as quickly and accurately as you can.</p>
    <p> Press any key to begin.</p>
    "," ","","","","","","",""
"","","","","","html-keyboard-response","5","2.0.0","94596","pdt8l2wq3fy","ono","fawn","20","Male","no","no","0","3-5","1073","
    <div style=""font-size:28px;"">
      <p>You will now complete 4 short practice trials.</p>
      <p>This is just to help you get familiar with the task.</p>
      <p>Press any key to begin.</p>
    </div>
  "," ","","","","","","",""
"","","","","","html-keyboard-response","6","2.0.0","95098","pdt8l2wq3fy","ono","fawn","20","Male","no","no","0","3-5","null","<div style=""font-size:60px;"">+</div>","null","","","","","","",""
"","","","","","audio-keyboard-response","7","2.0.0","95989","pdt8l2wq3fy","ono","fawn","20","Male","no","no","0","3-5","null","stimuli/sounds/guitar_label_A.wav","null","","","","","","",""
"","","","","","image-keyboard-response","8","2.0.0","102027","pdt8l2wq3fy","ono","fawn","20","Male","no","no","0","3-5","6036","stimuli/pictures/guitar_acoustic_1.jpg","1","1","true","true","","","",""
"","","","","","audio-keyboard-response","9","2.0.0","102830","pdt8l2wq3fy","ono","fawn","20","Male","no","no","0","3-5","null","stimuli/sounds/bleep.wav","null","","","","","","",""
"","","","","","html-keyboard-response","10","2.0.0","103533","pdt8l2wq3fy","ono","fawn","20","Male","no","no","0","3-5","null","<p style='color:green; font-size:30px;'>Correct!</p>","null","","","","","","",""
"","","","","","html-keyboard-response","11","2.0.0","104036","pdt8l2wq3fy","ono","fawn","20","Male","no","no","0","3-5","null","<div style=""font-size:60px;"">+</div>","null","","","","","","",""
"","","","","","audio-keyboard-response","12","2.0.0","104635","pdt8l2wq3fy","ono","fawn","20","Male","no","no","0","3-5","null","stimuli/sounds/guitar_sound_B.wav","null","","","","","","",""
"","","","","","image-keyboard-response","13","2.0.0","107544","pdt8l2wq3fy","ono","fawn","20","Male","no","no","0","3-5","2907","stimuli/pictures/guitar_acoustic_2.jpg","1","1","true","true","","","",""
"","","","","","audio-keyboard-response","14","2.0.0","108347","pdt8l2wq3fy","ono","fawn","20","Male","no","no","0","3-5","null","stimuli/sounds/bleep.wav","null","","","","","","",""
"","","","","","html-keyboard-response","15","2.0.0","109050","pdt8l2wq3fy","ono","fawn","20","Male","no","no","0","3-5","null","<p style='color:green; font-size:30px;'>Correct!</p>","null","","","","","","",""
"","","","","","html-keyboard-response","16","2.0.0","109552","pdt8l2wq3fy","ono","fawn","20","Male","no","no","0","3-5","null","<div style=""font-size:60px;"">+</div>","null","","","","","","",""
"","","","","","audio-keyboard-response","17","2.0.0","110155","pdt8l2wq3fy","ono","fawn","20","Male","no","no","0","3-5","null","stimuli/sounds/flute_sound_A.wav","null","","","","","","",""
"","","","","","image-keyboard-response","18","2.0.0","111729","pdt8l2wq3fy","ono","fawn","20","Male","no","no","0","3-5","1572","stimuli/pictures/guitar_electric_1.jpg","0","0","true","true","","","",""
"","","","","","audio-keyboard-response","19","2.0.0","112532","pdt8l2wq3fy","ono","fawn","20","Male","no","no","0","3-5","null","stimuli/sounds/bleep.wav","null","","","","","","",""
"","","","","","html-keyboard-response","20","2.0.0","113235","pdt8l2wq3fy","ono","fawn","20","Male","no","no","0","3-5","null","<p style='color:green; font-size:30px;'>Correct!</p>","null","","","","","","",""
"","","","","","html-keyboard-response","21","2.0.0","113738","pdt8l2wq3fy","ono","fawn","20","Male","no","no","0","3-5","null","<div style=""font-size:60px;"">+</div>","null","","","","","","",""
"","","","","","audio-keyboard-response","22","2.0.0","114336","pdt8l2wq3fy","ono","fawn","20","Male","no","no","0","3-5","null","stimuli/sounds/guitar_sound_A.wav","null","","","","","","",""
"","","","","","image-keyboard-response","23","2.0.0","118990","pdt8l2wq3fy","ono","fawn","20","Male","no","no","0","3-5","4652","stimuli/pictures/guitar_acoustic_1.jpg","1","1","true","true","","","",""
"","","","","","audio-keyboard-response","24","2.0.0","119794","pdt8l2wq3fy","ono","fawn","20","Male","no","no","0","3-5","null","stimuli/sounds/bleep.wav","null","","","","","","",""
"","","","","","html-keyboard-response","25","2.0.0","120496","pdt8l2wq3fy","ono","fawn","20","Male","no","no","0","3-5","null","<p style='color:green; font-size:30px;'>Correct!</p>","null","","","","","","",""
"","","","","","html-keyboard-response","26","2.0.0","122320","pdt8l2wq3fy","ono","fawn","20","Male","no","no","0","3-5","1823","<p>Practice complete. Press any key to begin the real experiment.</p>"," ","","","","","","",""
"","","","","","html-keyboard-response","27","2.0.0","129237","pdt8l2wq3fy","ono","fawn","20","Male","no","no","0","3-5","6916","<div style=""font-size:30px;"">Press space to start the trial</div>"," ","","","","","","",""
"","","","","","html-keyboard-response","28","2.0.0","129489","pdt8l2wq3fy","ono","fawn","20","Male","no","no","0","3-5","null","<div style=""font-size:60px;"">+</div>","null","","","","","","",""
"","","","","","audio-keyboard-response","29","2.0.0","130095","pdt8l2wq3fy","ono","fawn","20","Male","no","no","0","3-5","null","stimuli/sounds/hiccup_label_B.wav","null","","","","","","",""
"","","","","","html-keyboard-response","30","2.0.0","131098","pdt8l2wq3fy","ono","fawn","20","Male","no","no","0","3-5","null","","null","","","","","","",""
"","","","","","image-keyboard-response","31","2.0.0","133504","pdt8l2wq3fy","ono","fawn","20","Male","no","no","0","3-5","2403","stimuli/pictures/dog_rott_1.jpg","0","0","","true","no","sound","stimuli/sounds/hiccup_label_B.wav",""
"","","","","","audio-keyboard-response","32","2.0.0","134506","pdt8l2wq3fy","ono","fawn","20","Male","no","no","0","3-5","null","stimuli/sounds/bleep.wav","null","","","","","","",""
"","","","","","html-keyboard-response","33","2.0.0","136531","pdt8l2wq3fy","ono","fawn","20","Male","no","no","0","3-5","1923","<div style=""font-size:30px;"">Press space to start the trial</div>"," ","","","","","","",""
"","","","","","html-keyboard-response","34","2.0.0","136783","pdt8l2wq3fy","ono","fawn","20","Male","no","no","0","3-5","null","<div style=""font-size:60px;"">+</div>","null","","","","","","",""
"","","","","","audio-keyboard-response","35","2.0.0","137381","pdt8l2wq3fy","ono","fawn","20","Male","no","no","0","3-5","null","stimuli/sounds/motor_sound_A.wav","null","","","","","","",""
"","","","","","html-keyboard-response","36","2.0.0","138384","pdt8l2wq3fy","ono","fawn","20","Male","no","no","0","3-5","null","","null","","","","","","",""
"","","","","","image-keyboard-response","37","2.0.0","139577","pdt8l2wq3fy","ono","fawn","20","Male","no","no","0","3-5","1191","stimuli/pictures/drop_single_2.jpg","0","0","","true","no","sound","stimuli/sounds/motor_sound_A.wav",""
"","","","","","audio-keyboard-response","38","2.0.0","140579","pdt8l2wq3fy","ono","fawn","20","Male","no","no","0","3-5","null","stimuli/sounds/bleep.wav","null","","","","","","",""
"","","","","","html-keyboard-response","39","2.0.0","141902","pdt8l2wq3fy","ono","fawn","20","Male","no","no","0","3-5","1219","<div style=""font-size:30px;"">Press space to start the trial</div>"," ","","","","","","",""
"","","","","","html-keyboard-response","40","2.0.0","142153","pdt8l2wq3fy","ono","fawn","20","Male","no","no","0","3-5","null","<div style=""font-size:60px;"">+</div>","null","","","","","","",""
"","","","","","audio-keyboard-response","41","2.0.0","142756","pdt8l2wq3fy","ono","fawn","20","Male","no","no","0","3-5","null","stimuli/sounds/dog_label_B.wav","null","","","","","","",""
"","","","","","html-keyboard-response","42","2.0.0","143758","pdt8l2wq3fy","ono","fawn","20","Male","no","no","0","3-5","null","","null","","","","","","",""
"","","","","","image-keyboard-response","43","2.0.0","144950","pdt8l2wq3fy","ono","fawn","20","Male","no","no","0","3-5","1189","stimuli/pictures/cough_man_1.jpg","0","0","","true","no","sound","stimuli/sounds/dog_label_B.wav",""
"","","","","","audio-keyboard-response","44","2.0.0","145953","pdt8l2wq3fy","ono","fawn","20","Male","no","no","0","3-5","null","stimuli/sounds/bleep.wav","null","","","","","","",""
"","","","","","html-keyboard-response","45","2.0.0","147155","pdt8l2wq3fy","ono","fawn","20","Male","no","no","0","3-5","1100","<div style=""font-size:30px;"">Press space to start the trial</div>"," ","","","","","","",""
"","","","","","html-keyboard-response","46","2.0.0","147408","pdt8l2wq3fy","ono","fawn","20","Male","no","no","0","3-5","null","<div style=""font-size:60px;"">+</div>","null","","","","","","",""
"","","","","","audio-keyboard-response","47","2.0.0","148084","pdt8l2wq3fy","ono","fawn","20","Male","no","no","0","3-5","null","stimuli/sounds/cough_sound_B.wav","null","","","","","","",""
"","","","","","html-keyboard-response","48","2.0.0","149086","pdt8l2wq3fy","ono","fawn","20","Male","no","no","0","3-5","null","","null","","","","","","",""
"","","","","","image-keyboard-response","49","2.0.0","150391","pdt8l2wq3fy","ono","fawn","20","Male","no","no","0","3-5","1303","stimuli/pictures/cough_wom_2.jpg","1","1","","true","no","sound","stimuli/sounds/cough_sound_B.wav",""
"","","","","","audio-keyboard-response","50","2.0.0","151394","pdt8l2wq3fy","ono","fawn","20","Male","no","no","0","3-5","null","stimuli/sounds/bleep.wav","null","","","","","","",""
"","","","","","html-keyboard-response","51","2.0.0","152602","pdt8l2wq3fy","ono","fawn","20","Male","no","no","0","3-5","1105","<div style=""font-size:30px;"">Press space to start the trial</div>"," ","","","","","","",""
"","","","","","html-keyboard-response","52","2.0.0","152854","pdt8l2wq3fy","ono","fawn","20","Male","no","no","0","3-5","null","<div style=""font-size:60px;"">+</div>","null","","","","","","",""
"","","","","","audio-keyboard-response","53","2.0.0","153453","pdt8l2wq3fy","ono","fawn","20","Male","no","no","0","3-5","null","stimuli/sounds/dog_label_A.wav","null","","","","","","",""
"","","","","","html-keyboard-response","54","2.0.0","154455","pdt8l2wq3fy","ono","fawn","20","Male","no","no","0","3-5","null","","null","","","","","","",""
"","","","","","image-keyboard-response","55","2.0.0","155143","pdt8l2wq3fy","ono","fawn","20","Male","no","no","0","3-5","685","stimuli/pictures/dog_york_2.jpg","1","1","","true","yes","sound","stimuli/sounds/dog_label_A.wav",""
"","","","","","audio-keyboard-response","56","2.0.0","156146","pdt8l2wq3fy","ono","fawn","20","Male","no","no","0","3-5","null","stimuli/sounds/bleep.wav","null","","","","","","",""
"","","","","","html-keyboard-response","57","2.0.0","157837","pdt8l2wq3fy","ono","fawn","20","Male","no","no","0","3-5","1588","<div style=""font-size:30px;"">Press space to start the trial</div>"," ","","","","","","",""
"","","","","","html-keyboard-response","58","2.0.0","158089","pdt8l2wq3fy","ono","fawn","20","Male","no","no","0","3-5","null","<div style=""font-size:60px;"">+</div>","null","","","","","","",""
"","","","","","audio-keyboard-response","59","2.0.0","158688","pdt8l2wq3fy","ono","fawn","20","Male","no","no","0","3-5","null","stimuli/sounds/dog_sound_B.wav","null","","","","","","",""
"","","","","","html-keyboard-response","60","2.0.0","159691","pdt8l2wq3fy","ono","fawn","20","Male","no","no","0","3-5","null","","null","","","","","","",""
"","","","","","image-keyboard-response","61","2.0.0","162300","pdt8l2wq3fy","ono","fawn","20","Male","no","no","0","3-5","2607","stimuli/pictures/dog_rott_2.jpg","1","1","","true","no","sound","stimuli/sounds/dog_sound_B.wav",""
"","","","","","audio-keyboard-response","62","2.0.0","163303","pdt8l2wq3fy","ono","fawn","20","Male","no","no","0","3-5","null","stimuli/sounds/bleep.wav","null","","","","","","",""
"","","","","","html-keyboard-response","63","2.0.0","169225","pdt8l2wq3fy","ono","fawn","20","Male","no","no","0","3-5","5820","<div style=""font-size:30px;"">Press space to start the trial</div>"," ","","","","","","",""
"","","","","","html-keyboard-response","64","2.0.0","169478","pdt8l2wq3fy","ono","fawn","20","Male","no","no","0","3-5","null","<div style=""font-size:60px;"">+</div>","null","","","","","","",""
"","","","","","audio-keyboard-response","65","2.0.0","170017","pdt8l2wq3fy","ono","fawn","20","Male","no","no","0","3-5","null","stimuli/sounds/hiccup_label_A.wav","null","","","","","","",""
"","","","","","html-keyboard-response","66","2.0.0","171019","pdt8l2wq3fy","ono","fawn","20","Male","no","no","0","3-5","null","","null","","","","","","",""
"","","","","","image-keyboard-response","67","2.0.0","174707","pdt8l2wq3fy","ono","fawn","20","Male","no","no","0","3-5","3686","stimuli/pictures/hiccup_wom_1.jpg","1","1","","true","yes","sound","stimuli/sounds/hiccup_label_A.wav",""
"","","","","","audio-keyboard-response","68","2.0.0","175709","pdt8l2wq3fy","ono","fawn","20","Male","no","no","0","3-5","null","stimuli/sounds/bleep.wav","null","","","","","","",""
"","","","","","html-keyboard-response","69","2.0.0","178638","pdt8l2wq3fy","ono","fawn","20","Male","no","no","0","3-5","2827","<div style=""font-size:30px;"">Press space to start the trial</div>"," ","","","","","","",""
"","","","","","html-keyboard-response","70","2.0.0","178890","pdt8l2wq3fy","ono","fawn","20","Male","no","no","0","3-5","null","<div style=""font-size:60px;"">+</div>","null","","","","","","",""
"","","","","","audio-keyboard-response","71","2.0.0","179503","pdt8l2wq3fy","ono","fawn","20","Male","no","no","0","3-5","null","stimuli/sounds/hiccup_label_B.wav","null","","","","","","",""
"","","","","","html-keyboard-response","72","2.0.0","180506","pdt8l2wq3fy","ono","fawn","20","Male","no","no","0","3-5","null","","null","","","","","","",""
"","","","","","image-keyboard-response","73","2.0.0","181533","pdt8l2wq3fy","ono","fawn","20","Male","no","no","0","3-5","1025","stimuli/pictures/dog_york_1.jpg","0","0","","true","no","sound","stimuli/sounds/hiccup_label_B.wav",""
"","","","","","audio-keyboard-response","74","2.0.0","182535","pdt8l2wq3fy","ono","fawn","20","Male","no","no","0","3-5","null","stimuli/sounds/bleep.wav","null","","","","","","",""
"","","","","","html-keyboard-response","75","2.0.0","183672","pdt8l2wq3fy","ono","fawn","20","Male","no","no","0","3-5","1034","<div style=""font-size:30px;"">Press space to start the trial</div>"," ","","","","","","",""
"","","","","","html-keyboard-response","76","2.0.0","183924","pdt8l2wq3fy","ono","fawn","20","Male","no","no","0","3-5","null","<div style=""font-size:60px;"">+</div>","null","","","","","","",""
"","","","","","audio-keyboard-response","77","2.0.0","184530","pdt8l2wq3fy","ono","fawn","20","Male","no","no","0","3-5","null","stimuli/sounds/hiccup_sound_A.wav","null","","","","","","",""
"","","","","","html-keyboard-response","78","2.0.0","185533","pdt8l2wq3fy","ono","fawn","20","Male","no","no","0","3-5","null","","null","","","","","","",""
"","","","","","image-keyboard-response","79","2.0.0","186277","pdt8l2wq3fy","ono","fawn","20","Male","no","no","0","3-5","742","stimuli/pictures/motor_harley_2.jpg","0","0","","true","no","sound","stimuli/sounds/hiccup_sound_A.wav",""
"","","","","","audio-keyboard-response","80","2.0.0","187279","pdt8l2wq3fy","ono","fawn","20","Male","no","no","0","3-5","null","stimuli/sounds/bleep.wav","null","","","","","","",""
"","","","","","html-keyboard-response","81","2.0.0","188784","pdt8l2wq3fy","ono","fawn","20","Male","no","no","0","3-5","1403","<div style=""font-size:30px;"">Press space to start the trial</div>"," ","","","","","","",""
"","","","","","html-keyboard-response","82","2.0.0","189037","pdt8l2wq3fy","ono","fawn","20","Male","no","no","0","3-5","null","<div style=""font-size:60px;"">+</div>","null","","","","","","",""
"","","","","","audio-keyboard-response","83","2.0.0","189644","pdt8l2wq3fy","ono","fawn","20","Male","no","no","0","3-5","null","stimuli/sounds/motor_sound_A.wav","null","","","","","","",""
"","","","","","html-keyboard-response","84","2.0.0","190647","pdt8l2wq3fy","ono","fawn","20","Male","no","no","0","3-5","null","","null","","","","","","",""
"","","","","","image-keyboard-response","85","2.0.0","191497","pdt8l2wq3fy","ono","fawn","20","Male","no","no","0","3-5","847","stimuli/pictures/motor_harley_1.jpg","1","1","","true","no","sound","stimuli/sounds/motor_sound_A.wav",""
"","","","","","audio-keyboard-response","86","2.0.0","192500","pdt8l2wq3fy","ono","fawn","20","Male","no","no","0","3-5","null","stimuli/sounds/bleep.wav","null","","","","","","",""
"","","","","","html-keyboard-response","87","2.0.0","193372","pdt8l2wq3fy","ono","fawn","20","Male","no","no","0","3-5","771","<div style=""font-size:30px;"">Press space to start the trial</div>"," ","","","","","","",""
"","","","","","html-keyboard-response","88","2.0.0","193626","pdt8l2wq3fy","ono","fawn","20","Male","no","no","0","3-5","null","<div style=""font-size:60px;"">+</div>","null","","","","","","",""
"","","","","","audio-keyboard-response","89","2.0.0","194231","pdt8l2wq3fy","ono","fawn","20","Male","no","no","0","3-5","null","stimuli/sounds/hiccup_sound_A.wav","null","","","","","","",""
"","","","","","html-keyboard-response","90","2.0.0","195234","pdt8l2wq3fy","ono","fawn","20","Male","no","no","0","3-5","null","","null","","","","","","",""
"","","","","","image-keyboard-response","91","2.0.0","196249","pdt8l2wq3fy","ono","fawn","20","Male","no","no","0","3-5","1013","stimuli/pictures/motor_dirt_1.jpg","0","0","","true","no","sound","stimuli/sounds/hiccup_sound_A.wav",""
"","","","","","audio-keyboard-response","92","2.0.0","197252","pdt8l2wq3fy","ono","fawn","20","Male","no","no","0","3-5","null","stimuli/sounds/bleep.wav","null","","","","","","",""
"","","","","","html-keyboard-response","93","2.0.0","198213","pdt8l2wq3fy","ono","fawn","20","Male","no","no","0","3-5","858","<div style=""font-size:30px;"">Press space to start the trial</div>"," ","","","","","","",""
"","","","","","html-keyboard-response","94","2.0.0","198466","pdt8l2wq3fy","ono","fawn","20","Male","no","no","0","3-5","null","<div style=""font-size:60px;"">+</div>","null","","","","","","",""
"","","","","","audio-keyboard-response","95","2.0.0","199067","pdt8l2wq3fy","ono","fawn","20","Male","no","no","0","3-5","null","stimuli/sounds/motor_label_B.wav","null","","","","","","",""
"","","","","","html-keyboard-response","96","2.0.0","200070","pdt8l2wq3fy","ono","fawn","20","Male","no","no","0","3-5","null","","null","","","","","","",""
"","","","","","image-keyboard-response","97","2.0.0","200789","pdt8l2wq3fy","ono","fawn","20","Male","no","no","0","3-5","717","stimuli/pictures/hiccup_man_2.jpg","0","0","","true","no","sound","stimuli/sounds/motor_label_B.wav",""
"","","","","","audio-keyboard-response","98","2.0.0","201792","pdt8l2wq3fy","ono","fawn","20","Male","no","no","0","3-5","null","stimuli/sounds/bleep.wav","null","","","","","","",""
"","","","","","html-keyboard-response","99","2.0.0","202626","pdt8l2wq3fy","ono","fawn","20","Male","no","no","0","3-5","732","<div style=""font-size:30px;"">Press space to start the trial</div>"," ","","","","","","",""
"","","","","","html-keyboard-response","100","2.0.0","202878","pdt8l2wq3fy","ono","fawn","20","Male","no","no","0","3-5","null","<div style=""font-size:60px;"">+</div>","null","","","","","","",""
"","","","","","audio-keyboard-response","101","2.0.0","203480","pdt8l2wq3fy","ono","fawn","20","Male","no","no","0","3-5","null","stimuli/sounds/hiccup_sound_B.wav","null","","","","","","",""
"","","","","","html-keyboard-response","102","2.0.0","204483","pdt8l2wq3fy","ono","fawn","20","Male","no","no","0","3-5","null","","null","","","","","","",""
"","","","","","image-keyboard-response","103","2.0.0","207039","pdt8l2wq3fy","ono","fawn","20","Male","no","no","0","3-5","2554","stimuli/pictures/hiccup_man_1.jpg","1","1","","true","yes","sound","stimuli/sounds/hiccup_sound_B.wav",""
"","","","","","audio-keyboard-response","104","2.0.0","208041","pdt8l2wq3fy","ono","fawn","20","Male","no","no","0","3-5","null","stimuli/sounds/bleep.wav","null","","","","","","",""
"","","","","","html-keyboard-response","105","2.0.0","208732","pdt8l2wq3fy","ono","fawn","20","Male","no","no","0","3-5","588","<div style=""font-size:30px;"">Press space to start the trial</div>"," ","","","","","","",""
"","","","","","html-keyboard-response","106","2.0.0","208985","pdt8l2wq3fy","ono","fawn","20","Male","no","no","0","3-5","null","<div style=""font-size:60px;"">+</div>","null","","","","","","",""
"","","","","","audio-keyboard-response","107","2.0.0","209591","pdt8l2wq3fy","ono","fawn","20","Male","no","no","0","3-5","null","stimuli/sounds/dog_sound_B.wav","null","","","","","","",""
"","","","","","html-keyboard-response","108","2.0.0","210593","pdt8l2wq3fy","ono","fawn","20","Male","no","no","0","3-5","null","","null","","","","","","",""
"","","","","","image-keyboard-response","109","2.0.0","211450","pdt8l2wq3fy","ono","fawn","20","Male","no","no","0","3-5","855","stimuli/pictures/motor_dirt_2.jpg","0","0","","true","no","sound","stimuli/sounds/dog_sound_B.wav",""
"","","","","","audio-keyboard-response","110","2.0.0","212454","pdt8l2wq3fy","ono","fawn","20","Male","no","no","0","3-5","null","stimuli/sounds/bleep.wav","null","","","","","","",""
"","","","","","html-keyboard-response","111","2.0.0","213116","pdt8l2wq3fy","ono","fawn","20","Male","no","no","0","3-5","560","<div style=""font-size:30px;"">Press space to start the trial</div>"," ","","","","","","",""
"","","","","","html-keyboard-response","112","2.0.0","213369","pdt8l2wq3fy","ono","fawn","20","Male","no","no","0","3-5","null","<div style=""font-size:60px;"">+</div>","null","","","","","","",""
"","","","","","audio-keyboard-response","113","2.0.0","213969","pdt8l2wq3fy","ono","fawn","20","Male","no","no","0","3-5","null","stimuli/sounds/dog_label_A.wav","null","","","","","","",""
"","","","","","html-keyboard-response","114","2.0.0","214972","pdt8l2wq3fy","ono","fawn","20","Male","no","no","0","3-5","null","","null","","","","","","",""
"","","","","","image-keyboard-response","115","2.0.0","215673","pdt8l2wq3fy","ono","fawn","20","Male","no","no","0","3-5","699","stimuli/pictures/drop_multi_2.jpg","0","0","","true","no","sound","stimuli/sounds/dog_label_A.wav",""
"","","","","","audio-keyboard-response","116","2.0.0","216676","pdt8l2wq3fy","ono","fawn","20","Male","no","no","0","3-5","null","stimuli/sounds/bleep.wav","null","","","","","","",""
"","","","","","html-keyboard-response","117","2.0.0","217581","pdt8l2wq3fy","ono","fawn","20","Male","no","no","0","3-5","802","<div style=""font-size:30px;"">Press space to start the trial</div>"," ","","","","","","",""
"","","","","","html-keyboard-response","118","2.0.0","217834","pdt8l2wq3fy","ono","fawn","20","Male","no","no","0","3-5","null","<div style=""font-size:60px;"">+</div>","null","","","","","","",""
"","","","","","audio-keyboard-response","119","2.0.0","218434","pdt8l2wq3fy","ono","fawn","20","Male","no","no","0","3-5","null","stimuli/sounds/dog_sound_A.wav","null","","","","","","",""
"","","","","","html-keyboard-response","120","2.0.0","219436","pdt8l2wq3fy","ono","fawn","20","Male","no","no","0","3-5","null","","null","","","","","","",""
"","","","","","image-keyboard-response","121","2.0.0","220023","pdt8l2wq3fy","ono","fawn","20","Male","no","no","0","3-5","584","stimuli/pictures/dog_rott_1.jpg","1","1","","true","yes","sound","stimuli/sounds/dog_sound_A.wav",""
"","","","","","audio-keyboard-response","122","2.0.0","221026","pdt8l2wq3fy","ono","fawn","20","Male","no","no","0","3-5","null","stimuli/sounds/bleep.wav","null","","","","","","",""
"","","","","","html-keyboard-response","123","2.0.0","222049","pdt8l2wq3fy","ono","fawn","20","Male","no","no","0","3-5","921","<div style=""font-size:30px;"">Press space to start the trial</div>"," ","","","","","","",""
"","","","","","html-keyboard-response","124","2.0.0","222302","pdt8l2wq3fy","ono","fawn","20","Male","no","no","0","3-5","null","<div style=""font-size:60px;"">+</div>","null","","","","","","",""
"","","","","","audio-keyboard-response","125","2.0.0","222905","pdt8l2wq3fy","ono","fawn","20","Male","no","no","0","3-5","null","stimuli/sounds/hiccup_sound_B.wav","null","","","","","","",""
"","","","","","html-keyboard-response","126","2.0.0","223907","pdt8l2wq3fy","ono","fawn","20","Male","no","no","0","3-5","null","","null","","","","","","",""
"","","","","","image-keyboard-response","127","2.0.0","225987","pdt8l2wq3fy","ono","fawn","20","Male","no","no","0","3-5","2078","stimuli/pictures/hiccup_wom_2.jpg","1","1","","true","no","sound","stimuli/sounds/hiccup_sound_B.wav",""
"","","","","","audio-keyboard-response","128","2.0.0","226990","pdt8l2wq3fy","ono","fawn","20","Male","no","no","0","3-5","null","stimuli/sounds/bleep.wav","null","","","","","","",""
"","","","","","html-keyboard-response","129","2.0.0","227681","pdt8l2wq3fy","ono","fawn","20","Male","no","no","0","3-5","589","<div style=""font-size:30px;"">Press space to start the trial</div>"," ","","","","","","",""
"","","","","","html-keyboard-response","130","2.0.0","227933","pdt8l2wq3fy","ono","fawn","20","Male","no","no","0","3-5","null","<div style=""font-size:60px;"">+</div>","null","","","","","","",""
"","","","","","audio-keyboard-response","131","2.0.0","228535","pdt8l2wq3fy","ono","fawn","20","Male","no","no","0","3-5","null","stimuli/sounds/dog_sound_B.wav","null","","","","","","",""
"","","","","","html-keyboard-response","132","2.0.0","229537","pdt8l2wq3fy","ono","fawn","20","Male","no","no","0","3-5","null","","null","","","","","","",""
"","","","","","image-keyboard-response","133","2.0.0","230360","pdt8l2wq3fy","ono","fawn","20","Male","no","no","0","3-5","820","stimuli/pictures/motor_harley_2.jpg","0","0","","true","no","sound","stimuli/sounds/dog_sound_B.wav",""
"","","","","","audio-keyboard-response","134","2.0.0","231362","pdt8l2wq3fy","ono","fawn","20","Male","no","no","0","3-5","null","stimuli/sounds/bleep.wav","null","","","","","","",""
"","","","","","html-keyboard-response","135","2.0.0","232044","pdt8l2wq3fy","ono","fawn","20","Male","no","no","0","3-5","579","<div style=""font-size:30px;"">Press space to start the trial</div>"," ","","","","","","",""
"","","","","","html-keyboard-response","136","2.0.0","232297","pdt8l2wq3fy","ono","fawn","20","Male","no","no","0","3-5","null","<div style=""font-size:60px;"">+</div>","null","","","","","","",""
"","","","","","audio-keyboard-response","137","2.0.0","232878","pdt8l2wq3fy","ono","fawn","20","Male","no","no","0","3-5","null","stimuli/sounds/drop_sound_A.wav","null","","","","","","",""
"","","","","","html-keyboard-response","138","2.0.0","233881","pdt8l2wq3fy","ono","fawn","20","Male","no","no","0","3-5","null","","null","","","","","","",""
"","","","","","image-keyboard-response","139","2.0.0","235104","pdt8l2wq3fy","ono","fawn","20","Male","no","no","0","3-5","1221","stimuli/pictures/drop_single_1.jpg","1","1","","true","yes","sound","stimuli/sounds/drop_sound_A.wav",""
"","","","","","audio-keyboard-response","140","2.0.0","236106","pdt8l2wq3fy","ono","fawn","20","Male","no","no","0","3-5","null","stimuli/sounds/bleep.wav","null","","","","","","",""
"","","","","","html-keyboard-response","141","2.0.0","237555","pdt8l2wq3fy","ono","fawn","20","Male","no","no","0","3-5","1347","<div style=""font-size:30px;"">Press space to start the trial</div>"," ","","","","","","",""
"","","","","","html-keyboard-response","142","2.0.0","237808","pdt8l2wq3fy","ono","fawn","20","Male","no","no","0","3-5","null","<div style=""font-size:60px;"">+</div>","null","","","","","","",""
"","","","","","audio-keyboard-response","143","2.0.0","238409","pdt8l2wq3fy","ono","fawn","20","Male","no","no","0","3-5","null","stimuli/sounds/dog_label_B.wav","null","","","","","","",""
"","","","","","html-keyboard-response","144","2.0.0","239412","pdt8l2wq3fy","ono","fawn","20","Male","no","no","0","3-5","null","","null","","","","","","",""
"","","","","","image-keyboard-response","145","2.0.0","240178","pdt8l2wq3fy","ono","fawn","20","Male","no","no","0","3-5","763","stimuli/pictures/dog_york_2.jpg","1","1","","true","yes","sound","stimuli/sounds/dog_label_B.wav",""
"","","","","","audio-keyboard-response","146","2.0.0","241181","pdt8l2wq3fy","ono","fawn","20","Male","no","no","0","3-5","null","stimuli/sounds/bleep.wav","null","","","","","","",""
"","","","","","html-keyboard-response","147","2.0.0","246477","pdt8l2wq3fy","ono","fawn","20","Male","no","no","0","3-5","5194","<p>You have completed a block. Press R when you are ready to continue</p>","r","","","","","","",""
"","","","","","html-keyboard-response","148","2.0.0","247550","pdt8l2wq3fy","ono","fawn","20","Male","no","no","0","3-5","1072","<div style=""font-size:30px;"">Press space to start the trial</div>"," ","","","","","","",""
"","","","","","html-keyboard-response","149","2.0.0","247803","pdt8l2wq3fy","ono","fawn","20","Male","no","no","0","3-5","null","<div style=""font-size:60px;"">+</div>","null","","","","","","",""
"","","","","","audio-keyboard-response","150","2.0.0","248481","pdt8l2wq3fy","ono","fawn","20","Male","no","no","0","3-5","null","stimuli/sounds/cough_sound_B.wav","null","","","","","","",""
"","","","","","html-keyboard-response","151","2.0.0","249484","pdt8l2wq3fy","ono","fawn","20","Male","no","no","0","3-5","null","","null","","","","","","",""
"","","","","","image-keyboard-response","152","2.0.0","252830","pdt8l2wq3fy","ono","fawn","20","Male","no","no","0","3-5","3344","stimuli/pictures/cough_man_1.jpg","0","1","","false","yes","sound","stimuli/sounds/cough_sound_B.wav",""
"","","","","","audio-keyboard-response","153","2.0.0","253833","pdt8l2wq3fy","ono","fawn","20","Male","no","no","0","3-5","null","stimuli/sounds/buzz.wav","null","","","","","","",""
"","","","","","html-keyboard-response","154","2.0.0","255737","pdt8l2wq3fy","ono","fawn","20","Male","no","no","0","3-5","1802","<div style=""font-size:30px;"">Press space to start the trial</div>"," ","","","","","","",""
"","","","","","html-keyboard-response","155","2.0.0","255989","pdt8l2wq3fy","ono","fawn","20","Male","no","no","0","3-5","null","<div style=""font-size:60px;"">+</div>","null","","","","","","",""
"","","","","","audio-keyboard-response","156","2.0.0","256653","pdt8l2wq3fy","ono","fawn","20","Male","no","no","0","3-5","null","stimuli/sounds/cough_sound_A.wav","null","","","","","","",""
"","","","","","html-keyboard-response","157","2.0.0","257655","pdt8l2wq3fy","ono","fawn","20","Male","no","no","0","3-5","null","","null","","","","","","",""
"","","","","","image-keyboard-response","158","2.0.0","258714","pdt8l2wq3fy","ono","fawn","20","Male","no","no","0","3-5","1057","stimuli/pictures/dog_rott_1.jpg","0","0","","true","no","sound","stimuli/sounds/cough_sound_A.wav",""
"","","","","","audio-keyboard-response","159","2.0.0","259717","pdt8l2wq3fy","ono","fawn","20","Male","no","no","0","3-5","null","stimuli/sounds/bleep.wav","null","","","","","","",""
"","","","","","html-keyboard-response","160","2.0.0","260472","pdt8l2wq3fy","ono","fawn","20","Male","no","no","0","3-5","652","<div style=""font-size:30px;"">Press space to start the trial</div>"," ","","","","","","",""
"","","","","","html-keyboard-response","161","2.0.0","260725","pdt8l2wq3fy","ono","fawn","20","Male","no","no","0","3-5","null","<div style=""font-size:60px;"">+</div>","null","","","","","","",""
"","","","","","audio-keyboard-response","162","2.0.0","261263","pdt8l2wq3fy","ono","fawn","20","Male","no","no","0","3-5","null","stimuli/sounds/hiccup_label_A.wav","null","","","","","","",""
"","","","","","html-keyboard-response","163","2.0.0","262266","pdt8l2wq3fy","ono","fawn","20","Male","no","no","0","3-5","null","","null","","","","","","",""
"","","","","","image-keyboard-response","164","2.0.0","264048","pdt8l2wq3fy","ono","fawn","20","Male","no","no","0","3-5","1779","stimuli/pictures/cough_man_2.jpg","0","0","","true","no","sound","stimuli/sounds/hiccup_label_A.wav",""
"","","","","","audio-keyboard-response","165","2.0.0","265050","pdt8l2wq3fy","ono","fawn","20","Male","no","no","0","3-5","null","stimuli/sounds/bleep.wav","null","","","","","","",""
"","","","","","html-keyboard-response","166","2.0.0","265949","pdt8l2wq3fy","ono","fawn","20","Male","no","no","0","3-5","797","<div style=""font-size:30px;"">Press space to start the trial</div>"," ","","","","","","",""
"","","","","","html-keyboard-response","167","2.0.0","266201","pdt8l2wq3fy","ono","fawn","20","Male","no","no","0","3-5","null","<div style=""font-size:60px;"">+</div>","null","","","","","","",""
"","","","","","audio-keyboard-response","168","2.0.0","266806","pdt8l2wq3fy","ono","fawn","20","Male","no","no","0","3-5","null","stimuli/sounds/drop_label_B.wav","null","","","","","","",""
"","","","","","html-keyboard-response","169","2.0.0","267809","pdt8l2wq3fy","ono","fawn","20","Male","no","no","0","3-5","null","","null","","","","","","",""
"","","","","","image-keyboard-response","170","2.0.0","268763","pdt8l2wq3fy","ono","fawn","20","Male","no","no","0","3-5","951","stimuli/pictures/drop_multi_1.jpg","1","1","","true","yes","sound","stimuli/sounds/drop_label_B.wav",""
"","","","","","audio-keyboard-response","171","2.0.0","269765","pdt8l2wq3fy","ono","fawn","20","Male","no","no","0","3-5","null","stimuli/sounds/bleep.wav","null","","","","","","",""
"","","","","","html-keyboard-response","172","2.0.0","270729","pdt8l2wq3fy","ono","fawn","20","Male","no","no","0","3-5","862","<div style=""font-size:30px;"">Press space to start the trial</div>"," ","","","","","","",""
"","","","","","html-keyboard-response","173","2.0.0","270983","pdt8l2wq3fy","ono","fawn","20","Male","no","no","0","3-5","null","<div style=""font-size:60px;"">+</div>","null","","","","","","",""
"","","","","","audio-keyboard-response","174","2.0.0","271532","pdt8l2wq3fy","ono","fawn","20","Male","no","no","0","3-5","null","stimuli/sounds/drop_label_A.wav","null","","","","","","",""
"","","","","","html-keyboard-response","175","2.0.0","272534","pdt8l2wq3fy","ono","fawn","20","Male","no","no","0","3-5","null","","null","","","","","","",""
"","","","","","image-keyboard-response","176","2.0.0","273077","pdt8l2wq3fy","ono","fawn","20","Male","no","no","0","3-5","541","stimuli/pictures/drop_single_2.jpg","1","1","","true","yes","sound","stimuli/sounds/drop_label_A.wav",""
"","","","","","audio-keyboard-response","177","2.0.0","274079","pdt8l2wq3fy","ono","fawn","20","Male","no","no","0","3-5","null","stimuli/sounds/bleep.wav","null","","","","","","",""
"","","","","","html-keyboard-response","178","2.0.0","275409","pdt8l2wq3fy","ono","fawn","20","Male","no","no","0","3-5","1227","<div style=""font-size:30px;"">Press space to start the trial</div>"," ","","","","","","",""
"","","","","","html-keyboard-response","179","2.0.0","275661","pdt8l2wq3fy","ono","fawn","20","Male","no","no","0","3-5","null","<div style=""font-size:60px;"">+</div>","null","","","","","","",""
"","","","","","audio-keyboard-response","180","2.0.0","276292","pdt8l2wq3fy","ono","fawn","20","Male","no","no","0","3-5","null","stimuli/sounds/cough_label_A.wav","null","","","","","","",""
"","","","","","html-keyboard-response","181","2.0.0","277296","pdt8l2wq3fy","ono","fawn","20","Male","no","no","0","3-5","null","","null","","","","","","",""
"","","","","","image-keyboard-response","182","2.0.0","278133","pdt8l2wq3fy","ono","fawn","20","Male","no","no","0","3-5","836","stimuli/pictures/motor_harley_1.jpg","0","0","","true","no","sound","stimuli/sounds/cough_label_A.wav",""
"","","","","","audio-keyboard-response","183","2.0.0","279136","pdt8l2wq3fy","ono","fawn","20","Male","no","no","0","3-5","null","stimuli/sounds/bleep.wav","null","","","","","","",""
"","","","","","html-keyboard-response","184","2.0.0","280098","pdt8l2wq3fy","ono","fawn","20","Male","no","no","0","3-5","859","<div style=""font-size:30px;"">Press space to start the trial</div>"," ","","","","","","",""
"","","","","","html-keyboard-response","185","2.0.0","280351","pdt8l2wq3fy","ono","fawn","20","Male","no","no","0","3-5","null","<div style=""font-size:60px;"">+</div>","null","","","","","","",""
"","","","","","audio-keyboard-response","186","2.0.0","280960","pdt8l2wq3fy","ono","fawn","20","Male","no","no","0","3-5","null","stimuli/sounds/drop_label_B.wav","null","","","","","","",""
"","","","","","html-keyboard-response","187","2.0.0","281963","pdt8l2wq3fy","ono","fawn","20","Male","no","no","0","3-5","null","","null","","","","","","",""
"","","","","","image-keyboard-response","188","2.0.0","282775","pdt8l2wq3fy","ono","fawn","20","Male","no","no","0","3-5","810","stimuli/pictures/drop_single_1.jpg","1","1","","true","yes","sound","stimuli/sounds/drop_label_B.wav",""
"","","","","","audio-keyboard-response","189","2.0.0","283778","pdt8l2wq3fy","ono","fawn","20","Male","no","no","0","3-5","null","stimuli/sounds/bleep.wav","null","","","","","","",""
"","","","","","html-keyboard-response","190","2.0.0","284511","pdt8l2wq3fy","ono","fawn","20","Male","no","no","0","3-5","630","<div style=""font-size:30px;"">Press space to start the trial</div>"," ","","","","","","",""
"","","","","","html-keyboard-response","191","2.0.0","284763","pdt8l2wq3fy","ono","fawn","20","Male","no","no","0","3-5","null","<div style=""font-size:60px;"">+</div>","null","","","","","","",""
"","","","","","audio-keyboard-response","192","2.0.0","285304","pdt8l2wq3fy","ono","fawn","20","Male","no","no","0","3-5","null","stimuli/sounds/hiccup_label_A.wav","null","","","","","","",""
"","","","","","html-keyboard-response","193","2.0.0","286307","pdt8l2wq3fy","ono","fawn","20","Male","no","no","0","3-5","null","","null","","","","","","",""
"","","","","","image-keyboard-response","194","2.0.0","287481","pdt8l2wq3fy","ono","fawn","20","Male","no","no","0","3-5","1172","stimuli/pictures/hiccup_wom_2.jpg","1","1","","true","yes","sound","stimuli/sounds/hiccup_label_A.wav",""
"","","","","","audio-keyboard-response","195","2.0.0","288483","pdt8l2wq3fy","ono","fawn","20","Male","no","no","0","3-5","null","stimuli/sounds/bleep.wav","null","","","","","","",""
"","","","","","html-keyboard-response","196","2.0.0","289332","pdt8l2wq3fy","ono","fawn","20","Male","no","no","0","3-5","746","<div style=""font-size:30px;"">Press space to start the trial</div>"," ","","","","","","",""
"","","","","","html-keyboard-response","197","2.0.0","289585","pdt8l2wq3fy","ono","fawn","20","Male","no","no","0","3-5","null","<div style=""font-size:60px;"">+</div>","null","","","","","","",""
"","","","","","audio-keyboard-response","198","2.0.0","290128","pdt8l2wq3fy","ono","fawn","20","Male","no","no","0","3-5","null","stimuli/sounds/hiccup_label_A.wav","null","","","","","","",""
"","","","","","html-keyboard-response","199","2.0.0","291130","pdt8l2wq3fy","ono","fawn","20","Male","no","no","0","3-5","null","","null","","","","","","",""
"","","","","","image-keyboard-response","200","2.0.0","291889","pdt8l2wq3fy","ono","fawn","20","Male","no","no","0","3-5","757","stimuli/pictures/cough_man_1.jpg","0","0","","true","no","sound","stimuli/sounds/hiccup_label_A.wav",""
"","","","","","audio-keyboard-response","201","2.0.0","292892","pdt8l2wq3fy","ono","fawn","20","Male","no","no","0","3-5","null","stimuli/sounds/bleep.wav","null","","","","","","",""
"","","","","","html-keyboard-response","202","2.0.0","294247","pdt8l2wq3fy","ono","fawn","20","Male","no","no","0","3-5","1252","<div style=""font-size:30px;"">Press space to start the trial</div>"," ","","","","","","",""
"","","","","","html-keyboard-response","203","2.0.0","294498","pdt8l2wq3fy","ono","fawn","20","Male","no","no","0","3-5","null","<div style=""font-size:60px;"">+</div>","null","","","","","","",""
"","","","","","audio-keyboard-response","204","2.0.0","295109","pdt8l2wq3fy","ono","fawn","20","Male","no","no","0","3-5","null","stimuli/sounds/cough_label_B.wav","null","","","","","","",""
"","","","","","html-keyboard-response","205","2.0.0","296112","pdt8l2wq3fy","ono","fawn","20","Male","no","no","0","3-5","null","","null","","","","","","",""
"","","","","","image-keyboard-response","206","2.0.0","298520","pdt8l2wq3fy","ono","fawn","20","Male","no","no","0","3-5","2406","stimuli/pictures/drop_multi_2.jpg","0","0","","true","no","sound","stimuli/sounds/cough_label_B.wav",""
"","","","","","audio-keyboard-response","207","2.0.0","299523","pdt8l2wq3fy","ono","fawn","20","Male","no","no","0","3-5","null","stimuli/sounds/bleep.wav","null","","","","","","",""
"","","","","","html-keyboard-response","208","2.0.0","301570","pdt8l2wq3fy","ono","fawn","20","Male","no","no","0","3-5","1945","<div style=""font-size:30px;"">Press space to start the trial</div>"," ","","","","","","",""
"","","","","","html-keyboard-response","209","2.0.0","301822","pdt8l2wq3fy","ono","fawn","20","Male","no","no","0","3-5","null","<div style=""font-size:60px;"">+</div>","null","","","","","","",""
"","","","","","audio-keyboard-response","210","2.0.0","302499","pdt8l2wq3fy","ono","fawn","20","Male","no","no","0","3-5","null","stimuli/sounds/cough_sound_B.wav","null","","","","","","",""
"","","","","","html-keyboard-response","211","2.0.0","303502","pdt8l2wq3fy","ono","fawn","20","Male","no","no","0","3-5","null","","null","","","","","","",""
"","","","","","image-keyboard-response","212","2.0.0","305037","pdt8l2wq3fy","ono","fawn","20","Male","no","no","0","3-5","1533","stimuli/pictures/cough_man_2.jpg","1","1","","true","yes","sound","stimuli/sounds/cough_sound_B.wav",""
"","","","","","audio-keyboard-response","213","2.0.0","306040","pdt8l2wq3fy","ono","fawn","20","Male","no","no","0","3-5","null","stimuli/sounds/bleep.wav","null","","","","","","",""
"","","","","","html-keyboard-response","214","2.0.0","306745","pdt8l2wq3fy","ono","fawn","20","Male","no","no","0","3-5","603","<div style=""font-size:30px;"">Press space to start the trial</div>"," ","","","","","","",""
"","","","","","html-keyboard-response","215","2.0.0","306998","pdt8l2wq3fy","ono","fawn","20","Male","no","no","0","3-5","null","<div style=""font-size:60px;"">+</div>","null","","","","","","",""
"","","","","","audio-keyboard-response","216","2.0.0","307659","pdt8l2wq3fy","ono","fawn","20","Male","no","no","0","3-5","null","stimuli/sounds/cough_sound_A.wav","null","","","","","","",""
"","","","","","html-keyboard-response","217","2.0.0","308662","pdt8l2wq3fy","ono","fawn","20","Male","no","no","0","3-5","null","","null","","","","","","",""
"","","","","","image-keyboard-response","218","2.0.0","309664","pdt8l2wq3fy","ono","fawn","20","Male","no","no","0","3-5","1000","stimuli/pictures/dog_york_1.jpg","0","0","","true","no","sound","stimuli/sounds/cough_sound_A.wav",""
"","","","","","audio-keyboard-response","219","2.0.0","310668","pdt8l2wq3fy","ono","fawn","20","Male","no","no","0","3-5","null","stimuli/sounds/bleep.wav","null","","","","","","",""
"","","","","","html-keyboard-response","220","2.0.0","311349","pdt8l2wq3fy","ono","fawn","20","Male","no","no","0","3-5","579","<div style=""font-size:30px;"">Press space to start the trial</div>"," ","","","","","","",""
"","","","","","html-keyboard-response","221","2.0.0","311600","pdt8l2wq3fy","ono","fawn","20","Male","no","no","0","3-5","null","<div style=""font-size:60px;"">+</div>","null","","","","","","",""
"","","","","","audio-keyboard-response","222","2.0.0","312229","pdt8l2wq3fy","ono","fawn","20","Male","no","no","0","3-5","null","stimuli/sounds/cough_label_A.wav","null","","","","","","",""
"","","","","","html-keyboard-response","223","2.0.0","313232","pdt8l2wq3fy","ono","fawn","20","Male","no","no","0","3-5","null","","null","","","","","","",""
"","","","","","image-keyboard-response","224","2.0.0","314145","pdt8l2wq3fy","ono","fawn","20","Male","no","no","0","3-5","911","stimuli/pictures/motor_dirt_2.jpg","0","0","","true","no","sound","stimuli/sounds/cough_label_A.wav",""
"","","","","","audio-keyboard-response","225","2.0.0","315148","pdt8l2wq3fy","ono","fawn","20","Male","no","no","0","3-5","null","stimuli/sounds/bleep.wav","null","","","","","","",""
"","","","","","html-keyboard-response","226","2.0.0","315901","pdt8l2wq3fy","ono","fawn","20","Male","no","no","0","3-5","650","<div style=""font-size:30px;"">Press space to start the trial</div>"," ","","","","","","",""
"","","","","","html-keyboard-response","227","2.0.0","316153","pdt8l2wq3fy","ono","fawn","20","Male","no","no","0","3-5","null","<div style=""font-size:60px;"">+</div>","null","","","","","","",""
"","","","","","audio-keyboard-response","228","2.0.0","316735","pdt8l2wq3fy","ono","fawn","20","Male","no","no","0","3-5","null","stimuli/sounds/drop_sound_A.wav","null","","","","","","",""
"","","","","","html-keyboard-response","229","2.0.0","317738","pdt8l2wq3fy","ono","fawn","20","Male","no","no","0","3-5","null","","null","","","","","","",""
"","","","","","image-keyboard-response","230","2.0.0","319043","pdt8l2wq3fy","ono","fawn","20","Male","no","no","0","3-5","1303","stimuli/pictures/cough_man_2.jpg","0","0","","true","no","sound","stimuli/sounds/drop_sound_A.wav",""
"","","","","","audio-keyboard-response","231","2.0.0","320046","pdt8l2wq3fy","ono","fawn","20","Male","no","no","0","3-5","null","stimuli/sounds/bleep.wav","null","","","","","","",""
"","","","","","html-keyboard-response","232","2.0.0","320977","pdt8l2wq3fy","ono","fawn","20","Male","no","no","0","3-5","828","<div style=""font-size:30px;"">Press space to start the trial</div>"," ","","","","","","",""
"","","","","","html-keyboard-response","233","2.0.0","321229","pdt8l2wq3fy","ono","fawn","20","Male","no","no","0","3-5","null","<div style=""font-size:60px;"">+</div>","null","","","","","","",""
"","","","","","audio-keyboard-response","234","2.0.0","321907","pdt8l2wq3fy","ono","fawn","20","Male","no","no","0","3-5","null","stimuli/sounds/cough_sound_B.wav","null","","","","","","",""
"","","","","","html-keyboard-response","235","2.0.0","322909","pdt8l2wq3fy","ono","fawn","20","Male","no","no","0","3-5","null","","null","","","","","","",""
"","","","","","image-keyboard-response","236","2.0.0","324970","pdt8l2wq3fy","ono","fawn","20","Male","no","no","0","3-5","2059","stimuli/pictures/hiccup_man_1.jpg","0","0","","true","no","sound","stimuli/sounds/cough_sound_B.wav",""
"","","","","","audio-keyboard-response","237","2.0.0","325973","pdt8l2wq3fy","ono","fawn","20","Male","no","no","0","3-5","null","stimuli/sounds/bleep.wav","null","","","","","","",""
"","","","","","html-keyboard-response","238","2.0.0","327039","pdt8l2wq3fy","ono","fawn","20","Male","no","no","0","3-5","964","<div style=""font-size:30px;"">Press space to start the trial</div>"," ","","","","","","",""
"","","","","","html-keyboard-response","239","2.0.0","327291","pdt8l2wq3fy","ono","fawn","20","Male","no","no","0","3-5","null","<div style=""font-size:60px;"">+</div>","null","","","","","","",""
"","","","","","audio-keyboard-response","240","2.0.0","327901","pdt8l2wq3fy","ono","fawn","20","Male","no","no","0","3-5","null","stimuli/sounds/drop_label_B.wav","null","","","","","","",""
"","","","","","html-keyboard-response","241","2.0.0","328904","pdt8l2wq3fy","ono","fawn","20","Male","no","no","0","3-5","null","","null","","","","","","",""
"","","","","","image-keyboard-response","242","2.0.0","329907","pdt8l2wq3fy","ono","fawn","20","Male","no","no","0","3-5","1001","stimuli/pictures/motor_harley_2.jpg","0","0","","true","no","sound","stimuli/sounds/drop_label_B.wav",""
"","","","","","audio-keyboard-response","243","2.0.0","330909","pdt8l2wq3fy","ono","fawn","20","Male","no","no","0","3-5","null","stimuli/sounds/bleep.wav","null","","","","","","",""
"","","","","","html-keyboard-response","244","2.0.0","331922","pdt8l2wq3fy","ono","fawn","20","Male","no","no","0","3-5","911","<div style=""font-size:30px;"">Press space to start the trial</div>"," ","","","","","","",""
"","","","","","html-keyboard-response","245","2.0.0","332175","pdt8l2wq3fy","ono","fawn","20","Male","no","no","0","3-5","null","<div style=""font-size:60px;"">+</div>","null","","","","","","",""
"","","","","","audio-keyboard-response","246","2.0.0","332783","pdt8l2wq3fy","ono","fawn","20","Male","no","no","0","3-5","null","stimuli/sounds/drop_label_B.wav","null","","","","","","",""
"","","","","","html-keyboard-response","247","2.0.0","333785","pdt8l2wq3fy","ono","fawn","20","Male","no","no","0","3-5","null","","null","","","","","","",""
"","","","","","image-keyboard-response","248","2.0.0","334460","pdt8l2wq3fy","ono","fawn","20","Male","no","no","0","3-5","673","stimuli/pictures/motor_harley_1.jpg","0","0","","true","no","sound","stimuli/sounds/drop_label_B.wav",""
"","","","","","audio-keyboard-response","249","2.0.0","335463","pdt8l2wq3fy","ono","fawn","20","Male","no","no","0","3-5","null","stimuli/sounds/bleep.wav","null","","","","","","",""
"","","","","","html-keyboard-response","250","2.0.0","335905","pdt8l2wq3fy","ono","fawn","20","Male","no","no","0","3-5","339","<div style=""font-size:30px;"">Press space to start the trial</div>"," ","","","","","","",""
"","","","","","html-keyboard-response","251","2.0.0","336156","pdt8l2wq3fy","ono","fawn","20","Male","no","no","0","3-5","null","<div style=""font-size:60px;"">+</div>","null","","","","","","",""
"","","","","","audio-keyboard-response","252","2.0.0","336756","pdt8l2wq3fy","ono","fawn","20","Male","no","no","0","3-5","null","stimuli/sounds/dog_label_A.wav","null","","","","","","",""
"","","","","","html-keyboard-response","253","2.0.0","337759","pdt8l2wq3fy","ono","fawn","20","Male","no","no","0","3-5","null","","null","","","","","","",""
"","","","","","image-keyboard-response","254","2.0.0","338916","pdt8l2wq3fy","ono","fawn","20","Male","no","no","0","3-5","1154","stimuli/pictures/dog_rott_2.jpg","1","1","","true","yes","sound","stimuli/sounds/dog_label_A.wav",""
"","","","","","audio-keyboard-response","255","2.0.0","339919","pdt8l2wq3fy","ono","fawn","20","Male","no","no","0","3-5","null","stimuli/sounds/bleep.wav","null","","","","","","",""
"","","","","","html-keyboard-response","256","2.0.0","340506","pdt8l2wq3fy","ono","fawn","20","Male","no","no","0","3-5","485","<div style=""font-size:30px;"">Press space to start the trial</div>"," ","","","","","","",""
"","","","","","html-keyboard-response","257","2.0.0","340759","pdt8l2wq3fy","ono","fawn","20","Male","no","no","0","3-5","null","<div style=""font-size:60px;"">+</div>","null","","","","","","",""
"","","","","","audio-keyboard-response","258","2.0.0","341361","pdt8l2wq3fy","ono","fawn","20","Male","no","no","0","3-5","null","stimuli/sounds/motor_sound_A.wav","null","","","","","","",""
"","","","","","html-keyboard-response","259","2.0.0","342363","pdt8l2wq3fy","ono","fawn","20","Male","no","no","0","3-5","null","","null","","","","","","",""
"","","","","","image-keyboard-response","260","2.0.0","344378","pdt8l2wq3fy","ono","fawn","20","Male","no","no","0","3-5","2014","stimuli/pictures/drop_multi_1.jpg","0","0","","true","no","sound","stimuli/sounds/motor_sound_A.wav",""
"","","","","","audio-keyboard-response","261","2.0.0","345381","pdt8l2wq3fy","ono","fawn","20","Male","no","no","0","3-5","null","stimuli/sounds/bleep.wav","null","","","","","","",""
"","","","","","html-keyboard-response","262","2.0.0","349140","pdt8l2wq3fy","ono","fawn","20","Male","no","no","0","3-5","3657","<div style=""font-size:30px;"">Press space to start the trial</div>"," ","","","","","","",""
"","","","","","html-keyboard-response","263","2.0.0","349393","pdt8l2wq3fy","ono","fawn","20","Male","no","no","0","3-5","null","<div style=""font-size:60px;"">+</div>","null","","","","","","",""
"","","","","","audio-keyboard-response","264","2.0.0","349996","pdt8l2wq3fy","ono","fawn","20","Male","no","no","0","3-5","null","stimuli/sounds/motor_label_B.wav","null","","","","","","",""
"","","","","","html-keyboard-response","265","2.0.0","350999","pdt8l2wq3fy","ono","fawn","20","Male","no","no","0","3-5","null","","null","","","","","","",""
"","","","","","image-keyboard-response","266","2.0.0","351691","pdt8l2wq3fy","ono","fawn","20","Male","no","no","0","3-5","691","stimuli/pictures/hiccup_wom_2.jpg","0","0","","true","no","sound","stimuli/sounds/motor_label_B.wav",""
"","","","","","audio-keyboard-response","267","2.0.0","352694","pdt8l2wq3fy","ono","fawn","20","Male","no","no","0","3-5","null","stimuli/sounds/bleep.wav","null","","","","","","",""
"","","","","","html-keyboard-response","268","2.0.0","356719","pdt8l2wq3fy","ono","fawn","20","Male","no","no","0","3-5","3923","<p>You have completed a block. Press R when you are ready to continue</p>","r","","","","","","",""
"","","","","","html-keyboard-response","269","2.0.0","357494","pdt8l2wq3fy","ono","fawn","20","Male","no","no","0","3-5","774","<div style=""font-size:30px;"">Press space to start the trial</div>"," ","","","","","","",""
"","","","","","html-keyboard-response","270","2.0.0","357747","pdt8l2wq3fy","ono","fawn","20","Male","no","no","0","3-5","null","<div style=""font-size:60px;"">+</div>","null","","","","","","",""
"","","","","","audio-keyboard-response","271","2.0.0","358301","pdt8l2wq3fy","ono","fawn","20","Male","no","no","0","3-5","null","stimuli/sounds/drop_label_A.wav","null","","","","","","",""
"","","","","","html-keyboard-response","272","2.0.0","359304","pdt8l2wq3fy","ono","fawn","20","Male","no","no","0","3-5","null","","null","","","","","","",""
"","","","","","image-keyboard-response","273","2.0.0","360081","pdt8l2wq3fy","ono","fawn","20","Male","no","no","0","3-5","776","stimuli/pictures/drop_multi_1.jpg","0","1","","false","yes","sound","stimuli/sounds/drop_label_A.wav",""
"","","","","","audio-keyboard-response","274","2.0.0","361084","pdt8l2wq3fy","ono","fawn","20","Male","no","no","0","3-5","null","stimuli/sounds/buzz.wav","null","","","","","","",""
"","","","","","html-keyboard-response","275","2.0.0","363120","pdt8l2wq3fy","ono","fawn","20","Male","no","no","0","3-5","1934","<div style=""font-size:30px;"">Press space to start the trial</div>"," ","","","","","","",""
"","","","","","html-keyboard-response","276","2.0.0","363372","pdt8l2wq3fy","ono","fawn","20","Male","no","no","0","3-5","null","<div style=""font-size:60px;"">+</div>","null","","","","","","",""
"","","","","","audio-keyboard-response","277","2.0.0","364035","pdt8l2wq3fy","ono","fawn","20","Male","no","no","0","3-5","null","stimuli/sounds/cough_sound_A.wav","null","","","","","","",""
"","","","","","html-keyboard-response","278","2.0.0","365038","pdt8l2wq3fy","ono","fawn","20","Male","no","no","0","3-5","null","","null","","","","","","",""
"","","","","","image-keyboard-response","279","2.0.0","366604","pdt8l2wq3fy","ono","fawn","20","Male","no","no","0","3-5","1563","stimuli/pictures/cough_wom_2.jpg","1","1","","true","yes","sound","stimuli/sounds/cough_sound_A.wav",""
"","","","","","audio-keyboard-response","280","2.0.0","367606","pdt8l2wq3fy","ono","fawn","20","Male","no","no","0","3-5","null","stimuli/sounds/bleep.wav","null","","","","","","",""
"","","","","","html-keyboard-response","281","2.0.0","369014","pdt8l2wq3fy","ono","fawn","20","Male","no","no","0","3-5","1305","<div style=""font-size:30px;"">Press space to start the trial</div>"," ","","","","","","",""
"","","","","","html-keyboard-response","282","2.0.0","369266","pdt8l2wq3fy","ono","fawn","20","Male","no","no","0","3-5","null","<div style=""font-size:60px;"">+</div>","null","","","","","","",""
"","","","","","audio-keyboard-response","283","2.0.0","369867","pdt8l2wq3fy","ono","fawn","20","Male","no","no","0","3-5","null","stimuli/sounds/dog_sound_B.wav","null","","","","","","",""
"","","","","","html-keyboard-response","284","2.0.0","370870","pdt8l2wq3fy","ono","fawn","20","Male","no","no","0","3-5","null","","null","","","","","","",""
"","","","","","image-keyboard-response","285","2.0.0","371818","pdt8l2wq3fy","ono","fawn","20","Male","no","no","0","3-5","946","stimuli/pictures/dog_york_2.jpg","1","1","","true","yes","sound","stimuli/sounds/dog_sound_B.wav",""
"","","","","","audio-keyboard-response","286","2.0.0","372821","pdt8l2wq3fy","ono","fawn","20","Male","no","no","0","3-5","null","stimuli/sounds/bleep.wav","null","","","","","","",""
"","","","","","html-keyboard-response","287","2.0.0","374487","pdt8l2wq3fy","ono","fawn","20","Male","no","no","0","3-5","1563","<div style=""font-size:30px;"">Press space to start the trial</div>"," ","","","","","","",""
"","","","","","html-keyboard-response","288","2.0.0","374737","pdt8l2wq3fy","ono","fawn","20","Male","no","no","0","3-5","null","<div style=""font-size:60px;"">+</div>","null","","","","","","",""
"","","","","","audio-keyboard-response","289","2.0.0","375276","pdt8l2wq3fy","ono","fawn","20","Male","no","no","0","3-5","null","stimuli/sounds/hiccup_label_A.wav","null","","","","","","",""
"","","","","","html-keyboard-response","290","2.0.0","376279","pdt8l2wq3fy","ono","fawn","20","Male","no","no","0","3-5","null","","null","","","","","","",""
"","","","","","image-keyboard-response","291","2.0.0","377281","pdt8l2wq3fy","ono","fawn","20","Male","no","no","0","3-5","1000","stimuli/pictures/hiccup_man_2.jpg","0","1","","false","yes","sound","stimuli/sounds/hiccup_label_A.wav",""
"","","","","","audio-keyboard-response","292","2.0.0","378284","pdt8l2wq3fy","ono","fawn","20","Male","no","no","0","3-5","null","stimuli/sounds/buzz.wav","null","","","","","","",""
"","","","","","html-keyboard-response","293","2.0.0","379072","pdt8l2wq3fy","ono","fawn","20","Male","no","no","0","3-5","686","<div style=""font-size:30px;"">Press space to start the trial</div>"," ","","","","","","",""
"","","","","","html-keyboard-response","294","2.0.0","379325","pdt8l2wq3fy","ono","fawn","20","Male","no","no","0","3-5","null","<div style=""font-size:60px;"">+</div>","null","","","","","","",""
"","","","","","audio-keyboard-response","295","2.0.0","379875","pdt8l2wq3fy","ono","fawn","20","Male","no","no","0","3-5","null","stimuli/sounds/drop_label_A.wav","null","","","","","","",""
"","","","","","html-keyboard-response","296","2.0.0","380877","pdt8l2wq3fy","ono","fawn","20","Male","no","no","0","3-5","null","","null","","","","","","",""
"","","","","","image-keyboard-response","297","2.0.0","381725","pdt8l2wq3fy","ono","fawn","20","Male","no","no","0","3-5","846","stimuli/pictures/hiccup_wom_2.jpg","0","0","","true","no","sound","stimuli/sounds/drop_label_A.wav",""
"","","","","","audio-keyboard-response","298","2.0.0","382729","pdt8l2wq3fy","ono","fawn","20","Male","no","no","0","3-5","null","stimuli/sounds/bleep.wav","null","","","","","","",""
"","","","","","html-keyboard-response","299","2.0.0","383332","pdt8l2wq3fy","ono","fawn","20","Male","no","no","0","3-5","501","<div style=""font-size:30px;"">Press space to start the trial</div>"," ","","","","","","",""
"","","","","","html-keyboard-response","300","2.0.0","383585","pdt8l2wq3fy","ono","fawn","20","Male","no","no","0","3-5","null","<div style=""font-size:60px;"">+</div>","null","","","","","","",""
"","","","","","audio-keyboard-response","301","2.0.0","384184","pdt8l2wq3fy","ono","fawn","20","Male","no","no","0","3-5","null","stimuli/sounds/dog_sound_A.wav","null","","","","","","",""
"","","","","","html-keyboard-response","302","2.0.0","385186","pdt8l2wq3fy","ono","fawn","20","Male","no","no","0","3-5","null","","null","","","","","","",""
"","","","","","image-keyboard-response","303","2.0.0","385809","pdt8l2wq3fy","ono","fawn","20","Male","no","no","0","3-5","621","stimuli/pictures/hiccup_wom_1.jpg","0","0","","true","no","sound","stimuli/sounds/dog_sound_A.wav",""
"","","","","","audio-keyboard-response","304","2.0.0","386812","pdt8l2wq3fy","ono","fawn","20","Male","no","no","0","3-5","null","stimuli/sounds/bleep.wav","null","","","","","","",""
"","","","","","html-keyboard-response","305","2.0.0","387556","pdt8l2wq3fy","ono","fawn","20","Male","no","no","0","3-5","642","<div style=""font-size:30px;"">Press space to start the trial</div>"," ","","","","","","",""
"","","","","","html-keyboard-response","306","2.0.0","387809","pdt8l2wq3fy","ono","fawn","20","Male","no","no","0","3-5","null","<div style=""font-size:60px;"">+</div>","null","","","","","","",""
"","","","","","audio-keyboard-response","307","2.0.0","388412","pdt8l2wq3fy","ono","fawn","20","Male","no","no","0","3-5","null","stimuli/sounds/dog_sound_A.wav","null","","","","","","",""
"","","","","","html-keyboard-response","308","2.0.0","389414","pdt8l2wq3fy","ono","fawn","20","Male","no","no","0","3-5","null","","null","","","","","","",""
"","","","","","image-keyboard-response","309","2.0.0","390528","pdt8l2wq3fy","ono","fawn","20","Male","no","no","0","3-5","1111","stimuli/pictures/dog_york_2.jpg","1","1","","true","no","sound","stimuli/sounds/dog_sound_A.wav",""
"","","","","","audio-keyboard-response","310","2.0.0","391530","pdt8l2wq3fy","ono","fawn","20","Male","no","no","0","3-5","null","stimuli/sounds/bleep.wav","null","","","","","","",""
"","","","","","html-keyboard-response","311","2.0.0","393186","pdt8l2wq3fy","ono","fawn","20","Male","no","no","0","3-5","1554","<div style=""font-size:30px;"">Press space to start the trial</div>"," ","","","","","","",""
"","","","","","html-keyboard-response","312","2.0.0","393438","pdt8l2wq3fy","ono","fawn","20","Male","no","no","0","3-5","null","<div style=""font-size:60px;"">+</div>","null","","","","","","",""
"","","","","","audio-keyboard-response","313","2.0.0","394047","pdt8l2wq3fy","ono","fawn","20","Male","no","no","0","3-5","null","stimuli/sounds/motor_label_B.wav","null","","","","","","",""
"","","","","","html-keyboard-response","314","2.0.0","395049","pdt8l2wq3fy","ono","fawn","20","Male","no","no","0","3-5","null","","null","","","","","","",""
"","","","","","image-keyboard-response","315","2.0.0","396282","pdt8l2wq3fy","ono","fawn","20","Male","no","no","0","3-5","1231","stimuli/pictures/motor_dirt_2.jpg","1","1","","true","yes","sound","stimuli/sounds/motor_label_B.wav",""
"","","","","","audio-keyboard-response","316","2.0.0","397284","pdt8l2wq3fy","ono","fawn","20","Male","no","no","0","3-5","null","stimuli/sounds/bleep.wav","null","","","","","","",""
"","","","","","html-keyboard-response","317","2.0.0","397955","pdt8l2wq3fy","ono","fawn","20","Male","no","no","0","3-5","568","<div style=""font-size:30px;"">Press space to start the trial</div>"," ","","","","","","",""
"","","","","","html-keyboard-response","318","2.0.0","398208","pdt8l2wq3fy","ono","fawn","20","Male","no","no","0","3-5","null","<div style=""font-size:60px;"">+</div>","null","","","","","","",""
"","","","","","audio-keyboard-response","319","2.0.0","398813","pdt8l2wq3fy","ono","fawn","20","Male","no","no","0","3-5","null","stimuli/sounds/drop_sound_B.wav","null","","","","","","",""
"","","","","","html-keyboard-response","320","2.0.0","399817","pdt8l2wq3fy","ono","fawn","20","Male","no","no","0","3-5","null","","null","","","","","","",""
"","","","","","image-keyboard-response","321","2.0.0","401637","pdt8l2wq3fy","ono","fawn","20","Male","no","no","0","3-5","1818","stimuli/pictures/drop_multi_2.jpg","0","1","","false","yes","sound","stimuli/sounds/drop_sound_B.wav",""
"","","","","","audio-keyboard-response","322","2.0.0","402640","pdt8l2wq3fy","ono","fawn","20","Male","no","no","0","3-5","null","stimuli/sounds/buzz.wav","null","","","","","","",""
"","","","","","html-keyboard-response","323","2.0.0","403683","pdt8l2wq3fy","ono","fawn","20","Male","no","no","0","3-5","941","<div style=""font-size:30px;"">Press space to start the trial</div>"," ","","","","","","",""
"","","","","","html-keyboard-response","324","2.0.0","403937","pdt8l2wq3fy","ono","fawn","20","Male","no","no","0","3-5","null","<div style=""font-size:60px;"">+</div>","null","","","","","","",""
"","","","","","audio-keyboard-response","325","2.0.0","404541","pdt8l2wq3fy","ono","fawn","20","Male","no","no","0","3-5","null","stimuli/sounds/hiccup_label_B.wav","null","","","","","","",""
"","","","","","html-keyboard-response","326","2.0.0","405543","pdt8l2wq3fy","ono","fawn","20","Male","no","no","0","3-5","null","","null","","","","","","",""
"","","","","","image-keyboard-response","327","2.0.0","407754","pdt8l2wq3fy","ono","fawn","20","Male","no","no","0","3-5","2209","stimuli/pictures/hiccup_man_2.jpg","0","1","","false","yes","sound","stimuli/sounds/hiccup_label_B.wav",""
"","","","","","audio-keyboard-response","328","2.0.0","408756","pdt8l2wq3fy","ono","fawn","20","Male","no","no","0","3-5","null","stimuli/sounds/buzz.wav","null","","","","","","",""
"","","","","","html-keyboard-response","329","2.0.0","412095","pdt8l2wq3fy","ono","fawn","20","Male","no","no","0","3-5","3236","<div style=""font-size:30px;"">Press space to start the trial</div>"," ","","","","","","",""
"","","","","","html-keyboard-response","330","2.0.0","412348","pdt8l2wq3fy","ono","fawn","20","Male","no","no","0","3-5","null","<div style=""font-size:60px;"">+</div>","null","","","","","","",""
"","","","","","audio-keyboard-response","331","2.0.0","412887","pdt8l2wq3fy","ono","fawn","20","Male","no","no","0","3-5","null","stimuli/sounds/hiccup_label_A.wav","null","","","","","","",""
"","","","","","html-keyboard-response","332","2.0.0","413890","pdt8l2wq3fy","ono","fawn","20","Male","no","no","0","3-5","null","","null","","","","","","",""
"","","","","","image-keyboard-response","333","2.0.0","416053","pdt8l2wq3fy","ono","fawn","20","Male","no","no","0","3-5","2162","stimuli/pictures/hiccup_man_1.jpg","1","1","","true","yes","sound","stimuli/sounds/hiccup_label_A.wav",""
"","","","","","audio-keyboard-response","334","2.0.0","417056","pdt8l2wq3fy","ono","fawn","20","Male","no","no","0","3-5","null","stimuli/sounds/bleep.wav","null","","","","","","",""
"","","","","","html-keyboard-response","335","2.0.0","418162","pdt8l2wq3fy","ono","fawn","20","Male","no","no","0","3-5","1003","<div style=""font-size:30px;"">Press space to start the trial</div>"," ","","","","","","",""
"","","","","","html-keyboard-response","336","2.0.0","418414","pdt8l2wq3fy","ono","fawn","20","Male","no","no","0","3-5","null","<div style=""font-size:60px;"">+</div>","null","","","","","","",""
"","","","","","audio-keyboard-response","337","2.0.0","419026","pdt8l2wq3fy","ono","fawn","20","Male","no","no","0","3-5","null","stimuli/sounds/cough_label_B.wav","null","","","","","","",""
"","","","","","html-keyboard-response","338","2.0.0","420027","pdt8l2wq3fy","ono","fawn","20","Male","no","no","0","3-5","null","","null","","","","","","",""
"","","","","","image-keyboard-response","339","2.0.0","421454","pdt8l2wq3fy","ono","fawn","20","Male","no","no","0","3-5","1425","stimuli/pictures/cough_man_1.jpg","0","1","","false","yes","sound","stimuli/sounds/cough_label_B.wav",""
"","","","","","audio-keyboard-response","340","2.0.0","422456","pdt8l2wq3fy","ono","fawn","20","Male","no","no","0","3-5","null","stimuli/sounds/buzz.wav","null","","","","","","",""
"","","","","","html-keyboard-response","341","2.0.0","423848","pdt8l2wq3fy","ono","fawn","20","Male","no","no","0","3-5","1290","<div style=""font-size:30px;"">Press space to start the trial</div>"," ","","","","","","",""
"","","","","","html-keyboard-response","342","2.0.0","424101","pdt8l2wq3fy","ono","fawn","20","Male","no","no","0","3-5","null","<div style=""font-size:60px;"">+</div>","null","","","","","","",""
"","","","","","audio-keyboard-response","343","2.0.0","424649","pdt8l2wq3fy","ono","fawn","20","Male","no","no","0","3-5","null","stimuli/sounds/drop_label_A.wav","null","","","","","","",""
"","","","","","html-keyboard-response","344","2.0.0","425652","pdt8l2wq3fy","ono","fawn","20","Male","no","no","0","3-5","null","","null","","","","","","",""
"","","","","","image-keyboard-response","345","2.0.0","426719","pdt8l2wq3fy","ono","fawn","20","Male","no","no","0","3-5","1065","stimuli/pictures/hiccup_man_2.jpg","0","0","","true","no","sound","stimuli/sounds/drop_label_A.wav",""
"","","","","","audio-keyboard-response","346","2.0.0","427722","pdt8l2wq3fy","ono","fawn","20","Male","no","no","0","3-5","null","stimuli/sounds/bleep.wav","null","","","","","","",""
"","","","","","html-keyboard-response","347","2.0.0","429915","pdt8l2wq3fy","ono","fawn","20","Male","no","no","0","3-5","2090","<div style=""font-size:30px;"">Press space to start the trial</div>"," ","","","","","","",""
"","","","","","html-keyboard-response","348","2.0.0","430166","pdt8l2wq3fy","ono","fawn","20","Male","no","no","0","3-5","null","<div style=""font-size:60px;"">+</div>","null","","","","","","",""
"","","","","","audio-keyboard-response","349","2.0.0","430794","pdt8l2wq3fy","ono","fawn","20","Male","no","no","0","3-5","null","stimuli/sounds/cough_label_A.wav","null","","","","","","",""
"","","","","","html-keyboard-response","350","2.0.0","431797","pdt8l2wq3fy","ono","fawn","20","Male","no","no","0","3-5","null","","null","","","","","","",""
"","","","","","image-keyboard-response","351","2.0.0","432962","pdt8l2wq3fy","ono","fawn","20","Male","no","no","0","3-5","1163","stimuli/pictures/motor_harley_2.jpg","0","0","","true","no","sound","stimuli/sounds/cough_label_A.wav",""
"","","","","","audio-keyboard-response","352","2.0.0","433965","pdt8l2wq3fy","ono","fawn","20","Male","no","no","0","3-5","null","stimuli/sounds/bleep.wav","null","","","","","","",""
"","","","","","html-keyboard-response","353","2.0.0","435009","pdt8l2wq3fy","ono","fawn","20","Male","no","no","0","3-5","942","<div style=""font-size:30px;"">Press space to start the trial</div>"," ","","","","","","",""
"","","","","","html-keyboard-response","354","2.0.0","435262","pdt8l2wq3fy","ono","fawn","20","Male","no","no","0","3-5","null","<div style=""font-size:60px;"">+</div>","null","","","","","","",""
"","","","","","audio-keyboard-response","355","2.0.0","435862","pdt8l2wq3fy","ono","fawn","20","Male","no","no","0","3-5","null","stimuli/sounds/motor_sound_B.wav","null","","","","","","",""
"","","","","","html-keyboard-response","356","2.0.0","436864","pdt8l2wq3fy","ono","fawn","20","Male","no","no","0","3-5","null","","null","","","","","","",""
"","","","","","image-keyboard-response","357","2.0.0","438420","pdt8l2wq3fy","ono","fawn","20","Male","no","no","0","3-5","1554","stimuli/pictures/motor_harley_1.jpg","1","1","","true","yes","sound","stimuli/sounds/motor_sound_B.wav",""
"","","","","","audio-keyboard-response","358","2.0.0","439423","pdt8l2wq3fy","ono","fawn","20","Male","no","no","0","3-5","null","stimuli/sounds/bleep.wav","null","","","","","","",""
"","","","","","html-keyboard-response","359","2.0.0","440487","pdt8l2wq3fy","ono","fawn","20","Male","no","no","0","3-5","962","<div style=""font-size:30px;"">Press space to start the trial</div>"," ","","","","","","",""
"","","","","","html-keyboard-response","360","2.0.0","440740","pdt8l2wq3fy","ono","fawn","20","Male","no","no","0","3-5","null","<div style=""font-size:60px;"">+</div>","null","","","","","","",""
"","","","","","audio-keyboard-response","361","2.0.0","441341","pdt8l2wq3fy","ono","fawn","20","Male","no","no","0","3-5","null","stimuli/sounds/motor_sound_B.wav","null","","","","","","",""
"","","","","","html-keyboard-response","362","2.0.0","442344","pdt8l2wq3fy","ono","fawn","20","Male","no","no","0","3-5","null","","null","","","","","","",""
"","","","","","image-keyboard-response","363","2.0.0","443315","pdt8l2wq3fy","ono","fawn","20","Male","no","no","0","3-5","969","stimuli/pictures/cough_man_1.jpg","0","0","","true","no","sound","stimuli/sounds/motor_sound_B.wav",""
"","","","","","audio-keyboard-response","364","2.0.0","444319","pdt8l2wq3fy","ono","fawn","20","Male","no","no","0","3-5","null","stimuli/sounds/bleep.wav","null","","","","","","",""
"","","","","","html-keyboard-response","365","2.0.0","445843","pdt8l2wq3fy","ono","fawn","20","Male","no","no","0","3-5","1422","<div style=""font-size:30px;"">Press space to start the trial</div>"," ","","","","","","",""
"","","","","","html-keyboard-response","366","2.0.0","446095","pdt8l2wq3fy","ono","fawn","20","Male","no","no","0","3-5","null","<div style=""font-size:60px;"">+</div>","null","","","","","","",""
"","","","","","audio-keyboard-response","367","2.0.0","446704","pdt8l2wq3fy","ono","fawn","20","Male","no","no","0","3-5","null","stimuli/sounds/drop_sound_B.wav","null","","","","","","",""
"","","","","","html-keyboard-response","368","2.0.0","447707","pdt8l2wq3fy","ono","fawn","20","Male","no","no","0","3-5","null","","null","","","","","","",""
"","","","","","image-keyboard-response","369","2.0.0","448390","pdt8l2wq3fy","ono","fawn","20","Male","no","no","0","3-5","681","stimuli/pictures/dog_york_1.jpg","1","0","","false","no","sound","stimuli/sounds/drop_sound_B.wav",""
"","","","","","audio-keyboard-response","370","2.0.0","449392","pdt8l2wq3fy","ono","fawn","20","Male","no","no","0","3-5","null","stimuli/sounds/buzz.wav","null","","","","","","",""
"","","","","","html-keyboard-response","371","2.0.0","449967","pdt8l2wq3fy","ono","fawn","20","Male","no","no","0","3-5","472","<div style=""font-size:30px;"">Press space to start the trial</div>"," ","","","","","","",""
"","","","","","html-keyboard-response","372","2.0.0","450220","pdt8l2wq3fy","ono","fawn","20","Male","no","no","0","3-5","null","<div style=""font-size:60px;"">+</div>","null","","","","","","",""
"","","","","","audio-keyboard-response","373","2.0.0","450822","pdt8l2wq3fy","ono","fawn","20","Male","no","no","0","3-5","null","stimuli/sounds/hiccup_sound_B.wav","null","","","","","","",""
"","","","","","html-keyboard-response","374","2.0.0","451825","pdt8l2wq3fy","ono","fawn","20","Male","no","no","0","3-5","null","","null","","","","","","",""
"","","","","","image-keyboard-response","375","2.0.0","453371","pdt8l2wq3fy","ono","fawn","20","Male","no","no","0","3-5","1544","stimuli/pictures/hiccup_man_2.jpg","1","1","","true","yes","sound","stimuli/sounds/hiccup_sound_B.wav",""
"","","","","","audio-keyboard-response","376","2.0.0","454373","pdt8l2wq3fy","ono","fawn","20","Male","no","no","0","3-5","null","stimuli/sounds/bleep.wav","null","","","","","","",""
"","","","","","html-keyboard-response","377","2.0.0","455102","pdt8l2wq3fy","ono","fawn","20","Male","no","no","0","3-5","628","<div style=""font-size:30px;"">Press space to start the trial</div>"," ","","","","","","",""
"","","","","","html-keyboard-response","378","2.0.0","455355","pdt8l2wq3fy","ono","fawn","20","Male","no","no","0","3-5","null","<div style=""font-size:60px;"">+</div>","null","","","","","","",""
"","","","","","audio-keyboard-response","379","2.0.0","455965","pdt8l2wq3fy","ono","fawn","20","Male","no","no","0","3-5","null","stimuli/sounds/hiccup_label_B.wav","null","","","","","","",""
"","","","","","html-keyboard-response","380","2.0.0","456968","pdt8l2wq3fy","ono","fawn","20","Male","no","no","0","3-5","null","","null","","","","","","",""
"","","","","","image-keyboard-response","381","2.0.0","458267","pdt8l2wq3fy","ono","fawn","20","Male","no","no","0","3-5","1298","stimuli/pictures/hiccup_wom_2.jpg","1","1","","true","yes","sound","stimuli/sounds/hiccup_label_B.wav",""
"","","","","","audio-keyboard-response","382","2.0.0","459270","pdt8l2wq3fy","ono","fawn","20","Male","no","no","0","3-5","null","stimuli/sounds/bleep.wav","null","","","","","","",""
"","","","","","html-keyboard-response","383","2.0.0","460144","pdt8l2wq3fy","ono","fawn","20","Male","no","no","0","3-5","771","<div style=""font-size:30px;"">Press space to start the trial</div>"," ","","","","","","",""
"","","","","","html-keyboard-response","384","2.0.0","460396","pdt8l2wq3fy","ono","fawn","20","Male","no","no","0","3-5","null","<div style=""font-size:60px;"">+</div>","null","","","","","","",""
"","","","","","audio-keyboard-response","385","2.0.0","460997","pdt8l2wq3fy","ono","fawn","20","Male","no","no","0","3-5","null","stimuli/sounds/hiccup_sound_B.wav","null","","","","","","",""
"","","","","","html-keyboard-response","386","2.0.0","462000","pdt8l2wq3fy","ono","fawn","20","Male","no","no","0","3-5","null","","null","","","","","","",""
"","","","","","image-keyboard-response","387","2.0.0","462715","pdt8l2wq3fy","ono","fawn","20","Male","no","no","0","3-5","713","stimuli/pictures/drop_single_2.jpg","0","0","","true","no","sound","stimuli/sounds/hiccup_sound_B.wav",""
"","","","","","audio-keyboard-response","388","2.0.0","463717","pdt8l2wq3fy","ono","fawn","20","Male","no","no","0","3-5","null","stimuli/sounds/bleep.wav","null","","","","","","",""
"","","","","","html-keyboard-response","389","2.0.0","465106","pdt8l2wq3fy","ono","fawn","20","Male","no","no","0","3-5","1287","<p>You have completed a block. Press R when you are ready to continue</p>","r","","","","","","",""
"","","","","","html-keyboard-response","390","2.0.0","465820","pdt8l2wq3fy","ono","fawn","20","Male","no","no","0","3-5","714","<div style=""font-size:30px;"">Press space to start the trial</div>"," ","","","","","","",""
"","","","","","html-keyboard-response","391","2.0.0","466072","pdt8l2wq3fy","ono","fawn","20","Male","no","no","0","3-5","null","<div style=""font-size:60px;"">+</div>","null","","","","","","",""
"","","","","","audio-keyboard-response","392","2.0.0","466673","pdt8l2wq3fy","ono","fawn","20","Male","no","no","0","3-5","null","stimuli/sounds/motor_label_B.wav","null","","","","","","",""
"","","","","","html-keyboard-response","393","2.0.0","467676","pdt8l2wq3fy","ono","fawn","20","Male","no","no","0","3-5","null","","null","","","","","","",""
"","","","","","image-keyboard-response","394","2.0.0","468542","pdt8l2wq3fy","ono","fawn","20","Male","no","no","0","3-5","864","stimuli/pictures/motor_harley_2.jpg","1","1","","true","yes","sound","stimuli/sounds/motor_label_B.wav",""
"","","","","","audio-keyboard-response","395","2.0.0","469545","pdt8l2wq3fy","ono","fawn","20","Male","no","no","0","3-5","null","stimuli/sounds/bleep.wav","null","","","","","","",""
"","","","","","html-keyboard-response","396","2.0.0","470161","pdt8l2wq3fy","ono","fawn","20","Male","no","no","0","3-5","514","<div style=""font-size:30px;"">Press space to start the trial</div>"," ","","","","","","",""
"","","","","","html-keyboard-response","397","2.0.0","470413","pdt8l2wq3fy","ono","fawn","20","Male","no","no","0","3-5","null","<div style=""font-size:60px;"">+</div>","null","","","","","","",""
"","","","","","audio-keyboard-response","398","2.0.0","471017","pdt8l2wq3fy","ono","fawn","20","Male","no","no","0","3-5","null","stimuli/sounds/drop_sound_B.wav","null","","","","","","",""
"","","","","","html-keyboard-response","399","2.0.0","472019","pdt8l2wq3fy","ono","fawn","20","Male","no","no","0","3-5","null","","null","","","","","","",""
"","","","","","image-keyboard-response","400","2.0.0","473837","pdt8l2wq3fy","ono","fawn","20","Male","no","no","0","3-5","1816","stimuli/pictures/dog_rott_1.jpg","0","0","","true","no","sound","stimuli/sounds/drop_sound_B.wav",""
"","","","","","audio-keyboard-response","401","2.0.0","474840","pdt8l2wq3fy","ono","fawn","20","Male","no","no","0","3-5","null","stimuli/sounds/bleep.wav","null","","","","","","",""
"","","","","","html-keyboard-response","402","2.0.0","476190","pdt8l2wq3fy","ono","fawn","20","Male","no","no","0","3-5","1249","<div style=""font-size:30px;"">Press space to start the trial</div>"," ","","","","","","",""
"","","","","","html-keyboard-response","403","2.0.0","476443","pdt8l2wq3fy","ono","fawn","20","Male","no","no","0","3-5","null","<div style=""font-size:60px;"">+</div>","null","","","","","","",""
"","","","","","audio-keyboard-response","404","2.0.0","477046","pdt8l2wq3fy","ono","fawn","20","Male","no","no","0","3-5","null","stimuli/sounds/motor_sound_A.wav","null","","","","","","",""
"","","","","","html-keyboard-response","405","2.0.0","478049","pdt8l2wq3fy","ono","fawn","20","Male","no","no","0","3-5","null","","null","","","","","","",""
"","","","","","image-keyboard-response","406","2.0.0","479776","pdt8l2wq3fy","ono","fawn","20","Male","no","no","0","3-5","1726","stimuli/pictures/drop_single_1.jpg","0","0","","true","no","sound","stimuli/sounds/motor_sound_A.wav",""
"","","","","","audio-keyboard-response","407","2.0.0","480779","pdt8l2wq3fy","ono","fawn","20","Male","no","no","0","3-5","null","stimuli/sounds/bleep.wav","null","","","","","","",""
"","","","","","html-keyboard-response","408","2.0.0","482920","pdt8l2wq3fy","ono","fawn","20","Male","no","no","0","3-5","2039","<div style=""font-size:30px;"">Press space to start the trial</div>"," ","","","","","","",""
"","","","","","html-keyboard-response","409","2.0.0","483172","pdt8l2wq3fy","ono","fawn","20","Male","no","no","0","3-5","null","<div style=""font-size:60px;"">+</div>","null","","","","","","",""
"","","","","","audio-keyboard-response","410","2.0.0","483770","pdt8l2wq3fy","ono","fawn","20","Male","no","no","0","3-5","null","stimuli/sounds/motor_label_B.wav","null","","","","","","",""
"","","","","","html-keyboard-response","411","2.0.0","484773","pdt8l2wq3fy","ono","fawn","20","Male","no","no","0","3-5","null","","null","","","","","","",""
"","","","","","image-keyboard-response","412","2.0.0","486189","pdt8l2wq3fy","ono","fawn","20","Male","no","no","0","3-5","1415","stimuli/pictures/motor_dirt_1.jpg","1","1","","true","yes","sound","stimuli/sounds/motor_label_B.wav",""
"","","","","","audio-keyboard-response","413","2.0.0","487192","pdt8l2wq3fy","ono","fawn","20","Male","no","no","0","3-5","null","stimuli/sounds/bleep.wav","null","","","","","","",""
"","","","","","html-keyboard-response","414","2.0.0","489720","pdt8l2wq3fy","ono","fawn","20","Male","no","no","0","3-5","2426","<div style=""font-size:30px;"">Press space to start the trial</div>"," ","","","","","","",""
"","","","","","html-keyboard-response","415","2.0.0","489972","pdt8l2wq3fy","ono","fawn","20","Male","no","no","0","3-5","null","<div style=""font-size:60px;"">+</div>","null","","","","","","",""
"","","","","","audio-keyboard-response","416","2.0.0","490575","pdt8l2wq3fy","ono","fawn","20","Male","no","no","0","3-5","null","stimuli/sounds/motor_label_A.wav","null","","","","","","",""
"","","","","","html-keyboard-response","417","2.0.0","491578","pdt8l2wq3fy","ono","fawn","20","Male","no","no","0","3-5","null","","null","","","","","","",""
"","","","","","image-keyboard-response","418","2.0.0","492268","pdt8l2wq3fy","ono","fawn","20","Male","no","no","0","3-5","688","stimuli/pictures/dog_york_2.jpg","0","0","","true","no","sound","stimuli/sounds/motor_label_A.wav",""
"","","","","","audio-keyboard-response","419","2.0.0","493271","pdt8l2wq3fy","ono","fawn","20","Male","no","no","0","3-5","null","stimuli/sounds/bleep.wav","null","","","","","","",""
"","","","","","html-keyboard-response","420","2.0.0","494271","pdt8l2wq3fy","ono","fawn","20","Male","no","no","0","3-5","897","<div style=""font-size:30px;"">Press space to start the trial</div>"," ","","","","","","",""
"","","","","","html-keyboard-response","421","2.0.0","494522","pdt8l2wq3fy","ono","fawn","20","Male","no","no","0","3-5","null","<div style=""font-size:60px;"">+</div>","null","","","","","","",""
"","","","","","audio-keyboard-response","422","2.0.0","495104","pdt8l2wq3fy","ono","fawn","20","Male","no","no","0","3-5","null","stimuli/sounds/drop_sound_A.wav","null","","","","","","",""
"","","","","","html-keyboard-response","423","2.0.0","496107","pdt8l2wq3fy","ono","fawn","20","Male","no","no","0","3-5","null","","null","","","","","","",""
"","","","","","image-keyboard-response","424","2.0.0","498220","pdt8l2wq3fy","ono","fawn","20","Male","no","no","0","3-5","2112","stimuli/pictures/drop_multi_1.jpg","0","1","","false","no","sound","stimuli/sounds/drop_sound_A.wav",""
"","","","","","audio-keyboard-response","425","2.0.0","499222","pdt8l2wq3fy","ono","fawn","20","Male","no","no","0","3-5","null","stimuli/sounds/buzz.wav","null","","","","","","",""
"","","","","","html-keyboard-response","426","2.0.0","501354","pdt8l2wq3fy","ono","fawn","20","Male","no","no","0","3-5","2030","<div style=""font-size:30px;"">Press space to start the trial</div>"," ","","","","","","",""
"","","","","","html-keyboard-response","427","2.0.0","501604","pdt8l2wq3fy","ono","fawn","20","Male","no","no","0","3-5","null","<div style=""font-size:60px;"">+</div>","null","","","","","","",""
"","","","","","audio-keyboard-response","428","2.0.0","502286","pdt8l2wq3fy","ono","fawn","20","Male","no","no","0","3-5","null","stimuli/sounds/cough_sound_B.wav","null","","","","","","",""
"","","","","","html-keyboard-response","429","2.0.0","503289","pdt8l2wq3fy","ono","fawn","20","Male","no","no","0","3-5","null","","null","","","","","","",""
"","","","","","image-keyboard-response","430","2.0.0","505354","pdt8l2wq3fy","ono","fawn","20","Male","no","no","0","3-5","2063","stimuli/pictures/hiccup_wom_2.jpg","1","0","","false","no","sound","stimuli/sounds/cough_sound_B.wav",""
"","","","","","audio-keyboard-response","431","2.0.0","506356","pdt8l2wq3fy","ono","fawn","20","Male","no","no","0","3-5","null","stimuli/sounds/buzz.wav","null","","","","","","",""
"","","","","","html-keyboard-response","432","2.0.0","507414","pdt8l2wq3fy","ono","fawn","20","Male","no","no","0","3-5","955","<div style=""font-size:30px;"">Press space to start the trial</div>"," ","","","","","","",""
"","","","","","html-keyboard-response","433","2.0.0","507666","pdt8l2wq3fy","ono","fawn","20","Male","no","no","0","3-5","null","<div style=""font-size:60px;"">+</div>","null","","","","","","",""
"","","","","","audio-keyboard-response","434","2.0.0","508268","pdt8l2wq3fy","ono","fawn","20","Male","no","no","0","3-5","null","stimuli/sounds/motor_label_A.wav","null","","","","","","",""
"","","","","","html-keyboard-response","435","2.0.0","509271","pdt8l2wq3fy","ono","fawn","20","Male","no","no","0","3-5","null","","null","","","","","","",""
"","","","","","image-keyboard-response","436","2.0.0","509753","pdt8l2wq3fy","ono","fawn","20","Male","no","no","0","3-5","481","stimuli/pictures/motor_dirt_2.jpg","1","1","","true","yes","sound","stimuli/sounds/motor_label_A.wav",""
"","","","","","audio-keyboard-response","437","2.0.0","510757","pdt8l2wq3fy","ono","fawn","20","Male","no","no","0","3-5","null","stimuli/sounds/bleep.wav","null","","","","","","",""
"","","","","","html-keyboard-response","438","2.0.0","511818","pdt8l2wq3fy","ono","fawn","20","Male","no","no","0","3-5","959","<div style=""font-size:30px;"">Press space to start the trial</div>"," ","","","","","","",""
"","","","","","html-keyboard-response","439","2.0.0","512070","pdt8l2wq3fy","ono","fawn","20","Male","no","no","0","3-5","null","<div style=""font-size:60px;"">+</div>","null","","","","","","",""
"","","","","","audio-keyboard-response","440","2.0.0","512676","pdt8l2wq3fy","ono","fawn","20","Male","no","no","0","3-5","null","stimuli/sounds/dog_label_A.wav","null","","","","","","",""
"","","","","","html-keyboard-response","441","2.0.0","513679","pdt8l2wq3fy","ono","fawn","20","Male","no","no","0","3-5","null","","null","","","","","","",""
"","","","","","image-keyboard-response","442","2.0.0","514756","pdt8l2wq3fy","ono","fawn","20","Male","no","no","0","3-5","1075","stimuli/pictures/dog_york_1.jpg","1","1","","true","yes","sound","stimuli/sounds/dog_label_A.wav",""
"","","","","","audio-keyboard-response","443","2.0.0","515758","pdt8l2wq3fy","ono","fawn","20","Male","no","no","0","3-5","null","stimuli/sounds/bleep.wav","null","","","","","","",""
"","","","","","html-keyboard-response","444","2.0.0","516883","pdt8l2wq3fy","ono","fawn","20","Male","no","no","0","3-5","1022","<div style=""font-size:30px;"">Press space to start the trial</div>"," ","","","","","","",""
"","","","","","html-keyboard-response","445","2.0.0","517136","pdt8l2wq3fy","ono","fawn","20","Male","no","no","0","3-5","null","<div style=""font-size:60px;"">+</div>","null","","","","","","",""
"","","","","","audio-keyboard-response","446","2.0.0","517743","pdt8l2wq3fy","ono","fawn","20","Male","no","no","0","3-5","null","stimuli/sounds/dog_sound_A.wav","null","","","","","","",""
"","","","","","html-keyboard-response","447","2.0.0","518746","pdt8l2wq3fy","ono","fawn","20","Male","no","no","0","3-5","null","","null","","","","","","",""
"","","","","","image-keyboard-response","448","2.0.0","520321","pdt8l2wq3fy","ono","fawn","20","Male","no","no","0","3-5","1573","stimuli/pictures/hiccup_man_1.jpg","0","0","","true","no","sound","stimuli/sounds/dog_sound_A.wav",""
"","","","","","audio-keyboard-response","449","2.0.0","521323","pdt8l2wq3fy","ono","fawn","20","Male","no","no","0","3-5","null","stimuli/sounds/bleep.wav","null","","","","","","",""
"","","","","","html-keyboard-response","450","2.0.0","522306","pdt8l2wq3fy","ono","fawn","20","Male","no","no","0","3-5","881","<div style=""font-size:30px;"">Press space to start the trial</div>"," ","","","","","","",""
"","","","","","html-keyboard-response","451","2.0.0","522559","pdt8l2wq3fy","ono","fawn","20","Male","no","no","0","3-5","null","<div style=""font-size:60px;"">+</div>","null","","","","","","",""
"","","","","","audio-keyboard-response","452","2.0.0","523106","pdt8l2wq3fy","ono","fawn","20","Male","no","no","0","3-5","null","stimuli/sounds/drop_label_A.wav","null","","","","","","",""
"","","","","","html-keyboard-response","453","2.0.0","524109","pdt8l2wq3fy","ono","fawn","20","Male","no","no","0","3-5","null","","null","","","","","","",""
"","","","","","image-keyboard-response","454","2.0.0","525042","pdt8l2wq3fy","ono","fawn","20","Male","no","no","0","3-5","931","stimuli/pictures/hiccup_wom_1.jpg","0","0","","true","no","sound","stimuli/sounds/drop_label_A.wav",""
"","","","","","audio-keyboard-response","455","2.0.0","526045","pdt8l2wq3fy","ono","fawn","20","Male","no","no","0","3-5","null","stimuli/sounds/bleep.wav","null","","","","","","",""
"","","","","","html-keyboard-response","456","2.0.0","526611","pdt8l2wq3fy","ono","fawn","20","Male","no","no","0","3-5","465","<div style=""font-size:30px;"">Press space to start the trial</div>"," ","","","","","","",""
"","","","","","html-keyboard-response","457","2.0.0","526863","pdt8l2wq3fy","ono","fawn","20","Male","no","no","0","3-5","null","<div style=""font-size:60px;"">+</div>","null","","","","","","",""
"","","","","","audio-keyboard-response","458","2.0.0","527468","pdt8l2wq3fy","ono","fawn","20","Male","no","no","0","3-5","null","stimuli/sounds/hiccup_sound_B.wav","null","","","","","","",""
"","","","","","html-keyboard-response","459","2.0.0","528470","pdt8l2wq3fy","ono","fawn","20","Male","no","no","0","3-5","null","","null","","","","","","",""
"","","","","","image-keyboard-response","460","2.0.0","529261","pdt8l2wq3fy","ono","fawn","20","Male","no","no","0","3-5","789","stimuli/pictures/drop_multi_2.jpg","0","0","","true","no","sound","stimuli/sounds/hiccup_sound_B.wav",""
"","","","","","audio-keyboard-response","461","2.0.0","530263","pdt8l2wq3fy","ono","fawn","20","Male","no","no","0","3-5","null","stimuli/sounds/bleep.wav","null","","","","","","",""
"","","","","","html-keyboard-response","462","2.0.0","531295","pdt8l2wq3fy","ono","fawn","20","Male","no","no","0","3-5","928","<div style=""font-size:30px;"">Press space to start the trial</div>"," ","","","","","","",""
"","","","","","html-keyboard-response","463","2.0.0","531547","pdt8l2wq3fy","ono","fawn","20","Male","no","no","0","3-5","null","<div style=""font-size:60px;"">+</div>","null","","","","","","",""
"","","","","","audio-keyboard-response","464","2.0.0","532147","pdt8l2wq3fy","ono","fawn","20","Male","no","no","0","3-5","null","stimuli/sounds/drop_sound_B.wav","null","","","","","","",""
"","","","","","html-keyboard-response","465","2.0.0","533149","pdt8l2wq3fy","ono","fawn","20","Male","no","no","0","3-5","null","","null","","","","","","",""
"","","","","","image-keyboard-response","466","2.0.0","534339","pdt8l2wq3fy","ono","fawn","20","Male","no","no","0","3-5","1188","stimuli/pictures/dog_rott_1.jpg","0","0","","true","no","sound","stimuli/sounds/drop_sound_B.wav",""
"","","","","","audio-keyboard-response","467","2.0.0","535341","pdt8l2wq3fy","ono","fawn","20","Male","no","no","0","3-5","null","stimuli/sounds/bleep.wav","null","","","","","","",""
"","","","","","html-keyboard-response","468","2.0.0","535877","pdt8l2wq3fy","ono","fawn","20","Male","no","no","0","3-5","433","<div style=""font-size:30px;"">Press space to start the trial</div>"," ","","","","","","",""
"","","","","","html-keyboard-response","469","2.0.0","536130","pdt8l2wq3fy","ono","fawn","20","Male","no","no","0","3-5","null","<div style=""font-size:60px;"">+</div>","null","","","","","","",""
"","","","","","audio-keyboard-response","470","2.0.0","536728","pdt8l2wq3fy","ono","fawn","20","Male","no","no","0","3-5","null","stimuli/sounds/motor_label_A.wav","null","","","","","","",""
"","","","","","html-keyboard-response","471","2.0.0","537731","pdt8l2wq3fy","ono","fawn","20","Male","no","no","0","3-5","null","","null","","","","","","",""
"","","","","","image-keyboard-response","472","2.0.0","538643","pdt8l2wq3fy","ono","fawn","20","Male","no","no","0","3-5","910","stimuli/pictures/motor_harley_1.jpg","1","1","","true","yes","sound","stimuli/sounds/motor_label_A.wav",""
"","","","","","audio-keyboard-response","473","2.0.0","539645","pdt8l2wq3fy","ono","fawn","20","Male","no","no","0","3-5","null","stimuli/sounds/bleep.wav","null","","","","","","",""
"","","","","","html-keyboard-response","474","2.0.0","541971","pdt8l2wq3fy","ono","fawn","20","Male","no","no","0","3-5","2223","<div style=""font-size:30px;"">Press space to start the trial</div>"," ","","","","","","",""
"","","","","","html-keyboard-response","475","2.0.0","542222","pdt8l2wq3fy","ono","fawn","20","Male","no","no","0","3-5","null","<div style=""font-size:60px;"">+</div>","null","","","","","","",""
"","","","","","audio-keyboard-response","476","2.0.0","542827","pdt8l2wq3fy","ono","fawn","20","Male","no","no","0","3-5","null","stimuli/sounds/dog_label_B.wav","null","","","","","","",""
"","","","","","html-keyboard-response","477","2.0.0","543830","pdt8l2wq3fy","ono","fawn","20","Male","no","no","0","3-5","null","","null","","","","","","",""
"","","","","","image-keyboard-response","478","2.0.0","544492","pdt8l2wq3fy","ono","fawn","20","Male","no","no","0","3-5","660","stimuli/pictures/cough_wom_1.jpg","0","0","","true","no","sound","stimuli/sounds/dog_label_B.wav",""
"","","","","","audio-keyboard-response","479","2.0.0","545494","pdt8l2wq3fy","ono","fawn","20","Male","no","no","0","3-5","null","stimuli/sounds/bleep.wav","null","","","","","","",""
"","","","","","html-keyboard-response","480","2.0.0","546615","pdt8l2wq3fy","ono","fawn","20","Male","no","no","0","3-5","1018","<div style=""font-size:30px;"">Press space to start the trial</div>"," ","","","","","","",""
"","","","","","html-keyboard-response","481","2.0.0","546867","pdt8l2wq3fy","ono","fawn","20","Male","no","no","0","3-5","null","<div style=""font-size:60px;"">+</div>","null","","","","","","",""
"","","","","","audio-keyboard-response","482","2.0.0","547500","pdt8l2wq3fy","ono","fawn","20","Male","no","no","0","3-5","null","stimuli/sounds/cough_label_A.wav","null","","","","","","",""
"","","","","","html-keyboard-response","483","2.0.0","548503","pdt8l2wq3fy","ono","fawn","20","Male","no","no","0","3-5","null","","null","","","","","","",""
"","","","","","image-keyboard-response","484","2.0.0","549246","pdt8l2wq3fy","ono","fawn","20","Male","no","no","0","3-5","741","stimuli/pictures/cough_wom_1.jpg","1","1","","true","yes","sound","stimuli/sounds/cough_label_A.wav",""
"","","","","","audio-keyboard-response","485","2.0.0","550249","pdt8l2wq3fy","ono","fawn","20","Male","no","no","0","3-5","null","stimuli/sounds/bleep.wav","null","","","","","","",""
"","","","","","html-keyboard-response","486","2.0.0","550891","pdt8l2wq3fy","ono","fawn","20","Male","no","no","0","3-5","540","<div style=""font-size:30px;"">Press space to start the trial</div>"," ","","","","","","",""
"","","","","","html-keyboard-response","487","2.0.0","551144","pdt8l2wq3fy","ono","fawn","20","Male","no","no","0","3-5","null","<div style=""font-size:60px;"">+</div>","null","","","","","","",""
"","","","","","audio-keyboard-response","488","2.0.0","551746","pdt8l2wq3fy","ono","fawn","20","Male","no","no","0","3-5","null","stimuli/sounds/dog_sound_B.wav","null","","","","","","",""
"","","","","","html-keyboard-response","489","2.0.0","552749","pdt8l2wq3fy","ono","fawn","20","Male","no","no","0","3-5","null","","null","","","","","","",""
"","","","","","image-keyboard-response","490","2.0.0","554039","pdt8l2wq3fy","ono","fawn","20","Male","no","no","0","3-5","1288","stimuli/pictures/motor_harley_1.jpg","0","0","","true","no","sound","stimuli/sounds/dog_sound_B.wav",""
"","","","","","audio-keyboard-response","491","2.0.0","555041","pdt8l2wq3fy","ono","fawn","20","Male","no","no","0","3-5","null","stimuli/sounds/bleep.wav","null","","","","","","",""
"","","","","","html-keyboard-response","492","2.0.0","556276","pdt8l2wq3fy","ono","fawn","20","Male","no","no","0","3-5","1132","<div style=""font-size:30px;"">Press space to start the trial</div>"," ","","","","","","",""
"","","","","","html-keyboard-response","493","2.0.0","556528","pdt8l2wq3fy","ono","fawn","20","Male","no","no","0","3-5","null","<div style=""font-size:60px;"">+</div>","null","","","","","","",""
"","","","","","audio-keyboard-response","494","2.0.0","557126","pdt8l2wq3fy","ono","fawn","20","Male","no","no","0","3-5","null","stimuli/sounds/dog_label_B.wav","null","","","","","","",""
"","","","","","html-keyboard-response","495","2.0.0","558129","pdt8l2wq3fy","ono","fawn","20","Male","no","no","0","3-5","null","","null","","","","","","",""
