"success","timeout","failed_images","failed_audio","failed_video","trial_type","trial_index","plugin_version","time_elapsed","random_id","condition","participant","age","gender_id","mus_exp","inst_exp","years_exp","mus_listening","rt","stimulus","response","correct_response","practice","correct","congruent","sound_type","audio","question_order"
"true","false","[]","[]","[]","preload","0","2.0.0","401","pe3qt92wz78","mus","wallaby","22","female","no","no","0","5","","","","","","","","","",""
"","","","","","html-keyboard-response","1","2.0.0","1266","pe3qt92wz78","mus","wallaby","22","female","no","no","0","5","864","Welcome to the experiment! Press any key to begin.","j","","","","","","",""
"true","","","","","fullscreen","2","null","4624","pe3qt92wz78","mus","wallaby","22","female","no","no","0","5","2355","","","","","","","","",""
"","","","","","survey-text","3","2.0.0","9339","pe3qt92wz78","mus","wallaby","22","female","no","no","0","5","4710","","{""participant_id"":""wallaby""}","","","","","","",""
"","","","","","html-keyboard-response","4","2.0.0","53144","pe3qt92wz78","mus","wallaby","22","female","no","no","0","5","43805","
    <p> Please use headphones for the duration of the study.</p>
    <p> Within each trial, you will hear a sound and then be presented with an image in the center of your screen.</p>
    <p>Press the <b>'1'</b> key if what you hear <u>matches</u> what you see.</p>
    <p>Press the <b>'0'</b> key if what you hear <u>does not match</u> what you see.</p>
    <p>Try to respond as quickly and accurately as you can.</p>
    <p> Press any key to begin.</p>
    ","j","","","","","","",""
"","","","","","html-keyboard-response","5","2.0.0","55527","pe3qt92wz78","mus","wallaby","22","female","no","no","0","5","2382","
    <div style=""font-size:28px;"">
      <p>You will now complete 4 short practice trials.</p>
      <p>This is just to help you get familiar with the task.</p>
      <p>Press any key to begin.</p>
    </div>
  ","g","","","","","","",""
"","","","","","html-keyboard-response","6","2.0.0","56030","pe3qt92wz78","mus","wallaby","22","female","no","no","0","5","null","<div style=""font-size:60px;"">+</div>","null","","","","","","",""
"","","","","","audio-keyboard-response","7","2.0.0","56855","pe3qt92wz78","mus","wallaby","22","female","no","no","0","5","null","stimuli/sounds/guitar_label_A.wav","null","","","","","","",""
"","","","","","image-keyboard-response","8","2.0.0","57576","pe3qt92wz78","mus","wallaby","22","female","no","no","0","5","716","stimuli/pictures/guitar_acoustic_1.jpg","1","1","true","true","","","",""
"","","","","","audio-keyboard-response","9","2.0.0","58379","pe3qt92wz78","mus","wallaby","22","female","no","no","0","5","null","stimuli/sounds/bleep.wav","null","","","","","","",""
"","","","","","html-keyboard-response","10","2.0.0","59082","pe3qt92wz78","mus","wallaby","22","female","no","no","0","5","null","<p style='color:green; font-size:30px;'>Correct!</p>","null","","","","","","",""
"","","","","","html-keyboard-response","11","2.0.0","59583","pe3qt92wz78","mus","wallaby","22","female","no","no","0","5","null","<div style=""font-size:60px;"">+</div>","null","","","","","","",""
"","","","","","audio-keyboard-response","12","2.0.0","60187","pe3qt92wz78","mus","wallaby","22","female","no","no","0","5","null","stimuli/sounds/guitar_sound_B.wav","null","","","","","","",""
"","","","","","image-keyboard-response","13","2.0.0","61157","pe3qt92wz78","mus","wallaby","22","female","no","no","0","5","968","stimuli/pictures/guitar_acoustic_2.jpg","1","1","true","true","","","",""
"","","","","","audio-keyboard-response","14","2.0.0","61960","pe3qt92wz78","mus","wallaby","22","female","no","no","0","5","null","stimuli/sounds/bleep.wav","null","","","","","","",""
"","","","","","html-keyboard-response","15","2.0.0","62662","pe3qt92wz78","mus","wallaby","22","female","no","no","0","5","null","<p style='color:green; font-size:30px;'>Correct!</p>","null","","","","","","",""
"","","","","","html-keyboard-response","16","2.0.0","63165","pe3qt92wz78","mus","wallaby","22","female","no","no","0","5","null","<div style=""font-size:60px;"">+</div>","null","","","","","","",""
"","","","","","audio-keyboard-response","17","2.0.0","63769","pe3qt92wz78","mus","wallaby","22","female","no","no","0","5","null","stimuli/sounds/flute_sound_A.wav","null","","","","","","",""
"","","","","","image-keyboard-response","18","2.0.0","64794","pe3qt92wz78","mus","wallaby","22","female","no","no","0","5","1023","stimuli/pictures/guitar_electric_1.jpg","0","0","true","true","","","",""
"","","","","","audio-keyboard-response","19","2.0.0","65597","pe3qt92wz78","mus","wallaby","22","female","no","no","0","5","null","stimuli/sounds/bleep.wav","null","","","","","","",""
"","","","","","html-keyboard-response","20","2.0.0","66298","pe3qt92wz78","mus","wallaby","22","female","no","no","0","5","null","<p style='color:green; font-size:30px;'>Correct!</p>","null","","","","","","",""
"","","","","","html-keyboard-response","21","2.0.0","66801","pe3qt92wz78","mus","wallaby","22","female","no","no","0","5","null","<div style=""font-size:60px;"">+</div>","null","","","","","","",""
"","","","","","audio-keyboard-response","22","2.0.0","67402","pe3qt92wz78","mus","wallaby","22","female","no","no","0","5","null","stimuli/sounds/guitar_sound_A.wav","null","","","","","","",""
"","","","","","image-keyboard-response","23","2.0.0","68720","pe3qt92wz78","mus","wallaby","22","female","no","no","0","5","1316","stimuli/pictures/guitar_acoustic_1.jpg","0","1","true","false","","","",""
"","","","","","audio-keyboard-response","24","2.0.0","69522","pe3qt92wz78","mus","wallaby","22","female","no","no","0","5","null","stimuli/sounds/buzz.wav","null","","","","","","",""
"","","","","","html-keyboard-response","25","2.0.0","70224","pe3qt92wz78","mus","wallaby","22","female","no","no","0","5","null","<p style='color:red; font-size:30px;'>Incorrect</p>","null","","","","","","",""
"","","","","","html-keyboard-response","26","2.0.0","73606","pe3qt92wz78","mus","wallaby","22","female","no","no","0","5","3380","<p>Practice complete. Press any key to begin the real experiment.</p>","d","","","","","","",""
"","","","","","html-keyboard-response","27","2.0.0","83149","pe3qt92wz78","mus","wallaby","22","female","no","no","0","5","9543","<div style=""font-size:30px;"">Press space to start the trial</div>"," ","","","","","","",""
"","","","","","html-keyboard-response","28","2.0.0","83402","pe3qt92wz78","mus","wallaby","22","female","no","no","0","5","null","<div style=""font-size:60px;"">+</div>","null","","","","","","",""
"","","","","","audio-keyboard-response","29","2.0.0","84005","pe3qt92wz78","mus","wallaby","22","female","no","no","0","5","null","stimuli/sounds/bird_sound_A.wav","null","","","","","","",""
"","","","","","html-keyboard-response","30","2.0.0","85007","pe3qt92wz78","mus","wallaby","22","female","no","no","0","5","null","","null","","","","","","",""
"","","","","","image-keyboard-response","31","2.0.0","85796","pe3qt92wz78","mus","wallaby","22","female","no","no","0","5","786","stimuli/pictures/piano_electric_1.jpg","0","0","","true","no","sound","stimuli/sounds/bird_sound_A.wav",""
"","","","","","audio-keyboard-response","32","2.0.0","86798","pe3qt92wz78","mus","wallaby","22","female","no","no","0","5","null","stimuli/sounds/bleep.wav","null","","","","","","",""
"","","","","","html-keyboard-response","33","2.0.0","92292","pe3qt92wz78","mus","wallaby","22","female","no","no","0","5","5390","<div style=""font-size:30px;"">Press space to start the trial</div>"," ","","","","","","",""
"","","","","","html-keyboard-response","34","2.0.0","92545","pe3qt92wz78","mus","wallaby","22","female","no","no","0","5","null","<div style=""font-size:60px;"">+</div>","null","","","","","","",""
"","","","","","audio-keyboard-response","35","2.0.0","93147","pe3qt92wz78","mus","wallaby","22","female","no","no","0","5","null","stimuli/sounds/drum_label_A.wav","null","","","","","","",""
"","","","","","html-keyboard-response","36","2.0.0","94150","pe3qt92wz78","mus","wallaby","22","female","no","no","0","5","null","","null","","","","","","",""
"","","","","","image-keyboard-response","37","2.0.0","95352","pe3qt92wz78","mus","wallaby","22","female","no","no","0","5","1200","stimuli/pictures/drum_kit_1.jpg","1","1","","true","yes","sound","stimuli/sounds/drum_label_A.wav",""
"","","","","","audio-keyboard-response","38","2.0.0","96355","pe3qt92wz78","mus","wallaby","22","female","no","no","0","5","null","stimuli/sounds/bleep.wav","null","","","","","","",""
"","","","","","html-keyboard-response","39","2.0.0","97289","pe3qt92wz78","mus","wallaby","22","female","no","no","0","5","832","<div style=""font-size:30px;"">Press space to start the trial</div>"," ","","","","","","",""
"","","","","","html-keyboard-response","40","2.0.0","97541","pe3qt92wz78","mus","wallaby","22","female","no","no","0","5","null","<div style=""font-size:60px;"">+</div>","null","","","","","","",""
"","","","","","audio-keyboard-response","41","2.0.0","98145","pe3qt92wz78","mus","wallaby","22","female","no","no","0","5","null","stimuli/sounds/phone_sound_A.wav","null","","","","","","",""
"","","","","","html-keyboard-response","42","2.0.0","99148","pe3qt92wz78","mus","wallaby","22","female","no","no","0","5","null","","null","","","","","","",""
"","","","","","image-keyboard-response","43","2.0.0","100186","pe3qt92wz78","mus","wallaby","22","female","no","no","0","5","1036","stimuli/pictures/phone_rotary_1.jpg","1","1","","true","no","sound","stimuli/sounds/phone_sound_A.wav",""
"","","","","","audio-keyboard-response","44","2.0.0","101188","pe3qt92wz78","mus","wallaby","22","female","no","no","0","5","null","stimuli/sounds/bleep.wav","null","","","","","","",""
"","","","","","html-keyboard-response","45","2.0.0","103187","pe3qt92wz78","mus","wallaby","22","female","no","no","0","5","1896","<div style=""font-size:30px;"">Press space to start the trial</div>"," ","","","","","","",""
"","","","","","html-keyboard-response","46","2.0.0","103439","pe3qt92wz78","mus","wallaby","22","female","no","no","0","5","null","<div style=""font-size:60px;"">+</div>","null","","","","","","",""
"","","","","","audio-keyboard-response","47","2.0.0","104049","pe3qt92wz78","mus","wallaby","22","female","no","no","0","5","null","stimuli/sounds/flute_label_B.wav","null","","","","","","",""
"","","","","","html-keyboard-response","48","2.0.0","105051","pe3qt92wz78","mus","wallaby","22","female","no","no","0","5","null","","null","","","","","","",""
"","","","","","image-keyboard-response","49","2.0.0","105962","pe3qt92wz78","mus","wallaby","22","female","no","no","0","5","908","stimuli/pictures/drum_kit_1.jpg","0","0","","true","no","sound","stimuli/sounds/flute_label_B.wav",""
"","","","","","audio-keyboard-response","50","2.0.0","106964","pe3qt92wz78","mus","wallaby","22","female","no","no","0","5","null","stimuli/sounds/bleep.wav","null","","","","","","",""
"","","","","","html-keyboard-response","51","2.0.0","107698","pe3qt92wz78","mus","wallaby","22","female","no","no","0","5","632","<div style=""font-size:30px;"">Press space to start the trial</div>"," ","","","","","","",""
"","","","","","html-keyboard-response","52","2.0.0","107951","pe3qt92wz78","mus","wallaby","22","female","no","no","0","5","null","<div style=""font-size:60px;"">+</div>","null","","","","","","",""
"","","","","","audio-keyboard-response","53","2.0.0","108554","pe3qt92wz78","mus","wallaby","22","female","no","no","0","5","null","stimuli/sounds/piano_sound_B.wav","null","","","","","","",""
"","","","","","html-keyboard-response","54","2.0.0","109555","pe3qt92wz78","mus","wallaby","22","female","no","no","0","5","null","","null","","","","","","",""
"","","","","","image-keyboard-response","55","2.0.0","110515","pe3qt92wz78","mus","wallaby","22","female","no","no","0","5","958","stimuli/pictures/piano_grand_1.jpg","0","1","","false","no","sound","stimuli/sounds/piano_sound_B.wav",""
"","","","","","audio-keyboard-response","56","2.0.0","111519","pe3qt92wz78","mus","wallaby","22","female","no","no","0","5","null","stimuli/sounds/buzz.wav","null","","","","","","",""
"","","","","","html-keyboard-response","57","2.0.0","112621","pe3qt92wz78","mus","wallaby","22","female","no","no","0","5","999","<div style=""font-size:30px;"">Press space to start the trial</div>"," ","","","","","","",""
"","","","","","html-keyboard-response","58","2.0.0","112873","pe3qt92wz78","mus","wallaby","22","female","no","no","0","5","null","<div style=""font-size:60px;"">+</div>","null","","","","","","",""
"","","","","","audio-keyboard-response","59","2.0.0","113476","pe3qt92wz78","mus","wallaby","22","female","no","no","0","5","null","stimuli/sounds/bird_label_A.wav","null","","","","","","",""
"","","","","","html-keyboard-response","60","2.0.0","114478","pe3qt92wz78","mus","wallaby","22","female","no","no","0","5","null","","null","","","","","","",""
"","","","","","image-keyboard-response","61","2.0.0","115189","pe3qt92wz78","mus","wallaby","22","female","no","no","0","5","709","stimuli/pictures/bird_hawk_1.jpg","1","1","","true","yes","sound","stimuli/sounds/bird_label_A.wav",""
"","","","","","audio-keyboard-response","62","2.0.0","116193","pe3qt92wz78","mus","wallaby","22","female","no","no","0","5","null","stimuli/sounds/bleep.wav","null","","","","","","",""
"","","","","","html-keyboard-response","63","2.0.0","116870","pe3qt92wz78","mus","wallaby","22","female","no","no","0","5","574","<div style=""font-size:30px;"">Press space to start the trial</div>"," ","","","","","","",""
"","","","","","html-keyboard-response","64","2.0.0","117122","pe3qt92wz78","mus","wallaby","22","female","no","no","0","5","null","<div style=""font-size:60px;"">+</div>","null","","","","","","",""
"","","","","","audio-keyboard-response","65","2.0.0","117725","pe3qt92wz78","mus","wallaby","22","female","no","no","0","5","null","stimuli/sounds/phone_label_A.wav","null","","","","","","",""
"","","","","","html-keyboard-response","66","2.0.0","118727","pe3qt92wz78","mus","wallaby","22","female","no","no","0","5","null","","null","","","","","","",""
"","","","","","image-keyboard-response","67","2.0.0","119930","pe3qt92wz78","mus","wallaby","22","female","no","no","0","5","1201","stimuli/pictures/phone_rotary_1.jpg","0","1","","false","yes","sound","stimuli/sounds/phone_label_A.wav",""
"","","","","","audio-keyboard-response","68","2.0.0","120933","pe3qt92wz78","mus","wallaby","22","female","no","no","0","5","null","stimuli/sounds/buzz.wav","null","","","","","","",""
"","","","","","html-keyboard-response","69","2.0.0","122147","pe3qt92wz78","mus","wallaby","22","female","no","no","0","5","1112","<div style=""font-size:30px;"">Press space to start the trial</div>"," ","","","","","","",""
"","","","","","html-keyboard-response","70","2.0.0","122398","pe3qt92wz78","mus","wallaby","22","female","no","no","0","5","null","<div style=""font-size:60px;"">+</div>","null","","","","","","",""
"","","","","","audio-keyboard-response","71","2.0.0","123002","pe3qt92wz78","mus","wallaby","22","female","no","no","0","5","null","stimuli/sounds/flute_label_A.wav","null","","","","","","",""
"","","","","","html-keyboard-response","72","2.0.0","124005","pe3qt92wz78","mus","wallaby","22","female","no","no","0","5","null","","null","","","","","","",""
"","","","","","image-keyboard-response","73","2.0.0","125821","pe3qt92wz78","mus","wallaby","22","female","no","no","0","5","1815","stimuli/pictures/piano_electric_1.jpg","1","0","","false","no","sound","stimuli/sounds/flute_label_A.wav",""
"","","","","","audio-keyboard-response","74","2.0.0","126823","pe3qt92wz78","mus","wallaby","22","female","no","no","0","5","null","stimuli/sounds/buzz.wav","null","","","","","","",""
"","","","","","html-keyboard-response","75","2.0.0","127436","pe3qt92wz78","mus","wallaby","22","female","no","no","0","5","510","<div style=""font-size:30px;"">Press space to start the trial</div>"," ","","","","","","",""
"","","","","","html-keyboard-response","76","2.0.0","127687","pe3qt92wz78","mus","wallaby","22","female","no","no","0","5","null","<div style=""font-size:60px;"">+</div>","null","","","","","","",""
"","","","","","audio-keyboard-response","77","2.0.0","128290","pe3qt92wz78","mus","wallaby","22","female","no","no","0","5","null","stimuli/sounds/piano_label_B.wav","null","","","","","","",""
"","","","","","html-keyboard-response","78","2.0.0","129293","pe3qt92wz78","mus","wallaby","22","female","no","no","0","5","null","","null","","","","","","",""
"","","","","","image-keyboard-response","79","2.0.0","130451","pe3qt92wz78","mus","wallaby","22","female","no","no","0","5","1156","stimuli/pictures/piano_grand_1.jpg","1","1","","true","yes","sound","stimuli/sounds/piano_label_B.wav",""
"","","","","","audio-keyboard-response","80","2.0.0","131454","pe3qt92wz78","mus","wallaby","22","female","no","no","0","5","null","stimuli/sounds/bleep.wav","null","","","","","","",""
"","","","","","html-keyboard-response","81","2.0.0","132447","pe3qt92wz78","mus","wallaby","22","female","no","no","0","5","891","<div style=""font-size:30px;"">Press space to start the trial</div>"," ","","","","","","",""
"","","","","","html-keyboard-response","82","2.0.0","132699","pe3qt92wz78","mus","wallaby","22","female","no","no","0","5","null","<div style=""font-size:60px;"">+</div>","null","","","","","","",""
"","","","","","audio-keyboard-response","83","2.0.0","133300","pe3qt92wz78","mus","wallaby","22","female","no","no","0","5","null","stimuli/sounds/piano_sound_B.wav","null","","","","","","",""
"","","","","","html-keyboard-response","84","2.0.0","134302","pe3qt92wz78","mus","wallaby","22","female","no","no","0","5","null","","null","","","","","","",""
"","","","","","image-keyboard-response","85","2.0.0","135536","pe3qt92wz78","mus","wallaby","22","female","no","no","0","5","1232","stimuli/pictures/flute_metal_2.jpg","1","0","","false","no","sound","stimuli/sounds/piano_sound_B.wav",""
"","","","","","audio-keyboard-response","86","2.0.0","136539","pe3qt92wz78","mus","wallaby","22","female","no","no","0","5","null","stimuli/sounds/buzz.wav","null","","","","","","",""
"","","","","","html-keyboard-response","87","2.0.0","137122","pe3qt92wz78","mus","wallaby","22","female","no","no","0","5","481","<div style=""font-size:30px;"">Press space to start the trial</div>"," ","","","","","","",""
"","","","","","html-keyboard-response","88","2.0.0","137374","pe3qt92wz78","mus","wallaby","22","female","no","no","0","5","null","<div style=""font-size:60px;"">+</div>","null","","","","","","",""
"","","","","","audio-keyboard-response","89","2.0.0","137979","pe3qt92wz78","mus","wallaby","22","female","no","no","0","5","null","stimuli/sounds/phone_sound_B.wav","null","","","","","","",""
"","","","","","html-keyboard-response","90","2.0.0","138981","pe3qt92wz78","mus","wallaby","22","female","no","no","0","5","null","","null","","","","","","",""
"","","","","","image-keyboard-response","91","2.0.0","139708","pe3qt92wz78","mus","wallaby","22","female","no","no","0","5","725","stimuli/pictures/phone_rotary_1.jpg","1","1","","true","yes","sound","stimuli/sounds/phone_sound_B.wav",""
"","","","","","audio-keyboard-response","92","2.0.0","140710","pe3qt92wz78","mus","wallaby","22","female","no","no","0","5","null","stimuli/sounds/bleep.wav","null","","","","","","",""
"","","","","","html-keyboard-response","93","2.0.0","141246","pe3qt92wz78","mus","wallaby","22","female","no","no","0","5","435","<div style=""font-size:30px;"">Press space to start the trial</div>"," ","","","","","","",""
"","","","","","html-keyboard-response","94","2.0.0","141499","pe3qt92wz78","mus","wallaby","22","female","no","no","0","5","null","<div style=""font-size:60px;"">+</div>","null","","","","","","",""
"","","","","","audio-keyboard-response","95","2.0.0","142100","pe3qt92wz78","mus","wallaby","22","female","no","no","0","5","null","stimuli/sounds/phone_label_A.wav","null","","","","","","",""
"","","","","","html-keyboard-response","96","2.0.0","143103","pe3qt92wz78","mus","wallaby","22","female","no","no","0","5","null","","null","","","","","","",""
"","","","","","image-keyboard-response","97","2.0.0","143731","pe3qt92wz78","mus","wallaby","22","female","no","no","0","5","627","stimuli/pictures/drum_kit_1.jpg","0","0","","true","no","sound","stimuli/sounds/phone_label_A.wav",""
"","","","","","audio-keyboard-response","98","2.0.0","144734","pe3qt92wz78","mus","wallaby","22","female","no","no","0","5","null","stimuli/sounds/bleep.wav","null","","","","","","",""
"","","","","","html-keyboard-response","99","2.0.0","145344","pe3qt92wz78","mus","wallaby","22","female","no","no","0","5","507","<div style=""font-size:30px;"">Press space to start the trial</div>"," ","","","","","","",""
"","","","","","html-keyboard-response","100","2.0.0","145597","pe3qt92wz78","mus","wallaby","22","female","no","no","0","5","null","<div style=""font-size:60px;"">+</div>","null","","","","","","",""
"","","","","","audio-keyboard-response","101","2.0.0","146199","pe3qt92wz78","mus","wallaby","22","female","no","no","0","5","null","stimuli/sounds/piano_label_B.wav","null","","","","","","",""
"","","","","","html-keyboard-response","102","2.0.0","147201","pe3qt92wz78","mus","wallaby","22","female","no","no","0","5","null","","null","","","","","","",""
"","","","","","image-keyboard-response","103","2.0.0","147744","pe3qt92wz78","mus","wallaby","22","female","no","no","0","5","541","stimuli/pictures/piano_electric_2.jpg","1","1","","true","yes","sound","stimuli/sounds/piano_label_B.wav",""
"","","","","","audio-keyboard-response","104","2.0.0","148746","pe3qt92wz78","mus","wallaby","22","female","no","no","0","5","null","stimuli/sounds/bleep.wav","null","","","","","","",""
"","","","","","html-keyboard-response","105","2.0.0","149263","pe3qt92wz78","mus","wallaby","22","female","no","no","0","5","414","<div style=""font-size:30px;"">Press space to start the trial</div>"," ","","","","","","",""
"","","","","","html-keyboard-response","106","2.0.0","149515","pe3qt92wz78","mus","wallaby","22","female","no","no","0","5","null","<div style=""font-size:60px;"">+</div>","null","","","","","","",""
"","","","","","audio-keyboard-response","107","2.0.0","150117","pe3qt92wz78","mus","wallaby","22","female","no","no","0","5","null","stimuli/sounds/drum_sound_A.wav","null","","","","","","",""
"","","","","","html-keyboard-response","108","2.0.0","151118","pe3qt92wz78","mus","wallaby","22","female","no","no","0","5","null","","null","","","","","","",""
"","","","","","image-keyboard-response","109","2.0.0","152322","pe3qt92wz78","mus","wallaby","22","female","no","no","0","5","1203","stimuli/pictures/drum_bongo_2.jpg","0","1","","false","no","sound","stimuli/sounds/drum_sound_A.wav",""
"","","","","","audio-keyboard-response","110","2.0.0","153325","pe3qt92wz78","mus","wallaby","22","female","no","no","0","5","null","stimuli/sounds/buzz.wav","null","","","","","","",""
"","","","","","html-keyboard-response","111","2.0.0","153833","pe3qt92wz78","mus","wallaby","22","female","no","no","0","5","405","<div style=""font-size:30px;"">Press space to start the trial</div>"," ","","","","","","",""
"","","","","","html-keyboard-response","112","2.0.0","154085","pe3qt92wz78","mus","wallaby","22","female","no","no","0","5","null","<div style=""font-size:60px;"">+</div>","null","","","","","","",""
"","","","","","audio-keyboard-response","113","2.0.0","154686","pe3qt92wz78","mus","wallaby","22","female","no","no","0","5","null","stimuli/sounds/drum_sound_A.wav","null","","","","","","",""
"","","","","","html-keyboard-response","114","2.0.0","155688","pe3qt92wz78","mus","wallaby","22","female","no","no","0","5","null","","null","","","","","","",""
"","","","","","image-keyboard-response","115","2.0.0","156362","pe3qt92wz78","mus","wallaby","22","female","no","no","0","5","672","stimuli/pictures/flute_metal_2.jpg","0","0","","true","no","sound","stimuli/sounds/drum_sound_A.wav",""
"","","","","","audio-keyboard-response","116","2.0.0","157364","pe3qt92wz78","mus","wallaby","22","female","no","no","0","5","null","stimuli/sounds/bleep.wav","null","","","","","","",""
"","","","","","html-keyboard-response","117","2.0.0","157908","pe3qt92wz78","mus","wallaby","22","female","no","no","0","5","442","<div style=""font-size:30px;"">Press space to start the trial</div>"," ","","","","","","",""
"","","","","","html-keyboard-response","118","2.0.0","158160","pe3qt92wz78","mus","wallaby","22","female","no","no","0","5","null","<div style=""font-size:60px;"">+</div>","null","","","","","","",""
"","","","","","audio-keyboard-response","119","2.0.0","158761","pe3qt92wz78","mus","wallaby","22","female","no","no","0","5","null","stimuli/sounds/bird_sound_A.wav","null","","","","","","",""
"","","","","","html-keyboard-response","120","2.0.0","159763","pe3qt92wz78","mus","wallaby","22","female","no","no","0","5","null","","null","","","","","","",""
"","","","","","image-keyboard-response","121","2.0.0","160402","pe3qt92wz78","mus","wallaby","22","female","no","no","0","5","637","stimuli/pictures/bird_hawk_1.jpg","1","1","","true","yes","sound","stimuli/sounds/bird_sound_A.wav",""
"","","","","","audio-keyboard-response","122","2.0.0","161404","pe3qt92wz78","mus","wallaby","22","female","no","no","0","5","null","stimuli/sounds/bleep.wav","null","","","","","","",""
"","","","","","html-keyboard-response","123","2.0.0","162053","pe3qt92wz78","mus","wallaby","22","female","no","no","0","5","547","<div style=""font-size:30px;"">Press space to start the trial</div>"," ","","","","","","",""
"","","","","","html-keyboard-response","124","2.0.0","162306","pe3qt92wz78","mus","wallaby","22","female","no","no","0","5","null","<div style=""font-size:60px;"">+</div>","null","","","","","","",""
"","","","","","audio-keyboard-response","125","2.0.0","162911","pe3qt92wz78","mus","wallaby","22","female","no","no","0","5","null","stimuli/sounds/bird_label_B.wav","null","","","","","","",""
"","","","","","html-keyboard-response","126","2.0.0","163914","pe3qt92wz78","mus","wallaby","22","female","no","no","0","5","null","","null","","","","","","",""
"","","","","","image-keyboard-response","127","2.0.0","164481","pe3qt92wz78","mus","wallaby","22","female","no","no","0","5","565","stimuli/pictures/phone_rotary_1.jpg","0","0","","true","no","sound","stimuli/sounds/bird_label_B.wav",""
"","","","","","audio-keyboard-response","128","2.0.0","165484","pe3qt92wz78","mus","wallaby","22","female","no","no","0","5","null","stimuli/sounds/bleep.wav","null","","","","","","",""
"","","","","","html-keyboard-response","129","2.0.0","166296","pe3qt92wz78","mus","wallaby","22","female","no","no","0","5","710","<div style=""font-size:30px;"">Press space to start the trial</div>"," ","","","","","","",""
"","","","","","html-keyboard-response","130","2.0.0","166548","pe3qt92wz78","mus","wallaby","22","female","no","no","0","5","null","<div style=""font-size:60px;"">+</div>","null","","","","","","",""
"","","","","","audio-keyboard-response","131","2.0.0","167149","pe3qt92wz78","mus","wallaby","22","female","no","no","0","5","null","stimuli/sounds/phone_sound_B.wav","null","","","","","","",""
"","","","","","html-keyboard-response","132","2.0.0","168152","pe3qt92wz78","mus","wallaby","22","female","no","no","0","5","null","","null","","","","","","",""
"","","","","","image-keyboard-response","133","2.0.0","168854","pe3qt92wz78","mus","wallaby","22","female","no","no","0","5","700","stimuli/pictures/piano_electric_1.jpg","0","0","","true","no","sound","stimuli/sounds/phone_sound_B.wav",""
"","","","","","audio-keyboard-response","134","2.0.0","169857","pe3qt92wz78","mus","wallaby","22","female","no","no","0","5","null","stimuli/sounds/bleep.wav","null","","","","","","",""
"","","","","","html-keyboard-response","135","2.0.0","170645","pe3qt92wz78","mus","wallaby","22","female","no","no","0","5","686","<div style=""font-size:30px;"">Press space to start the trial</div>"," ","","","","","","",""
"","","","","","html-keyboard-response","136","2.0.0","170898","pe3qt92wz78","mus","wallaby","22","female","no","no","0","5","null","<div style=""font-size:60px;"">+</div>","null","","","","","","",""
"","","","","","audio-keyboard-response","137","2.0.0","171502","pe3qt92wz78","mus","wallaby","22","female","no","no","0","5","null","stimuli/sounds/bird_sound_A.wav","null","","","","","","",""
"","","","","","html-keyboard-response","138","2.0.0","172505","pe3qt92wz78","mus","wallaby","22","female","no","no","0","5","null","","null","","","","","","",""
"","","","","","image-keyboard-response","139","2.0.0","173027","pe3qt92wz78","mus","wallaby","22","female","no","no","0","5","521","stimuli/pictures/piano_grand_1.jpg","0","0","","true","no","sound","stimuli/sounds/bird_sound_A.wav",""
"","","","","","audio-keyboard-response","140","2.0.0","174030","pe3qt92wz78","mus","wallaby","22","female","no","no","0","5","null","stimuli/sounds/bleep.wav","null","","","","","","",""
"","","","","","html-keyboard-response","141","2.0.0","174559","pe3qt92wz78","mus","wallaby","22","female","no","no","0","5","427","<div style=""font-size:30px;"">Press space to start the trial</div>"," ","","","","","","",""
"","","","","","html-keyboard-response","142","2.0.0","174812","pe3qt92wz78","mus","wallaby","22","female","no","no","0","5","null","<div style=""font-size:60px;"">+</div>","null","","","","","","",""
"","","","","","audio-keyboard-response","143","2.0.0","175415","pe3qt92wz78","mus","wallaby","22","female","no","no","0","5","null","stimuli/sounds/drum_sound_B.wav","null","","","","","","",""
"","","","","","html-keyboard-response","144","2.0.0","176418","pe3qt92wz78","mus","wallaby","22","female","no","no","0","5","null","","null","","","","","","",""
"","","","","","image-keyboard-response","145","2.0.0","177299","pe3qt92wz78","mus","wallaby","22","female","no","no","0","5","879","stimuli/pictures/phone_cell_2.jpg","0","0","","true","no","sound","stimuli/sounds/drum_sound_B.wav",""
"","","","","","audio-keyboard-response","146","2.0.0","178301","pe3qt92wz78","mus","wallaby","22","female","no","no","0","5","null","stimuli/sounds/bleep.wav","null","","","","","","",""
"","","","","","html-keyboard-response","147","2.0.0","181715","pe3qt92wz78","mus","wallaby","22","female","no","no","0","5","3311","<p>You have completed a block. Press R when you are ready to continue</p>","r","","","","","","",""
"","","","","","html-keyboard-response","148","2.0.0","188034","pe3qt92wz78","mus","wallaby","22","female","no","no","0","5","6319","<div style=""font-size:30px;"">Press space to start the trial</div>"," ","","","","","","",""
"","","","","","html-keyboard-response","149","2.0.0","188286","pe3qt92wz78","mus","wallaby","22","female","no","no","0","5","null","<div style=""font-size:60px;"">+</div>","null","","","","","","",""
"","","","","","audio-keyboard-response","150","2.0.0","188888","pe3qt92wz78","mus","wallaby","22","female","no","no","0","5","null","stimuli/sounds/flute_sound_A.wav","null","","","","","","",""
"","","","","","html-keyboard-response","151","2.0.0","189891","pe3qt92wz78","mus","wallaby","22","female","no","no","0","5","null","","null","","","","","","",""
"","","","","","image-keyboard-response","152","2.0.0","191282","pe3qt92wz78","mus","wallaby","22","female","no","no","0","5","1389","stimuli/pictures/flute_wooden_1.jpg","1","1","","true","no","sound","stimuli/sounds/flute_sound_A.wav",""
"","","","","","audio-keyboard-response","153","2.0.0","192284","pe3qt92wz78","mus","wallaby","22","female","no","no","0","5","null","stimuli/sounds/bleep.wav","null","","","","","","",""
"","","","","","html-keyboard-response","154","2.0.0","193022","pe3qt92wz78","mus","wallaby","22","female","no","no","0","5","636","<div style=""font-size:30px;"">Press space to start the trial</div>"," ","","","","","","",""
"","","","","","html-keyboard-response","155","2.0.0","193275","pe3qt92wz78","mus","wallaby","22","female","no","no","0","5","null","<div style=""font-size:60px;"">+</div>","null","","","","","","",""
"","","","","","audio-keyboard-response","156","2.0.0","193875","pe3qt92wz78","mus","wallaby","22","female","no","no","0","5","null","stimuli/sounds/flute_label_A.wav","null","","","","","","",""
"","","","","","html-keyboard-response","157","2.0.0","194877","pe3qt92wz78","mus","wallaby","22","female","no","no","0","5","null","","null","","","","","","",""
"","","","","","image-keyboard-response","158","2.0.0","195526","pe3qt92wz78","mus","wallaby","22","female","no","no","0","5","647","stimuli/pictures/flute_wooden_2.jpg","1","1","","true","yes","sound","stimuli/sounds/flute_label_A.wav",""
"","","","","","audio-keyboard-response","159","2.0.0","196529","pe3qt92wz78","mus","wallaby","22","female","no","no","0","5","null","stimuli/sounds/bleep.wav","null","","","","","","",""
"","","","","","html-keyboard-response","160","2.0.0","197168","pe3qt92wz78","mus","wallaby","22","female","no","no","0","5","537","<div style=""font-size:30px;"">Press space to start the trial</div>"," ","","","","","","",""
"","","","","","html-keyboard-response","161","2.0.0","197420","pe3qt92wz78","mus","wallaby","22","female","no","no","0","5","null","<div style=""font-size:60px;"">+</div>","null","","","","","","",""
"","","","","","audio-keyboard-response","162","2.0.0","198025","pe3qt92wz78","mus","wallaby","22","female","no","no","0","5","null","stimuli/sounds/phone_sound_A.wav","null","","","","","","",""
"","","","","","html-keyboard-response","163","2.0.0","199028","pe3qt92wz78","mus","wallaby","22","female","no","no","0","5","null","","null","","","","","","",""
"","","","","","image-keyboard-response","164","2.0.0","199862","pe3qt92wz78","mus","wallaby","22","female","no","no","0","5","832","stimuli/pictures/bird_song_1.jpg","0","0","","true","no","sound","stimuli/sounds/phone_sound_A.wav",""
"","","","","","audio-keyboard-response","165","2.0.0","200864","pe3qt92wz78","mus","wallaby","22","female","no","no","0","5","null","stimuli/sounds/bleep.wav","null","","","","","","",""
"","","","","","html-keyboard-response","166","2.0.0","201309","pe3qt92wz78","mus","wallaby","22","female","no","no","0","5","342","<div style=""font-size:30px;"">Press space to start the trial</div>"," ","","","","","","",""
"","","","","","html-keyboard-response","167","2.0.0","201562","pe3qt92wz78","mus","wallaby","22","female","no","no","0","5","null","<div style=""font-size:60px;"">+</div>","null","","","","","","",""
"","","","","","audio-keyboard-response","168","2.0.0","202164","pe3qt92wz78","mus","wallaby","22","female","no","no","0","5","null","stimuli/sounds/flute_label_A.wav","null","","","","","","",""
"","","","","","html-keyboard-response","169","2.0.0","203166","pe3qt92wz78","mus","wallaby","22","female","no","no","0","5","null","","null","","","","","","",""
"","","","","","image-keyboard-response","170","2.0.0","204129","pe3qt92wz78","mus","wallaby","22","female","no","no","0","5","961","stimuli/pictures/piano_electric_2.jpg","0","0","","true","no","sound","stimuli/sounds/flute_label_A.wav",""
"","","","","","audio-keyboard-response","171","2.0.0","205131","pe3qt92wz78","mus","wallaby","22","female","no","no","0","5","null","stimuli/sounds/bleep.wav","null","","","","","","",""
"","","","","","html-keyboard-response","172","2.0.0","205655","pe3qt92wz78","mus","wallaby","22","female","no","no","0","5","421","<div style=""font-size:30px;"">Press space to start the trial</div>"," ","","","","","","",""
"","","","","","html-keyboard-response","173","2.0.0","205906","pe3qt92wz78","mus","wallaby","22","female","no","no","0","5","null","<div style=""font-size:60px;"">+</div>","null","","","","","","",""
"","","","","","audio-keyboard-response","174","2.0.0","206506","pe3qt92wz78","mus","wallaby","22","female","no","no","0","5","null","stimuli/sounds/drum_label_A.wav","null","","","","","","",""
"","","","","","html-keyboard-response","175","2.0.0","207509","pe3qt92wz78","mus","wallaby","22","female","no","no","0","5","null","","null","","","","","","",""
"","","","","","image-keyboard-response","176","2.0.0","208144","pe3qt92wz78","mus","wallaby","22","female","no","no","0","5","633","stimuli/pictures/bird_song_1.jpg","0","0","","true","no","sound","stimuli/sounds/drum_label_A.wav",""
"","","","","","audio-keyboard-response","177","2.0.0","209147","pe3qt92wz78","mus","wallaby","22","female","no","no","0","5","null","stimuli/sounds/bleep.wav","null","","","","","","",""
"","","","","","html-keyboard-response","178","2.0.0","209693","pe3qt92wz78","mus","wallaby","22","female","no","no","0","5","444","<div style=""font-size:30px;"">Press space to start the trial</div>"," ","","","","","","",""
"","","","","","html-keyboard-response","179","2.0.0","209946","pe3qt92wz78","mus","wallaby","22","female","no","no","0","5","null","<div style=""font-size:60px;"">+</div>","null","","","","","","",""
"","","","","","audio-keyboard-response","180","2.0.0","210546","pe3qt92wz78","mus","wallaby","22","female","no","no","0","5","null","stimuli/sounds/phone_sound_B.wav","null","","","","","","",""
"","","","","","html-keyboard-response","181","2.0.0","211549","pe3qt92wz78","mus","wallaby","22","female","no","no","0","5","null","","null","","","","","","",""
"","","","","","image-keyboard-response","182","2.0.0","212168","pe3qt92wz78","mus","wallaby","22","female","no","no","0","5","617","stimuli/pictures/piano_grand_1.jpg","0","0","","true","no","sound","stimuli/sounds/phone_sound_B.wav",""
"","","","","","audio-keyboard-response","183","2.0.0","213170","pe3qt92wz78","mus","wallaby","22","female","no","no","0","5","null","stimuli/sounds/bleep.wav","null","","","","","","",""
"","","","","","html-keyboard-response","184","2.0.0","213637","pe3qt92wz78","mus","wallaby","22","female","no","no","0","5","364","<div style=""font-size:30px;"">Press space to start the trial</div>"," ","","","","","","",""
"","","","","","html-keyboard-response","185","2.0.0","213888","pe3qt92wz78","mus","wallaby","22","female","no","no","0","5","null","<div style=""font-size:60px;"">+</div>","null","","","","","","",""
"","","","","","audio-keyboard-response","186","2.0.0","214488","pe3qt92wz78","mus","wallaby","22","female","no","no","0","5","null","stimuli/sounds/phone_sound_A.wav","null","","","","","","",""
"","","","","","html-keyboard-response","187","2.0.0","215490","pe3qt92wz78","mus","wallaby","22","female","no","no","0","5","null","","null","","","","","","",""
"","","","","","image-keyboard-response","188","2.0.0","215959","pe3qt92wz78","mus","wallaby","22","female","no","no","0","5","467","stimuli/pictures/bird_hawk_1.jpg","0","0","","true","no","sound","stimuli/sounds/phone_sound_A.wav",""
"","","","","","audio-keyboard-response","189","2.0.0","216962","pe3qt92wz78","mus","wallaby","22","female","no","no","0","5","null","stimuli/sounds/bleep.wav","null","","","","","","",""
"","","","","","html-keyboard-response","190","2.0.0","217449","pe3qt92wz78","mus","wallaby","22","female","no","no","0","5","385","<div style=""font-size:30px;"">Press space to start the trial</div>"," ","","","","","","",""
"","","","","","html-keyboard-response","191","2.0.0","217701","pe3qt92wz78","mus","wallaby","22","female","no","no","0","5","null","<div style=""font-size:60px;"">+</div>","null","","","","","","",""
"","","","","","audio-keyboard-response","192","2.0.0","218307","pe3qt92wz78","mus","wallaby","22","female","no","no","0","5","null","stimuli/sounds/flute_label_B.wav","null","","","","","","",""
"","","","","","html-keyboard-response","193","2.0.0","219310","pe3qt92wz78","mus","wallaby","22","female","no","no","0","5","null","","null","","","","","","",""
"","","","","","image-keyboard-response","194","2.0.0","219960","pe3qt92wz78","mus","wallaby","22","female","no","no","0","5","648","stimuli/pictures/flute_metal_2.jpg","1","1","","true","yes","sound","stimuli/sounds/flute_label_B.wav",""
"","","","","","audio-keyboard-response","195","2.0.0","220963","pe3qt92wz78","mus","wallaby","22","female","no","no","0","5","null","stimuli/sounds/bleep.wav","null","","","","","","",""
"","","","","","html-keyboard-response","196","2.0.0","221370","pe3qt92wz78","mus","wallaby","22","female","no","no","0","5","304","<div style=""font-size:30px;"">Press space to start the trial</div>"," ","","","","","","",""
"","","","","","html-keyboard-response","197","2.0.0","221622","pe3qt92wz78","mus","wallaby","22","female","no","no","0","5","null","<div style=""font-size:60px;"">+</div>","null","","","","","","",""
"","","","","","audio-keyboard-response","198","2.0.0","222226","pe3qt92wz78","mus","wallaby","22","female","no","no","0","5","null","stimuli/sounds/bird_label_B.wav","null","","","","","","",""
"","","","","","html-keyboard-response","199","2.0.0","223228","pe3qt92wz78","mus","wallaby","22","female","no","no","0","5","null","","null","","","","","","",""
"","","","","","image-keyboard-response","200","2.0.0","223757","pe3qt92wz78","mus","wallaby","22","female","no","no","0","5","527","stimuli/pictures/bird_hawk_1.jpg","1","1","","true","yes","sound","stimuli/sounds/bird_label_B.wav",""
"","","","","","audio-keyboard-response","201","2.0.0","224760","pe3qt92wz78","mus","wallaby","22","female","no","no","0","5","null","stimuli/sounds/bleep.wav","null","","","","","","",""
"","","","","","html-keyboard-response","202","2.0.0","225274","pe3qt92wz78","mus","wallaby","22","female","no","no","0","5","412","<div style=""font-size:30px;"">Press space to start the trial</div>"," ","","","","","","",""
"","","","","","html-keyboard-response","203","2.0.0","225527","pe3qt92wz78","mus","wallaby","22","female","no","no","0","5","null","<div style=""font-size:60px;"">+</div>","null","","","","","","",""
"","","","","","audio-keyboard-response","204","2.0.0","226127","pe3qt92wz78","mus","wallaby","22","female","no","no","0","5","null","stimuli/sounds/bird_label_B.wav","null","","","","","","",""
"","","","","","html-keyboard-response","205","2.0.0","227130","pe3qt92wz78","mus","wallaby","22","female","no","no","0","5","null","","null","","","","","","",""
"","","","","","image-keyboard-response","206","2.0.0","227576","pe3qt92wz78","mus","wallaby","22","female","no","no","0","5","445","stimuli/pictures/bird_hawk_1.jpg","1","1","","true","yes","sound","stimuli/sounds/bird_label_B.wav",""
"","","","","","audio-keyboard-response","207","2.0.0","228580","pe3qt92wz78","mus","wallaby","22","female","no","no","0","5","null","stimuli/sounds/bleep.wav","null","","","","","","",""
"","","","","","html-keyboard-response","208","2.0.0","229715","pe3qt92wz78","mus","wallaby","22","female","no","no","0","5","1034","<div style=""font-size:30px;"">Press space to start the trial</div>"," ","","","","","","",""
"","","","","","html-keyboard-response","209","2.0.0","229967","pe3qt92wz78","mus","wallaby","22","female","no","no","0","5","null","<div style=""font-size:60px;"">+</div>","null","","","","","","",""
"","","","","","audio-keyboard-response","210","2.0.0","230568","pe3qt92wz78","mus","wallaby","22","female","no","no","0","5","null","stimuli/sounds/drum_label_A.wav","null","","","","","","",""
"","","","","","html-keyboard-response","211","2.0.0","231570","pe3qt92wz78","mus","wallaby","22","female","no","no","0","5","null","","null","","","","","","",""
"","","","","","image-keyboard-response","212","2.0.0","232372","pe3qt92wz78","mus","wallaby","22","female","no","no","0","5","799","stimuli/pictures/drum_bongo_1.jpg","1","1","","true","yes","sound","stimuli/sounds/drum_label_A.wav",""
"","","","","","audio-keyboard-response","213","2.0.0","233374","pe3qt92wz78","mus","wallaby","22","female","no","no","0","5","null","stimuli/sounds/bleep.wav","null","","","","","","",""
"","","","","","html-keyboard-response","214","2.0.0","233911","pe3qt92wz78","mus","wallaby","22","female","no","no","0","5","435","<div style=""font-size:30px;"">Press space to start the trial</div>"," ","","","","","","",""
"","","","","","html-keyboard-response","215","2.0.0","234163","pe3qt92wz78","mus","wallaby","22","female","no","no","0","5","null","<div style=""font-size:60px;"">+</div>","null","","","","","","",""
"","","","","","audio-keyboard-response","216","2.0.0","234770","pe3qt92wz78","mus","wallaby","22","female","no","no","0","5","null","stimuli/sounds/flute_label_B.wav","null","","","","","","",""
"","","","","","html-keyboard-response","217","2.0.0","235773","pe3qt92wz78","mus","wallaby","22","female","no","no","0","5","null","","null","","","","","","",""
"","","","","","image-keyboard-response","218","2.0.0","236951","pe3qt92wz78","mus","wallaby","22","female","no","no","0","5","1176","stimuli/pictures/drum_bongo_1.jpg","0","0","","true","no","sound","stimuli/sounds/flute_label_B.wav",""
"","","","","","audio-keyboard-response","219","2.0.0","237954","pe3qt92wz78","mus","wallaby","22","female","no","no","0","5","null","stimuli/sounds/bleep.wav","null","","","","","","",""
"","","","","","html-keyboard-response","220","2.0.0","238405","pe3qt92wz78","mus","wallaby","22","female","no","no","0","5","348","<div style=""font-size:30px;"">Press space to start the trial</div>"," ","","","","","","",""
"","","","","","html-keyboard-response","221","2.0.0","238657","pe3qt92wz78","mus","wallaby","22","female","no","no","0","5","null","<div style=""font-size:60px;"">+</div>","null","","","","","","",""
"","","","","","audio-keyboard-response","222","2.0.0","239258","pe3qt92wz78","mus","wallaby","22","female","no","no","0","5","null","stimuli/sounds/bird_label_A.wav","null","","","","","","",""
"","","","","","html-keyboard-response","223","2.0.0","240260","pe3qt92wz78","mus","wallaby","22","female","no","no","0","5","null","","null","","","","","","",""
"","","","","","image-keyboard-response","224","2.0.0","240643","pe3qt92wz78","mus","wallaby","22","female","no","no","0","5","382","stimuli/pictures/bird_hawk_1.jpg","1","1","","true","yes","sound","stimuli/sounds/bird_label_A.wav",""
"","","","","","audio-keyboard-response","225","2.0.0","241646","pe3qt92wz78","mus","wallaby","22","female","no","no","0","5","null","stimuli/sounds/bleep.wav","null","","","","","","",""
"","","","","","html-keyboard-response","226","2.0.0","242214","pe3qt92wz78","mus","wallaby","22","female","no","no","0","5","466","<div style=""font-size:30px;"">Press space to start the trial</div>"," ","","","","","","",""
"","","","","","html-keyboard-response","227","2.0.0","242466","pe3qt92wz78","mus","wallaby","22","female","no","no","0","5","null","<div style=""font-size:60px;"">+</div>","null","","","","","","",""
"","","","","","audio-keyboard-response","228","2.0.0","243066","pe3qt92wz78","mus","wallaby","22","female","no","no","0","5","null","stimuli/sounds/flute_sound_A.wav","null","","","","","","",""
"","","","","","html-keyboard-response","229","2.0.0","244068","pe3qt92wz78","mus","wallaby","22","female","no","no","0","5","null","","null","","","","","","",""
"","","","","","image-keyboard-response","230","2.0.0","244616","pe3qt92wz78","mus","wallaby","22","female","no","no","0","5","547","stimuli/pictures/flute_metal_2.jpg","1","1","","true","yes","sound","stimuli/sounds/flute_sound_A.wav",""
"","","","","","audio-keyboard-response","231","2.0.0","245619","pe3qt92wz78","mus","wallaby","22","female","no","no","0","5","null","stimuli/sounds/bleep.wav","null","","","","","","",""
"","","","","","html-keyboard-response","232","2.0.0","246201","pe3qt92wz78","mus","wallaby","22","female","no","no","0","5","480","<div style=""font-size:30px;"">Press space to start the trial</div>"," ","","","","","","",""
"","","","","","html-keyboard-response","233","2.0.0","246454","pe3qt92wz78","mus","wallaby","22","female","no","no","0","5","null","<div style=""font-size:60px;"">+</div>","null","","","","","","",""
"","","","","","audio-keyboard-response","234","2.0.0","247054","pe3qt92wz78","mus","wallaby","22","female","no","no","0","5","null","stimuli/sounds/bird_label_B.wav","null","","","","","","",""
"","","","","","html-keyboard-response","235","2.0.0","248056","pe3qt92wz78","mus","wallaby","22","female","no","no","0","5","null","","null","","","","","","",""
"","","","","","image-keyboard-response","236","2.0.0","248622","pe3qt92wz78","mus","wallaby","22","female","no","no","0","5","565","stimuli/pictures/phone_cell_2.jpg","0","0","","true","no","sound","stimuli/sounds/bird_label_B.wav",""
"","","","","","audio-keyboard-response","237","2.0.0","249625","pe3qt92wz78","mus","wallaby","22","female","no","no","0","5","null","stimuli/sounds/bleep.wav","null","","","","","","",""
"","","","","","html-keyboard-response","238","2.0.0","250064","pe3qt92wz78","mus","wallaby","22","female","no","no","0","5","337","<div style=""font-size:30px;"">Press space to start the trial</div>"," ","","","","","","",""
"","","","","","html-keyboard-response","239","2.0.0","250317","pe3qt92wz78","mus","wallaby","22","female","no","no","0","5","null","<div style=""font-size:60px;"">+</div>","null","","","","","","",""
"","","","","","audio-keyboard-response","240","2.0.0","250920","pe3qt92wz78","mus","wallaby","22","female","no","no","0","5","null","stimuli/sounds/drum_sound_A.wav","null","","","","","","",""
"","","","","","html-keyboard-response","241","2.0.0","251922","pe3qt92wz78","mus","wallaby","22","female","no","no","0","5","null","","null","","","","","","",""
"","","","","","image-keyboard-response","242","2.0.0","252813","pe3qt92wz78","mus","wallaby","22","female","no","no","0","5","889","stimuli/pictures/flute_metal_1.jpg","0","0","","true","no","sound","stimuli/sounds/drum_sound_A.wav",""
"","","","","","audio-keyboard-response","243","2.0.0","253816","pe3qt92wz78","mus","wallaby","22","female","no","no","0","5","null","stimuli/sounds/bleep.wav","null","","","","","","",""
"","","","","","html-keyboard-response","244","2.0.0","254514","pe3qt92wz78","mus","wallaby","22","female","no","no","0","5","596","<div style=""font-size:30px;"">Press space to start the trial</div>"," ","","","","","","",""
"","","","","","html-keyboard-response","245","2.0.0","254767","pe3qt92wz78","mus","wallaby","22","female","no","no","0","5","null","<div style=""font-size:60px;"">+</div>","null","","","","","","",""
"","","","","","audio-keyboard-response","246","2.0.0","255372","pe3qt92wz78","mus","wallaby","22","female","no","no","0","5","null","stimuli/sounds/piano_sound_A.wav","null","","","","","","",""
"","","","","","html-keyboard-response","247","2.0.0","256375","pe3qt92wz78","mus","wallaby","22","female","no","no","0","5","null","","null","","","","","","",""
"","","","","","image-keyboard-response","248","2.0.0","256987","pe3qt92wz78","mus","wallaby","22","female","no","no","0","5","610","stimuli/pictures/piano_electric_1.jpg","0","1","","false","no","sound","stimuli/sounds/piano_sound_A.wav",""
"","","","","","audio-keyboard-response","249","2.0.0","257990","pe3qt92wz78","mus","wallaby","22","female","no","no","0","5","null","stimuli/sounds/buzz.wav","null","","","","","","",""
"","","","","","html-keyboard-response","250","2.0.0","258437","pe3qt92wz78","mus","wallaby","22","female","no","no","0","5","345","<div style=""font-size:30px;"">Press space to start the trial</div>"," ","","","","","","",""
"","","","","","html-keyboard-response","251","2.0.0","258689","pe3qt92wz78","mus","wallaby","22","female","no","no","0","5","null","<div style=""font-size:60px;"">+</div>","null","","","","","","",""
"","","","","","audio-keyboard-response","252","2.0.0","259296","pe3qt92wz78","mus","wallaby","22","female","no","no","0","5","null","stimuli/sounds/piano_sound_A.wav","null","","","","","","",""
"","","","","","html-keyboard-response","253","2.0.0","260299","pe3qt92wz78","mus","wallaby","22","female","no","no","0","5","null","","null","","","","","","",""
"","","","","","image-keyboard-response","254","2.0.0","260941","pe3qt92wz78","mus","wallaby","22","female","no","no","0","5","641","stimuli/pictures/drum_bongo_1.jpg","0","0","","true","no","sound","stimuli/sounds/piano_sound_A.wav",""
"","","","","","audio-keyboard-response","255","2.0.0","261945","pe3qt92wz78","mus","wallaby","22","female","no","no","0","5","null","stimuli/sounds/bleep.wav","null","","","","","","",""
"","","","","","html-keyboard-response","256","2.0.0","262491","pe3qt92wz78","mus","wallaby","22","female","no","no","0","5","443","<div style=""font-size:30px;"">Press space to start the trial</div>"," ","","","","","","",""
"","","","","","html-keyboard-response","257","2.0.0","262743","pe3qt92wz78","mus","wallaby","22","female","no","no","0","5","null","<div style=""font-size:60px;"">+</div>","null","","","","","","",""
"","","","","","audio-keyboard-response","258","2.0.0","263348","pe3qt92wz78","mus","wallaby","22","female","no","no","0","5","null","stimuli/sounds/drum_sound_B.wav","null","","","","","","",""
"","","","","","html-keyboard-response","259","2.0.0","264351","pe3qt92wz78","mus","wallaby","22","female","no","no","0","5","null","","null","","","","","","",""
"","","","","","image-keyboard-response","260","2.0.0","265581","pe3qt92wz78","mus","wallaby","22","female","no","no","0","5","1229","stimuli/pictures/phone_cell_1.jpg","0","0","","true","no","sound","stimuli/sounds/drum_sound_B.wav",""
"","","","","","audio-keyboard-response","261","2.0.0","266584","pe3qt92wz78","mus","wallaby","22","female","no","no","0","5","null","stimuli/sounds/bleep.wav","null","","","","","","",""
"","","","","","html-keyboard-response","262","2.0.0","267144","pe3qt92wz78","mus","wallaby","22","female","no","no","0","5","457","<div style=""font-size:30px;"">Press space to start the trial</div>"," ","","","","","","",""
"","","","","","html-keyboard-response","263","2.0.0","267396","pe3qt92wz78","mus","wallaby","22","female","no","no","0","5","null","<div style=""font-size:60px;"">+</div>","null","","","","","","",""
"","","","","","audio-keyboard-response","264","2.0.0","267998","pe3qt92wz78","mus","wallaby","22","female","no","no","0","5","null","stimuli/sounds/piano_label_B.wav","null","","","","","","",""
"","","","","","html-keyboard-response","265","2.0.0","269000","pe3qt92wz78","mus","wallaby","22","female","no","no","0","5","null","","null","","","","","","",""
"","","","","","image-keyboard-response","266","2.0.0","269441","pe3qt92wz78","mus","wallaby","22","female","no","no","0","5","439","stimuli/pictures/bird_song_1.jpg","0","0","","true","no","sound","stimuli/sounds/piano_label_B.wav",""
"","","","","","audio-keyboard-response","267","2.0.0","270444","pe3qt92wz78","mus","wallaby","22","female","no","no","0","5","null","stimuli/sounds/bleep.wav","null","","","","","","",""
"","","","","","html-keyboard-response","268","2.0.0","272741","pe3qt92wz78","mus","wallaby","22","female","no","no","0","5","2195","<p>You have completed a block. Press R when you are ready to continue</p>","r","","","","","","",""
"","","","","","html-keyboard-response","269","2.0.0","273394","pe3qt92wz78","mus","wallaby","22","female","no","no","0","5","652","<div style=""font-size:30px;"">Press space to start the trial</div>"," ","","","","","","",""
"","","","","","html-keyboard-response","270","2.0.0","273647","pe3qt92wz78","mus","wallaby","22","female","no","no","0","5","null","<div style=""font-size:60px;"">+</div>","null","","","","","","",""
"","","","","","audio-keyboard-response","271","2.0.0","274250","pe3qt92wz78","mus","wallaby","22","female","no","no","0","5","null","stimuli/sounds/piano_label_B.wav","null","","","","","","",""
"","","","","","html-keyboard-response","272","2.0.0","275252","pe3qt92wz78","mus","wallaby","22","female","no","no","0","5","null","","null","","","","","","",""
"","","","","","image-keyboard-response","273","2.0.0","275760","pe3qt92wz78","mus","wallaby","22","female","no","no","0","5","507","stimuli/pictures/piano_grand_2.jpg","1","1","","true","yes","sound","stimuli/sounds/piano_label_B.wav",""
"","","","","","audio-keyboard-response","274","2.0.0","276763","pe3qt92wz78","mus","wallaby","22","female","no","no","0","5","null","stimuli/sounds/bleep.wav","null","","","","","","",""
"","","","","","html-keyboard-response","275","2.0.0","277163","pe3qt92wz78","mus","wallaby","22","female","no","no","0","5","297","<div style=""font-size:30px;"">Press space to start the trial</div>"," ","","","","","","",""
"","","","","","html-keyboard-response","276","2.0.0","277416","pe3qt92wz78","mus","wallaby","22","female","no","no","0","5","null","<div style=""font-size:60px;"">+</div>","null","","","","","","",""
"","","","","","audio-keyboard-response","277","2.0.0","278017","pe3qt92wz78","mus","wallaby","22","female","no","no","0","5","null","stimuli/sounds/piano_label_B.wav","null","","","","","","",""
"","","","","","html-keyboard-response","278","2.0.0","279019","pe3qt92wz78","mus","wallaby","22","female","no","no","0","5","null","","null","","","","","","",""
"","","","","","image-keyboard-response","279","2.0.0","279436","pe3qt92wz78","mus","wallaby","22","female","no","no","0","5","414","stimuli/pictures/piano_electric_1.jpg","1","1","","true","yes","sound","stimuli/sounds/piano_label_B.wav",""
"","","","","","audio-keyboard-response","280","2.0.0","280438","pe3qt92wz78","mus","wallaby","22","female","no","no","0","5","null","stimuli/sounds/bleep.wav","null","","","","","","",""
"","","","","","html-keyboard-response","281","2.0.0","280861","pe3qt92wz78","mus","wallaby","22","female","no","no","0","5","321","<div style=""font-size:30px;"">Press space to start the trial</div>"," ","","","","","","",""
"","","","","","html-keyboard-response","282","2.0.0","281114","pe3qt92wz78","mus","wallaby","22","female","no","no","0","5","null","<div style=""font-size:60px;"">+</div>","null","","","","","","",""
"","","","","","audio-keyboard-response","283","2.0.0","281715","pe3qt92wz78","mus","wallaby","22","female","no","no","0","5","null","stimuli/sounds/phone_label_A.wav","null","","","","","","",""
"","","","","","html-keyboard-response","284","2.0.0","282717","pe3qt92wz78","mus","wallaby","22","female","no","no","0","5","null","","null","","","","","","",""
"","","","","","image-keyboard-response","285","2.0.0","283309","pe3qt92wz78","mus","wallaby","22","female","no","no","0","5","590","stimuli/pictures/drum_bongo_1.jpg","0","0","","true","no","sound","stimuli/sounds/phone_label_A.wav",""
"","","","","","audio-keyboard-response","286","2.0.0","284312","pe3qt92wz78","mus","wallaby","22","female","no","no","0","5","null","stimuli/sounds/bleep.wav","null","","","","","","",""
"","","","","","html-keyboard-response","287","2.0.0","286729","pe3qt92wz78","mus","wallaby","22","female","no","no","0","5","2315","<div style=""font-size:30px;"">Press space to start the trial</div>"," ","","","","","","",""
"","","","","","html-keyboard-response","288","2.0.0","286981","pe3qt92wz78","mus","wallaby","22","female","no","no","0","5","null","<div style=""font-size:60px;"">+</div>","null","","","","","","",""
"","","","","","audio-keyboard-response","289","2.0.0","287584","pe3qt92wz78","mus","wallaby","22","female","no","no","0","5","null","stimuli/sounds/piano_sound_B.wav","null","","","","","","",""
"","","","","","html-keyboard-response","290","2.0.0","288586","pe3qt92wz78","mus","wallaby","22","female","no","no","0","5","null","","null","","","","","","",""
"","","","","","image-keyboard-response","291","2.0.0","289406","pe3qt92wz78","mus","wallaby","22","female","no","no","0","5","819","stimuli/pictures/piano_grand_2.jpg","0","1","","false","no","sound","stimuli/sounds/piano_sound_B.wav",""
"","","","","","audio-keyboard-response","292","2.0.0","290409","pe3qt92wz78","mus","wallaby","22","female","no","no","0","5","null","stimuli/sounds/buzz.wav","null","","","","","","",""
"","","","","","html-keyboard-response","293","2.0.0","291793","pe3qt92wz78","mus","wallaby","22","female","no","no","0","5","1282","<div style=""font-size:30px;"">Press space to start the trial</div>"," ","","","","","","",""
"","","","","","html-keyboard-response","294","2.0.0","292045","pe3qt92wz78","mus","wallaby","22","female","no","no","0","5","null","<div style=""font-size:60px;"">+</div>","null","","","","","","",""
"","","","","","audio-keyboard-response","295","2.0.0","292646","pe3qt92wz78","mus","wallaby","22","female","no","no","0","5","null","stimuli/sounds/drum_sound_A.wav","null","","","","","","",""
"","","","","","html-keyboard-response","296","2.0.0","293648","pe3qt92wz78","mus","wallaby","22","female","no","no","0","5","null","","null","","","","","","",""
"","","","","","image-keyboard-response","297","2.0.0","294347","pe3qt92wz78","mus","wallaby","22","female","no","no","0","5","697","stimuli/pictures/flute_wooden_1.jpg","0","0","","true","no","sound","stimuli/sounds/drum_sound_A.wav",""
"","","","","","audio-keyboard-response","298","2.0.0","295350","pe3qt92wz78","mus","wallaby","22","female","no","no","0","5","null","stimuli/sounds/bleep.wav","null","","","","","","",""
"","","","","","html-keyboard-response","299","2.0.0","295797","pe3qt92wz78","mus","wallaby","22","female","no","no","0","5","346","<div style=""font-size:30px;"">Press space to start the trial</div>"," ","","","","","","",""
"","","","","","html-keyboard-response","300","2.0.0","296050","pe3qt92wz78","mus","wallaby","22","female","no","no","0","5","null","<div style=""font-size:60px;"">+</div>","null","","","","","","",""
"","","","","","audio-keyboard-response","301","2.0.0","296651","pe3qt92wz78","mus","wallaby","22","female","no","no","0","5","null","stimuli/sounds/phone_label_A.wav","null","","","","","","",""
"","","","","","html-keyboard-response","302","2.0.0","297653","pe3qt92wz78","mus","wallaby","22","female","no","no","0","5","null","","null","","","","","","",""
"","","","","","image-keyboard-response","303","2.0.0","298741","pe3qt92wz78","mus","wallaby","22","female","no","no","0","5","1085","stimuli/pictures/phone_rotary_2.jpg","1","1","","true","yes","sound","stimuli/sounds/phone_label_A.wav",""
"","","","","","audio-keyboard-response","304","2.0.0","299744","pe3qt92wz78","mus","wallaby","22","female","no","no","0","5","null","stimuli/sounds/bleep.wav","null","","","","","","",""
"","","","","","html-keyboard-response","305","2.0.0","300167","pe3qt92wz78","mus","wallaby","22","female","no","no","0","5","321","<div style=""font-size:30px;"">Press space to start the trial</div>"," ","","","","","","",""
"","","","","","html-keyboard-response","306","2.0.0","300419","pe3qt92wz78","mus","wallaby","22","female","no","no","0","5","null","<div style=""font-size:60px;"">+</div>","null","","","","","","",""
"","","","","","audio-keyboard-response","307","2.0.0","301022","pe3qt92wz78","mus","wallaby","22","female","no","no","0","5","null","stimuli/sounds/drum_label_B.wav","null","","","","","","",""
"","","","","","html-keyboard-response","308","2.0.0","302025","pe3qt92wz78","mus","wallaby","22","female","no","no","0","5","null","","null","","","","","","",""
"","","","","","image-keyboard-response","309","2.0.0","302413","pe3qt92wz78","mus","wallaby","22","female","no","no","0","5","387","stimuli/pictures/drum_bongo_1.jpg","1","1","","true","yes","sound","stimuli/sounds/drum_label_B.wav",""
"","","","","","audio-keyboard-response","310","2.0.0","303416","pe3qt92wz78","mus","wallaby","22","female","no","no","0","5","null","stimuli/sounds/bleep.wav","null","","","","","","",""
"","","","","","html-keyboard-response","311","2.0.0","305222","pe3qt92wz78","mus","wallaby","22","female","no","no","0","5","1704","<div style=""font-size:30px;"">Press space to start the trial</div>"," ","","","","","","",""
"","","","","","html-keyboard-response","312","2.0.0","305475","pe3qt92wz78","mus","wallaby","22","female","no","no","0","5","null","<div style=""font-size:60px;"">+</div>","null","","","","","","",""
"","","","","","audio-keyboard-response","313","2.0.0","306102","pe3qt92wz78","mus","wallaby","22","female","no","no","0","5","null","stimuli/sounds/piano_label_A.wav","null","","","","","","",""
"","","","","","html-keyboard-response","314","2.0.0","307104","pe3qt92wz78","mus","wallaby","22","female","no","no","0","5","null","","null","","","","","","",""
"","","","","","image-keyboard-response","315","2.0.0","307685","pe3qt92wz78","mus","wallaby","22","female","no","no","0","5","579","stimuli/pictures/piano_electric_1.jpg","1","1","","true","yes","sound","stimuli/sounds/piano_label_A.wav",""
"","","","","","audio-keyboard-response","316","2.0.0","308688","pe3qt92wz78","mus","wallaby","22","female","no","no","0","5","null","stimuli/sounds/bleep.wav","null","","","","","","",""
"","","","","","html-keyboard-response","317","2.0.0","309242","pe3qt92wz78","mus","wallaby","22","female","no","no","0","5","452","<div style=""font-size:30px;"">Press space to start the trial</div>"," ","","","","","","",""
"","","","","","html-keyboard-response","318","2.0.0","309495","pe3qt92wz78","mus","wallaby","22","female","no","no","0","5","null","<div style=""font-size:60px;"">+</div>","null","","","","","","",""
"","","","","","audio-keyboard-response","319","2.0.0","310095","pe3qt92wz78","mus","wallaby","22","female","no","no","0","5","null","stimuli/sounds/phone_label_B.wav","null","","","","","","",""
"","","","","","html-keyboard-response","320","2.0.0","311097","pe3qt92wz78","mus","wallaby","22","female","no","no","0","5","null","","null","","","","","","",""
"","","","","","image-keyboard-response","321","2.0.0","311693","pe3qt92wz78","mus","wallaby","22","female","no","no","0","5","595","stimuli/pictures/flute_wooden_2.jpg","0","0","","true","no","sound","stimuli/sounds/phone_label_B.wav",""
"","","","","","audio-keyboard-response","322","2.0.0","312696","pe3qt92wz78","mus","wallaby","22","female","no","no","0","5","null","stimuli/sounds/bleep.wav","null","","","","","","",""
"","","","","","html-keyboard-response","323","2.0.0","313252","pe3qt92wz78","mus","wallaby","22","female","no","no","0","5","453","<div style=""font-size:30px;"">Press space to start the trial</div>"," ","","","","","","",""
"","","","","","html-keyboard-response","324","2.0.0","313504","pe3qt92wz78","mus","wallaby","22","female","no","no","0","5","null","<div style=""font-size:60px;"">+</div>","null","","","","","","",""
"","","","","","audio-keyboard-response","325","2.0.0","314107","pe3qt92wz78","mus","wallaby","22","female","no","no","0","5","null","stimuli/sounds/bird_sound_A.wav","null","","","","","","",""
"","","","","","html-keyboard-response","326","2.0.0","315109","pe3qt92wz78","mus","wallaby","22","female","no","no","0","5","null","","null","","","","","","",""
"","","","","","image-keyboard-response","327","2.0.0","315761","pe3qt92wz78","mus","wallaby","22","female","no","no","0","5","650","stimuli/pictures/bird_hawk_1.jpg","1","1","","true","yes","sound","stimuli/sounds/bird_sound_A.wav",""
"","","","","","audio-keyboard-response","328","2.0.0","316765","pe3qt92wz78","mus","wallaby","22","female","no","no","0","5","null","stimuli/sounds/bleep.wav","null","","","","","","",""
"","","","","","html-keyboard-response","329","2.0.0","317696","pe3qt92wz78","mus","wallaby","22","female","no","no","0","5","829","<div style=""font-size:30px;"">Press space to start the trial</div>"," ","","","","","","",""
"","","","","","html-keyboard-response","330","2.0.0","317948","pe3qt92wz78","mus","wallaby","22","female","no","no","0","5","null","<div style=""font-size:60px;"">+</div>","null","","","","","","",""
"","","","","","audio-keyboard-response","331","2.0.0","318547","pe3qt92wz78","mus","wallaby","22","female","no","no","0","5","null","stimuli/sounds/drum_label_A.wav","null","","","","","","",""
"","","","","","html-keyboard-response","332","2.0.0","319550","pe3qt92wz78","mus","wallaby","22","female","no","no","0","5","null","","null","","","","","","",""
"","","","","","image-keyboard-response","333","2.0.0","320229","pe3qt92wz78","mus","wallaby","22","female","no","no","0","5","678","stimuli/pictures/bird_hawk_1.jpg","0","0","","true","no","sound","stimuli/sounds/drum_label_A.wav",""
"","","","","","audio-keyboard-response","334","2.0.0","321232","pe3qt92wz78","mus","wallaby","22","female","no","no","0","5","null","stimuli/sounds/bleep.wav","null","","","","","","",""
"","","","","","html-keyboard-response","335","2.0.0","321892","pe3qt92wz78","mus","wallaby","22","female","no","no","0","5","557","<div style=""font-size:30px;"">Press space to start the trial</div>"," ","","","","","","",""
"","","","","","html-keyboard-response","336","2.0.0","322143","pe3qt92wz78","mus","wallaby","22","female","no","no","0","5","null","<div style=""font-size:60px;"">+</div>","null","","","","","","",""
"","","","","","audio-keyboard-response","337","2.0.0","322744","pe3qt92wz78","mus","wallaby","22","female","no","no","0","5","null","stimuli/sounds/drum_label_A.wav","null","","","","","","",""
"","","","","","html-keyboard-response","338","2.0.0","323747","pe3qt92wz78","mus","wallaby","22","female","no","no","0","5","null","","null","","","","","","",""
"","","","","","image-keyboard-response","339","2.0.0","324150","pe3qt92wz78","mus","wallaby","22","female","no","no","0","5","402","stimuli/pictures/bird_song_2.jpg","0","0","","true","no","sound","stimuli/sounds/drum_label_A.wav",""
"","","","","","audio-keyboard-response","340","2.0.0","325153","pe3qt92wz78","mus","wallaby","22","female","no","no","0","5","null","stimuli/sounds/bleep.wav","null","","","","","","",""
"","","","","","html-keyboard-response","341","2.0.0","325668","pe3qt92wz78","mus","wallaby","22","female","no","no","0","5","413","<div style=""font-size:30px;"">Press space to start the trial</div>"," ","","","","","","",""
"","","","","","html-keyboard-response","342","2.0.0","325921","pe3qt92wz78","mus","wallaby","22","female","no","no","0","5","null","<div style=""font-size:60px;"">+</div>","null","","","","","","",""
"","","","","","audio-keyboard-response","343","2.0.0","326523","pe3qt92wz78","mus","wallaby","22","female","no","no","0","5","null","stimuli/sounds/bird_sound_A.wav","null","","","","","","",""
"","","","","","html-keyboard-response","344","2.0.0","327526","pe3qt92wz78","mus","wallaby","22","female","no","no","0","5","null","","null","","","","","","",""
"","","","","","image-keyboard-response","345","2.0.0","328126","pe3qt92wz78","mus","wallaby","22","female","no","no","0","5","597","stimuli/pictures/bird_song_1.jpg","1","1","","true","no","sound","stimuli/sounds/bird_sound_A.wav",""
"","","","","","audio-keyboard-response","346","2.0.0","329128","pe3qt92wz78","mus","wallaby","22","female","no","no","0","5","null","stimuli/sounds/bleep.wav","null","","","","","","",""
"","","","","","html-keyboard-response","347","2.0.0","329522","pe3qt92wz78","mus","wallaby","22","female","no","no","0","5","291","<div style=""font-size:30px;"">Press space to start the trial</div>"," ","","","","","","",""
"","","","","","html-keyboard-response","348","2.0.0","329774","pe3qt92wz78","mus","wallaby","22","female","no","no","0","5","null","<div style=""font-size:60px;"">+</div>","null","","","","","","",""
"","","","","","audio-keyboard-response","349","2.0.0","330378","pe3qt92wz78","mus","wallaby","22","female","no","no","0","5","null","stimuli/sounds/piano_label_B.wav","null","","","","","","",""
"","","","","","html-keyboard-response","350","2.0.0","331380","pe3qt92wz78","mus","wallaby","22","female","no","no","0","5","null","","null","","","","","","",""
"","","","","","image-keyboard-response","351","2.0.0","331874","pe3qt92wz78","mus","wallaby","22","female","no","no","0","5","492","stimuli/pictures/bird_song_2.jpg","0","0","","true","no","sound","stimuli/sounds/piano_label_B.wav",""
"","","","","","audio-keyboard-response","352","2.0.0","332877","pe3qt92wz78","mus","wallaby","22","female","no","no","0","5","null","stimuli/sounds/bleep.wav","null","","","","","","",""
"","","","","","html-keyboard-response","353","2.0.0","333257","pe3qt92wz78","mus","wallaby","22","female","no","no","0","5","278","<div style=""font-size:30px;"">Press space to start the trial</div>"," ","","","","","","",""
"","","","","","html-keyboard-response","354","2.0.0","333510","pe3qt92wz78","mus","wallaby","22","female","no","no","0","5","null","<div style=""font-size:60px;"">+</div>","null","","","","","","",""
"","","","","","audio-keyboard-response","355","2.0.0","334116","pe3qt92wz78","mus","wallaby","22","female","no","no","0","5","null","stimuli/sounds/piano_sound_A.wav","null","","","","","","",""
"","","","","","html-keyboard-response","356","2.0.0","335119","pe3qt92wz78","mus","wallaby","22","female","no","no","0","5","null","","null","","","","","","",""
"","","","","","image-keyboard-response","357","2.0.0","335924","pe3qt92wz78","mus","wallaby","22","female","no","no","0","5","803","stimuli/pictures/drum_kit_2.jpg","0","0","","true","no","sound","stimuli/sounds/piano_sound_A.wav",""
"","","","","","audio-keyboard-response","358","2.0.0","336927","pe3qt92wz78","mus","wallaby","22","female","no","no","0","5","null","stimuli/sounds/bleep.wav","null","","","","","","",""
"","","","","","html-keyboard-response","359","2.0.0","337310","pe3qt92wz78","mus","wallaby","22","female","no","no","0","5","280","<div style=""font-size:30px;"">Press space to start the trial</div>"," ","","","","","","",""
"","","","","","html-keyboard-response","360","2.0.0","337562","pe3qt92wz78","mus","wallaby","22","female","no","no","0","5","null","<div style=""font-size:60px;"">+</div>","null","","","","","","",""
"","","","","","audio-keyboard-response","361","2.0.0","338162","pe3qt92wz78","mus","wallaby","22","female","no","no","0","5","null","stimuli/sounds/phone_label_B.wav","null","","","","","","",""
"","","","","","html-keyboard-response","362","2.0.0","339164","pe3qt92wz78","mus","wallaby","22","female","no","no","0","5","null","","null","","","","","","",""
"","","","","","image-keyboard-response","363","2.0.0","339536","pe3qt92wz78","mus","wallaby","22","female","no","no","0","5","370","stimuli/pictures/phone_rotary_1.jpg","1","1","","true","yes","sound","stimuli/sounds/phone_label_B.wav",""
"","","","","","audio-keyboard-response","364","2.0.0","340539","pe3qt92wz78","mus","wallaby","22","female","no","no","0","5","null","stimuli/sounds/bleep.wav","null","","","","","","",""
"","","","","","html-keyboard-response","365","2.0.0","340933","pe3qt92wz78","mus","wallaby","22","female","no","no","0","5","292","<div style=""font-size:30px;"">Press space to start the trial</div>"," ","","","","","","",""
"","","","","","html-keyboard-response","366","2.0.0","341186","pe3qt92wz78","mus","wallaby","22","female","no","no","0","5","null","<div style=""font-size:60px;"">+</div>","null","","","","","","",""
"","","","","","audio-keyboard-response","367","2.0.0","341790","pe3qt92wz78","mus","wallaby","22","female","no","no","0","5","null","stimuli/sounds/phone_label_B.wav","null","","","","","","",""
"","","","","","html-keyboard-response","368","2.0.0","342793","pe3qt92wz78","mus","wallaby","22","female","no","no","0","5","null","","null","","","","","","",""
"","","","","","image-keyboard-response","369","2.0.0","343184","pe3qt92wz78","mus","wallaby","22","female","no","no","0","5","390","stimuli/pictures/phone_rotary_2.jpg","1","1","","true","yes","sound","stimuli/sounds/phone_label_B.wav",""
"","","","","","audio-keyboard-response","370","2.0.0","344187","pe3qt92wz78","mus","wallaby","22","female","no","no","0","5","null","stimuli/sounds/bleep.wav","null","","","","","","",""
"","","","","","html-keyboard-response","371","2.0.0","344636","pe3qt92wz78","mus","wallaby","22","female","no","no","0","5","346","<div style=""font-size:30px;"">Press space to start the trial</div>"," ","","","","","","",""
"","","","","","html-keyboard-response","372","2.0.0","344888","pe3qt92wz78","mus","wallaby","22","female","no","no","0","5","null","<div style=""font-size:60px;"">+</div>","null","","","","","","",""
"","","","","","audio-keyboard-response","373","2.0.0","345488","pe3qt92wz78","mus","wallaby","22","female","no","no","0","5","null","stimuli/sounds/bird_label_A.wav","null","","","","","","",""
"","","","","","html-keyboard-response","374","2.0.0","346490","pe3qt92wz78","mus","wallaby","22","female","no","no","0","5","null","","null","","","","","","",""
"","","","","","image-keyboard-response","375","2.0.0","346955","pe3qt92wz78","mus","wallaby","22","female","no","no","0","5","463","stimuli/pictures/bird_song_2.jpg","1","1","","true","yes","sound","stimuli/sounds/bird_label_A.wav",""
"","","","","","audio-keyboard-response","376","2.0.0","347958","pe3qt92wz78","mus","wallaby","22","female","no","no","0","5","null","stimuli/sounds/bleep.wav","null","","","","","","",""
"","","","","","html-keyboard-response","377","2.0.0","348323","pe3qt92wz78","mus","wallaby","22","female","no","no","0","5","263","<div style=""font-size:30px;"">Press space to start the trial</div>"," ","","","","","","",""
"","","","","","html-keyboard-response","378","2.0.0","348576","pe3qt92wz78","mus","wallaby","22","female","no","no","0","5","null","<div style=""font-size:60px;"">+</div>","null","","","","","","",""
"","","","","","audio-keyboard-response","379","2.0.0","349186","pe3qt92wz78","mus","wallaby","22","female","no","no","0","5","null","stimuli/sounds/flute_label_B.wav","null","","","","","","",""
"","","","","","html-keyboard-response","380","2.0.0","350188","pe3qt92wz78","mus","wallaby","22","female","no","no","0","5","null","","null","","","","","","",""
"","","","","","image-keyboard-response","381","2.0.0","351980","pe3qt92wz78","mus","wallaby","22","female","no","no","0","5","1791","stimuli/pictures/drum_bongo_2.jpg","0","0","","true","no","sound","stimuli/sounds/flute_label_B.wav",""
"","","","","","audio-keyboard-response","382","2.0.0","352983","pe3qt92wz78","mus","wallaby","22","female","no","no","0","5","null","stimuli/sounds/bleep.wav","null","","","","","","",""
"","","","","","html-keyboard-response","383","2.0.0","353533","pe3qt92wz78","mus","wallaby","22","female","no","no","0","5","447","<div style=""font-size:30px;"">Press space to start the trial</div>"," ","","","","","","",""
"","","","","","html-keyboard-response","384","2.0.0","353785","pe3qt92wz78","mus","wallaby","22","female","no","no","0","5","null","<div style=""font-size:60px;"">+</div>","null","","","","","","",""
"","","","","","audio-keyboard-response","385","2.0.0","354387","pe3qt92wz78","mus","wallaby","22","female","no","no","0","5","null","stimuli/sounds/piano_sound_B.wav","null","","","","","","",""
"","","","","","html-keyboard-response","386","2.0.0","355390","pe3qt92wz78","mus","wallaby","22","female","no","no","0","5","null","","null","","","","","","",""
"","","","","","image-keyboard-response","387","2.0.0","357033","pe3qt92wz78","mus","wallaby","22","female","no","no","0","5","1642","stimuli/pictures/flute_wooden_1.jpg","1","0","","false","no","sound","stimuli/sounds/piano_sound_B.wav",""
"","","","","","audio-keyboard-response","388","2.0.0","357512","pe3qt92wz78","mus","wallaby","22","female","no","no","0","5","476","stimuli/sounds/buzz.wav"," ","","","","","","",""
"","","","","","html-keyboard-response","389","2.0.0","359487","pe3qt92wz78","mus","wallaby","22","female","no","no","0","5","1874","<p>You have completed a block. Press R when you are ready to continue</p>","r","","","","","","",""
"","","","","","html-keyboard-response","390","2.0.0","360709","pe3qt92wz78","mus","wallaby","22","female","no","no","0","5","1222","<div style=""font-size:30px;"">Press space to start the trial</div>"," ","","","","","","",""
"","","","","","html-keyboard-response","391","2.0.0","360962","pe3qt92wz78","mus","wallaby","22","female","no","no","0","5","null","<div style=""font-size:60px;"">+</div>","null","","","","","","",""
"","","","","","audio-keyboard-response","392","2.0.0","361568","pe3qt92wz78","mus","wallaby","22","female","no","no","0","5","null","stimuli/sounds/flute_sound_B.wav","null","","","","","","",""
"","","","","","html-keyboard-response","393","2.0.0","362569","pe3qt92wz78","mus","wallaby","22","female","no","no","0","5","null","","null","","","","","","",""
"","","","","","image-keyboard-response","394","2.0.0","363203","pe3qt92wz78","mus","wallaby","22","female","no","no","0","5","631","stimuli/pictures/bird_hawk_1.jpg","0","0","","true","no","sound","stimuli/sounds/flute_sound_B.wav",""
"","","","","","audio-keyboard-response","395","2.0.0","364205","pe3qt92wz78","mus","wallaby","22","female","no","no","0","5","null","stimuli/sounds/bleep.wav","null","","","","","","",""
"","","","","","html-keyboard-response","396","2.0.0","364939","pe3qt92wz78","mus","wallaby","22","female","no","no","0","5","632","<div style=""font-size:30px;"">Press space to start the trial</div>"," ","","","","","","",""
"","","","","","html-keyboard-response","397","2.0.0","365191","pe3qt92wz78","mus","wallaby","22","female","no","no","0","5","null","<div style=""font-size:60px;"">+</div>","null","","","","","","",""
"","","","","","audio-keyboard-response","398","2.0.0","365800","pe3qt92wz78","mus","wallaby","22","female","no","no","0","5","null","stimuli/sounds/flute_label_B.wav","null","","","","","","",""
"","","","","","html-keyboard-response","399","2.0.0","366802","pe3qt92wz78","mus","wallaby","22","female","no","no","0","5","null","","null","","","","","","",""
"","","","","","image-keyboard-response","400","2.0.0","367218","pe3qt92wz78","mus","wallaby","22","female","no","no","0","5","413","stimuli/pictures/flute_metal_1.jpg","1","1","","true","yes","sound","stimuli/sounds/flute_label_B.wav",""
"","","","","","audio-keyboard-response","401","2.0.0","368221","pe3qt92wz78","mus","wallaby","22","female","no","no","0","5","null","stimuli/sounds/bleep.wav","null","","","","","","",""
"","","","","","html-keyboard-response","402","2.0.0","368690","pe3qt92wz78","mus","wallaby","22","female","no","no","0","5","367","<div style=""font-size:30px;"">Press space to start the trial</div>"," ","","","","","","",""
"","","","","","html-keyboard-response","403","2.0.0","368942","pe3qt92wz78","mus","wallaby","22","female","no","no","0","5","null","<div style=""font-size:60px;"">+</div>","null","","","","","","",""
"","","","","","audio-keyboard-response","404","2.0.0","369550","pe3qt92wz78","mus","wallaby","22","female","no","no","0","5","null","stimuli/sounds/piano_sound_A.wav","null","","","","","","",""
"","","","","","html-keyboard-response","405","2.0.0","370553","pe3qt92wz78","mus","wallaby","22","female","no","no","0","5","null","","null","","","","","","",""
"","","","","","image-keyboard-response","406","2.0.0","371339","pe3qt92wz78","mus","wallaby","22","female","no","no","0","5","785","stimuli/pictures/drum_kit_1.jpg","0","0","","true","no","sound","stimuli/sounds/piano_sound_A.wav",""
"","","","","","audio-keyboard-response","407","2.0.0","372343","pe3qt92wz78","mus","wallaby","22","female","no","no","0","5","null","stimuli/sounds/bleep.wav","null","","","","","","",""
"","","","","","html-keyboard-response","408","2.0.0","372872","pe3qt92wz78","mus","wallaby","22","female","no","no","0","5","427","<div style=""font-size:30px;"">Press space to start the trial</div>"," ","","","","","","",""
"","","","","","html-keyboard-response","409","2.0.0","373125","pe3qt92wz78","mus","wallaby","22","female","no","no","0","5","null","<div style=""font-size:60px;"">+</div>","null","","","","","","",""
"","","","","","audio-keyboard-response","410","2.0.0","373729","pe3qt92wz78","mus","wallaby","22","female","no","no","0","5","null","stimuli/sounds/drum_sound_B.wav","null","","","","","","",""
"","","","","","html-keyboard-response","411","2.0.0","374731","pe3qt92wz78","mus","wallaby","22","female","no","no","0","5","null","","null","","","","","","",""
"","","","","","image-keyboard-response","412","2.0.0","375270","pe3qt92wz78","mus","wallaby","22","female","no","no","0","5","537","stimuli/pictures/phone_rotary_1.jpg","0","0","","true","no","sound","stimuli/sounds/drum_sound_B.wav",""
"","","","","","audio-keyboard-response","413","2.0.0","376273","pe3qt92wz78","mus","wallaby","22","female","no","no","0","5","null","stimuli/sounds/bleep.wav","null","","","","","","",""
"","","","","","html-keyboard-response","414","2.0.0","376640","pe3qt92wz78","mus","wallaby","22","female","no","no","0","5","266","<div style=""font-size:30px;"">Press space to start the trial</div>"," ","","","","","","",""
"","","","","","html-keyboard-response","415","2.0.0","376893","pe3qt92wz78","mus","wallaby","22","female","no","no","0","5","null","<div style=""font-size:60px;"">+</div>","null","","","","","","",""
"","","","","","audio-keyboard-response","416","2.0.0","377497","pe3qt92wz78","mus","wallaby","22","female","no","no","0","5","null","stimuli/sounds/flute_label_A.wav","null","","","","","","",""
"","","","","","html-keyboard-response","417","2.0.0","378499","pe3qt92wz78","mus","wallaby","22","female","no","no","0","5","null","","null","","","","","","",""
"","","","","","image-keyboard-response","418","2.0.0","379586","pe3qt92wz78","mus","wallaby","22","female","no","no","0","5","1084","stimuli/pictures/piano_grand_1.jpg","0","0","","true","no","sound","stimuli/sounds/flute_label_A.wav",""
"","","","","","audio-keyboard-response","419","2.0.0","380588","pe3qt92wz78","mus","wallaby","22","female","no","no","0","5","null","stimuli/sounds/bleep.wav","null","","","","","","",""
"","","","","","html-keyboard-response","420","2.0.0","381076","pe3qt92wz78","mus","wallaby","22","female","no","no","0","5","385","<div style=""font-size:30px;"">Press space to start the trial</div>"," ","","","","","","",""
"","","","","","html-keyboard-response","421","2.0.0","381327","pe3qt92wz78","mus","wallaby","22","female","no","no","0","5","null","<div style=""font-size:60px;"">+</div>","null","","","","","","",""
"","","","","","audio-keyboard-response","422","2.0.0","381932","pe3qt92wz78","mus","wallaby","22","female","no","no","0","5","null","stimuli/sounds/drum_label_B.wav","null","","","","","","",""
"","","","","","html-keyboard-response","423","2.0.0","382934","pe3qt92wz78","mus","wallaby","22","female","no","no","0","5","null","","null","","","","","","",""
"","","","","","image-keyboard-response","424","2.0.0","383298","pe3qt92wz78","mus","wallaby","22","female","no","no","0","5","362","stimuli/pictures/drum_kit_2.jpg","1","1","","true","yes","sound","stimuli/sounds/drum_label_B.wav",""
"","","","","","audio-keyboard-response","425","2.0.0","384301","pe3qt92wz78","mus","wallaby","22","female","no","no","0","5","null","stimuli/sounds/bleep.wav","null","","","","","","",""
"","","","","","html-keyboard-response","426","2.0.0","384733","pe3qt92wz78","mus","wallaby","22","female","no","no","0","5","331","<div style=""font-size:30px;"">Press space to start the trial</div>"," ","","","","","","",""
"","","","","","html-keyboard-response","427","2.0.0","384986","pe3qt92wz78","mus","wallaby","22","female","no","no","0","5","null","<div style=""font-size:60px;"">+</div>","null","","","","","","",""
"","","","","","audio-keyboard-response","428","2.0.0","385589","pe3qt92wz78","mus","wallaby","22","female","no","no","0","5","null","stimuli/sounds/drum_sound_B.wav","null","","","","","","",""
"","","","","","html-keyboard-response","429","2.0.0","386591","pe3qt92wz78","mus","wallaby","22","female","no","no","0","5","null","","null","","","","","","",""
"","","","","","image-keyboard-response","430","2.0.0","387135","pe3qt92wz78","mus","wallaby","22","female","no","no","0","5","543","stimuli/pictures/drum_kit_2.jpg","1","1","","true","no","sound","stimuli/sounds/drum_sound_B.wav",""
"","","","","","audio-keyboard-response","431","2.0.0","388139","pe3qt92wz78","mus","wallaby","22","female","no","no","0","5","null","stimuli/sounds/bleep.wav","null","","","","","","",""
"","","","","","html-keyboard-response","432","2.0.0","388608","pe3qt92wz78","mus","wallaby","22","female","no","no","0","5","367","<div style=""font-size:30px;"">Press space to start the trial</div>"," ","","","","","","",""
"","","","","","html-keyboard-response","433","2.0.0","388860","pe3qt92wz78","mus","wallaby","22","female","no","no","0","5","null","<div style=""font-size:60px;"">+</div>","null","","","","","","",""
"","","","","","audio-keyboard-response","434","2.0.0","389461","pe3qt92wz78","mus","wallaby","22","female","no","no","0","5","null","stimuli/sounds/flute_sound_A.wav","null","","","","","","",""
"","","","","","html-keyboard-response","435","2.0.0","390463","pe3qt92wz78","mus","wallaby","22","female","no","no","0","5","null","","null","","","","","","",""
"","","","","","image-keyboard-response","436","2.0.0","391048","pe3qt92wz78","mus","wallaby","22","female","no","no","0","5","583","stimuli/pictures/phone_rotary_2.jpg","0","0","","true","no","sound","stimuli/sounds/flute_sound_A.wav",""
"","","","","","audio-keyboard-response","437","2.0.0","392050","pe3qt92wz78","mus","wallaby","22","female","no","no","0","5","null","stimuli/sounds/bleep.wav","null","","","","","","",""
"","","","","","html-keyboard-response","438","2.0.0","392459","pe3qt92wz78","mus","wallaby","22","female","no","no","0","5","307","<div style=""font-size:30px;"">Press space to start the trial</div>"," ","","","","","","",""
"","","","","","html-keyboard-response","439","2.0.0","392711","pe3qt92wz78","mus","wallaby","22","female","no","no","0","5","null","<div style=""font-size:60px;"">+</div>","null","","","","","","",""
"","","","","","audio-keyboard-response","440","2.0.0","393315","pe3qt92wz78","mus","wallaby","22","female","no","no","0","5","null","stimuli/sounds/phone_sound_A.wav","null","","","","","","",""
"","","","","","html-keyboard-response","441","2.0.0","394317","pe3qt92wz78","mus","wallaby","22","female","no","no","0","5","null","","null","","","","","","",""
"","","","","","image-keyboard-response","442","2.0.0","394953","pe3qt92wz78","mus","wallaby","22","female","no","no","0","5","635","stimuli/pictures/bird_hawk_1.jpg","0","0","","true","no","sound","stimuli/sounds/phone_sound_A.wav",""
"","","","","","audio-keyboard-response","443","2.0.0","395956","pe3qt92wz78","mus","wallaby","22","female","no","no","0","5","null","stimuli/sounds/bleep.wav","null","","","","","","",""
"","","","","","html-keyboard-response","444","2.0.0","396518","pe3qt92wz78","mus","wallaby","22","female","no","no","0","5","460","<div style=""font-size:30px;"">Press space to start the trial</div>"," ","","","","","","",""
"","","","","","html-keyboard-response","445","2.0.0","396770","pe3qt92wz78","mus","wallaby","22","female","no","no","0","5","null","<div style=""font-size:60px;"">+</div>","null","","","","","","",""
"","","","","","audio-keyboard-response","446","2.0.0","397373","pe3qt92wz78","mus","wallaby","22","female","no","no","0","5","null","stimuli/sounds/phone_label_B.wav","null","","","","","","",""
"","","","","","html-keyboard-response","447","2.0.0","398375","pe3qt92wz78","mus","wallaby","22","female","no","no","0","5","null","","null","","","","","","",""
"","","","","","image-keyboard-response","448","2.0.0","399033","pe3qt92wz78","mus","wallaby","22","female","no","no","0","5","657","stimuli/pictures/phone_cell_2.jpg","1","1","","true","yes","sound","stimuli/sounds/phone_label_B.wav",""
"","","","","","audio-keyboard-response","449","2.0.0","400036","pe3qt92wz78","mus","wallaby","22","female","no","no","0","5","null","stimuli/sounds/bleep.wav","null","","","","","","",""
"","","","","","html-keyboard-response","450","2.0.0","400645","pe3qt92wz78","mus","wallaby","22","female","no","no","0","5","508","<div style=""font-size:30px;"">Press space to start the trial</div>"," ","","","","","","",""
"","","","","","html-keyboard-response","451","2.0.0","400898","pe3qt92wz78","mus","wallaby","22","female","no","no","0","5","null","<div style=""font-size:60px;"">+</div>","null","","","","","","",""
"","","","","","audio-keyboard-response","452","2.0.0","401506","pe3qt92wz78","mus","wallaby","22","female","no","no","0","5","null","stimuli/sounds/flute_sound_B.wav","null","","","","","","",""
"","","","","","html-keyboard-response","453","2.0.0","402508","pe3qt92wz78","mus","wallaby","22","female","no","no","0","5","null","","null","","","","","","",""
"","","","","","image-keyboard-response","454","2.0.0","403096","pe3qt92wz78","mus","wallaby","22","female","no","no","0","5","586","stimuli/pictures/flute_metal_2.jpg","1","1","","true","no","sound","stimuli/sounds/flute_sound_B.wav",""
"","","","","","audio-keyboard-response","455","2.0.0","404098","pe3qt92wz78","mus","wallaby","22","female","no","no","0","5","null","stimuli/sounds/bleep.wav","null","","","","","","",""
"","","","","","html-keyboard-response","456","2.0.0","404667","pe3qt92wz78","mus","wallaby","22","female","no","no","0","5","466","<div style=""font-size:30px;"">Press space to start the trial</div>"," ","","","","","","",""
"","","","","","html-keyboard-response","457","2.0.0","404919","pe3qt92wz78","mus","wallaby","22","female","no","no","0","5","null","<div style=""font-size:60px;"">+</div>","null","","","","","","",""
"","","","","","audio-keyboard-response","458","2.0.0","405529","pe3qt92wz78","mus","wallaby","22","female","no","no","0","5","null","stimuli/sounds/flute_label_B.wav","null","","","","","","",""
"","","","","","html-keyboard-response","459","2.0.0","406531","pe3qt92wz78","mus","wallaby","22","female","no","no","0","5","null","","null","","","","","","",""
"","","","","","image-keyboard-response","460","2.0.0","407445","pe3qt92wz78","mus","wallaby","22","female","no","no","0","5","913","stimuli/pictures/flute_wooden_1.jpg","1","1","","true","yes","sound","stimuli/sounds/flute_label_B.wav",""
"","","","","","audio-keyboard-response","461","2.0.0","408446","pe3qt92wz78","mus","wallaby","22","female","no","no","0","5","null","stimuli/sounds/bleep.wav","null","","","","","","",""
"","","","","","html-keyboard-response","462","2.0.0","409010","pe3qt92wz78","mus","wallaby","22","female","no","no","0","5","462","<div style=""font-size:30px;"">Press space to start the trial</div>"," ","","","","","","",""
"","","","","","html-keyboard-response","463","2.0.0","409263","pe3qt92wz78","mus","wallaby","22","female","no","no","0","5","null","<div style=""font-size:60px;"">+</div>","null","","","","","","",""
"","","","","","audio-keyboard-response","464","2.0.0","409871","pe3qt92wz78","mus","wallaby","22","female","no","no","0","5","null","stimuli/sounds/flute_label_B.wav","null","","","","","","",""
"","","","","","html-keyboard-response","465","2.0.0","410873","pe3qt92wz78","mus","wallaby","22","female","no","no","0","5","null","","null","","","","","","",""
"","","","","","image-keyboard-response","466","2.0.0","411241","pe3qt92wz78","mus","wallaby","22","female","no","no","0","5","366","stimuli/pictures/flute_wooden_2.jpg","1","1","","true","yes","sound","stimuli/sounds/flute_label_B.wav",""
"","","","","","audio-keyboard-response","467","2.0.0","412244","pe3qt92wz78","mus","wallaby","22","female","no","no","0","5","null","stimuli/sounds/bleep.wav","null","","","","","","",""
"","","","","","html-keyboard-response","468","2.0.0","412975","pe3qt92wz78","mus","wallaby","22","female","no","no","0","5","629","<div style=""font-size:30px;"">Press space to start the trial</div>"," ","","","","","","",""
"","","","","","html-keyboard-response","469","2.0.0","413227","pe3qt92wz78","mus","wallaby","22","female","no","no","0","5","null","<div style=""font-size:60px;"">+</div>","null","","","","","","",""
"","","","","","audio-keyboard-response","470","2.0.0","413836","pe3qt92wz78","mus","wallaby","22","female","no","no","0","5","null","stimuli/sounds/flute_sound_B.wav","null","","","","","","",""
"","","","","","html-keyboard-response","471","2.0.0","414838","pe3qt92wz78","mus","wallaby","22","female","no","no","0","5","null","","null","","","","","","",""
"","","","","","image-keyboard-response","472","2.0.0","415347","pe3qt92wz78","mus","wallaby","22","female","no","no","0","5","508","stimuli/pictures/flute_wooden_1.jpg","1","1","","true","yes","sound","stimuli/sounds/flute_sound_B.wav",""
"","","","","","audio-keyboard-response","473","2.0.0","416350","pe3qt92wz78","mus","wallaby","22","female","no","no","0","5","null","stimuli/sounds/bleep.wav","null","","","","","","",""
"","","","","","html-keyboard-response","474","2.0.0","417113","pe3qt92wz78","mus","wallaby","22","female","no","no","0","5","661","<div style=""font-size:30px;"">Press space to start the trial</div>"," ","","","","","","",""
"","","","","","html-keyboard-response","475","2.0.0","417365","pe3qt92wz78","mus","wallaby","22","female","no","no","0","5","null","<div style=""font-size:60px;"">+</div>","null","","","","","","",""
"","","","","","audio-keyboard-response","476","2.0.0","417969","pe3qt92wz78","mus","wallaby","22","female","no","no","0","5","null","stimuli/sounds/drum_label_A.wav","null","","","","","","",""
"","","","","","html-keyboard-response","477","2.0.0","418971","pe3qt92wz78","mus","wallaby","22","female","no","no","0","5","null","","null","","","","","","",""
"","","","","","image-keyboard-response","478","2.0.0","419509","pe3qt92wz78","mus","wallaby","22","female","no","no","0","5","537","stimuli/pictures/drum_kit_2.jpg","1","1","","true","yes","sound","stimuli/sounds/drum_label_A.wav",""
"","","","","","audio-keyboard-response","479","2.0.0","420512","pe3qt92wz78","mus","wallaby","22","female","no","no","0","5","null","stimuli/sounds/bleep.wav","null","","","","","","",""
"","","","","","html-keyboard-response","480","2.0.0","421983","pe3qt92wz78","mus","wallaby","22","female","no","no","0","5","1368","<div style=""font-size:30px;"">Press space to start the trial</div>"," ","","","","","","",""
"","","","","","html-keyboard-response","481","2.0.0","422234","pe3qt92wz78","mus","wallaby","22","female","no","no","0","5","null","<div style=""font-size:60px;"">+</div>","null","","","","","","",""
"","","","","","audio-keyboard-response","482","2.0.0","422839","pe3qt92wz78","mus","wallaby","22","female","no","no","0","5","null","stimuli/sounds/phone_sound_B.wav","null","","","","","","",""
"","","","","","html-keyboard-response","483","2.0.0","423841","pe3qt92wz78","mus","wallaby","22","female","no","no","0","5","null","","null","","","","","","",""
"","","","","","image-keyboard-response","484","2.0.0","424733","pe3qt92wz78","mus","wallaby","22","female","no","no","0","5","891","stimuli/pictures/phone_cell_1.jpg","1","1","","true","no","sound","stimuli/sounds/phone_sound_B.wav",""
"","","","","","audio-keyboard-response","485","2.0.0","425736","pe3qt92wz78","mus","wallaby","22","female","no","no","0","5","null","stimuli/sounds/bleep.wav","null","","","","","","",""
"","","","","","html-keyboard-response","486","2.0.0","426339","pe3qt92wz78","mus","wallaby","22","female","no","no","0","5","500","<div style=""font-size:30px;"">Press space to start the trial</div>"," ","","","","","","",""
"","","","","","html-keyboard-response","487","2.0.0","426591","pe3qt92wz78","mus","wallaby","22","female","no","no","0","5","null","<div style=""font-size:60px;"">+</div>","null","","","","","","",""
