"success","timeout","failed_images","failed_audio","failed_video","trial_type","trial_index","plugin_version","time_elapsed","random_id","condition","participant","age","gender_id","mus_exp","inst_exp","years_exp","mus_listening","rt","stimulus","response","correct_response","practice","correct","congruent","sound_type","audio","question_order"
"true","false","[]","[]","[]","preload","0","2.0.0","873","pew3jkp1w0w","mus","raccoon","21","Female","yes","yes","5","1","","","","","","","","","",""
"","","","","","html-keyboard-response","1","2.0.0","45655","pew3jkp1w0w","mus","raccoon","21","Female","yes","yes","5","1","44784","Welcome to the experiment! Press any key to begin."," ","","","","","","",""
"true","","","","","fullscreen","2","null","48772","pew3jkp1w0w","mus","raccoon","21","Female","yes","yes","5","1","2114","","","","","","","","",""
"","","","","","survey-text","3","2.0.0","53795","pew3jkp1w0w","mus","raccoon","21","Female","yes","yes","5","1","5019","","{""participant_id"":""raccoon""}","","","","","","",""
"","","","","","html-keyboard-response","4","2.0.0","61802","pew3jkp1w0w","mus","raccoon","21","Female","yes","yes","5","1","8005","
    <p> Please use headphones for the duration of the study.</p>
    <p> Within each trial, you will hear a sound and then be presented with an image in the center of your screen.</p>
    <p>Press the <b>'1'</b> key if what you hear <u>matches</u> what you see.</p>
    <p>Press the <b>'0'</b> key if what you hear <u>does not match</u> what you see.</p>
    <p>Try to respond as quickly and accurately as you can.</p>
    <p> Press any key to begin.</p>
    "," ","","","","","","",""
"","","","","","html-keyboard-response","5","2.0.0","64120","pew3jkp1w0w","mus","raccoon","21","Female","yes","yes","5","1","2317","
    <div style=""font-size:28px;"">
      <p>You will now complete 4 short practice trials.</p>
      <p>This is just to help you get familiar with the task.</p>
      <p>Press any key to begin.</p>
    </div>
  "," ","","","","","","",""
"","","","","","html-keyboard-response","6","2.0.0","64621","pew3jkp1w0w","mus","raccoon","21","Female","yes","yes","5","1","null","<div style=""font-size:60px;"">+</div>","null","","","","","","",""
"","","","","","audio-keyboard-response","7","2.0.0","65709","pew3jkp1w0w","mus","raccoon","21","Female","yes","yes","5","1","null","stimuli/sounds/guitar_label_A.wav","null","","","","","","",""
"","","","","","image-keyboard-response","8","2.0.0","66995","pew3jkp1w0w","mus","raccoon","21","Female","yes","yes","5","1","1284","stimuli/pictures/guitar_acoustic_1.jpg","1","1","true","true","","","",""
"","","","","","audio-keyboard-response","9","2.0.0","67798","pew3jkp1w0w","mus","raccoon","21","Female","yes","yes","5","1","null","stimuli/sounds/bleep.wav","null","","","","","","",""
"","","","","","html-keyboard-response","10","2.0.0","68501","pew3jkp1w0w","mus","raccoon","21","Female","yes","yes","5","1","null","<p style='color:green; font-size:30px;'>Correct!</p>","null","","","","","","",""
"","","","","","html-keyboard-response","11","2.0.0","69003","pew3jkp1w0w","mus","raccoon","21","Female","yes","yes","5","1","null","<div style=""font-size:60px;"">+</div>","null","","","","","","",""
"","","","","","audio-keyboard-response","12","2.0.0","69602","pew3jkp1w0w","mus","raccoon","21","Female","yes","yes","5","1","null","stimuli/sounds/guitar_sound_B.wav","null","","","","","","",""
"","","","","","image-keyboard-response","13","2.0.0","70721","pew3jkp1w0w","mus","raccoon","21","Female","yes","yes","5","1","1117","stimuli/pictures/guitar_acoustic_2.jpg","1","1","true","true","","","",""
"","","","","","audio-keyboard-response","14","2.0.0","71522","pew3jkp1w0w","mus","raccoon","21","Female","yes","yes","5","1","null","stimuli/sounds/bleep.wav","null","","","","","","",""
"","","","","","html-keyboard-response","15","2.0.0","72226","pew3jkp1w0w","mus","raccoon","21","Female","yes","yes","5","1","null","<p style='color:green; font-size:30px;'>Correct!</p>","null","","","","","","",""
"","","","","","html-keyboard-response","16","2.0.0","72728","pew3jkp1w0w","mus","raccoon","21","Female","yes","yes","5","1","null","<div style=""font-size:60px;"">+</div>","null","","","","","","",""
"","","","","","audio-keyboard-response","17","2.0.0","73330","pew3jkp1w0w","mus","raccoon","21","Female","yes","yes","5","1","null","stimuli/sounds/flute_sound_A.wav","null","","","","","","",""
"","","","","","image-keyboard-response","18","2.0.0","74472","pew3jkp1w0w","mus","raccoon","21","Female","yes","yes","5","1","1140","stimuli/pictures/guitar_electric_1.jpg","0","0","true","true","","","",""
"","","","","","audio-keyboard-response","19","2.0.0","75275","pew3jkp1w0w","mus","raccoon","21","Female","yes","yes","5","1","null","stimuli/sounds/bleep.wav","null","","","","","","",""
"","","","","","html-keyboard-response","20","2.0.0","75977","pew3jkp1w0w","mus","raccoon","21","Female","yes","yes","5","1","null","<p style='color:green; font-size:30px;'>Correct!</p>","null","","","","","","",""
"","","","","","html-keyboard-response","21","2.0.0","76480","pew3jkp1w0w","mus","raccoon","21","Female","yes","yes","5","1","null","<div style=""font-size:60px;"">+</div>","null","","","","","","",""
"","","","","","audio-keyboard-response","22","2.0.0","77079","pew3jkp1w0w","mus","raccoon","21","Female","yes","yes","5","1","null","stimuli/sounds/guitar_sound_A.wav","null","","","","","","",""
"","","","","","image-keyboard-response","23","2.0.0","77807","pew3jkp1w0w","mus","raccoon","21","Female","yes","yes","5","1","726","stimuli/pictures/guitar_acoustic_1.jpg","0","1","true","false","","","",""
"","","","","","audio-keyboard-response","24","2.0.0","78610","pew3jkp1w0w","mus","raccoon","21","Female","yes","yes","5","1","null","stimuli/sounds/buzz.wav","null","","","","","","",""
"","","","","","html-keyboard-response","25","2.0.0","79312","pew3jkp1w0w","mus","raccoon","21","Female","yes","yes","5","1","null","<p style='color:red; font-size:30px;'>Incorrect</p>","null","","","","","","",""
"","","","","","html-keyboard-response","26","2.0.0","98008","pew3jkp1w0w","mus","raccoon","21","Female","yes","yes","5","1","18696","<p>Practice complete. Press any key to begin the real experiment.</p>"," ","","","","","","",""
"","","","","","html-keyboard-response","27","2.0.0","101118","pew3jkp1w0w","mus","raccoon","21","Female","yes","yes","5","1","3108","<div style=""font-size:30px;"">Press space to start the trial</div>"," ","","","","","","",""
"","","","","","html-keyboard-response","28","2.0.0","101370","pew3jkp1w0w","mus","raccoon","21","Female","yes","yes","5","1","null","<div style=""font-size:60px;"">+</div>","null","","","","","","",""
"","","","","","audio-keyboard-response","29","2.0.0","101979","pew3jkp1w0w","mus","raccoon","21","Female","yes","yes","5","1","null","stimuli/sounds/flute_sound_B.wav","null","","","","","","",""
"","","","","","html-keyboard-response","30","2.0.0","102981","pew3jkp1w0w","mus","raccoon","21","Female","yes","yes","5","1","null","","null","","","","","","",""
"","","","","","image-keyboard-response","31","2.0.0","103810","pew3jkp1w0w","mus","raccoon","21","Female","yes","yes","5","1","826","stimuli/pictures/bird_hawk_1.jpg","0","0","","true","no","sound","stimuli/sounds/flute_sound_B.wav",""
"","","","","","audio-keyboard-response","32","2.0.0","104813","pew3jkp1w0w","mus","raccoon","21","Female","yes","yes","5","1","null","stimuli/sounds/bleep.wav","null","","","","","","",""
"","","","","","html-keyboard-response","33","2.0.0","106089","pew3jkp1w0w","mus","raccoon","21","Female","yes","yes","5","1","1173","<div style=""font-size:30px;"">Press space to start the trial</div>"," ","","","","","","",""
"","","","","","html-keyboard-response","34","2.0.0","106341","pew3jkp1w0w","mus","raccoon","21","Female","yes","yes","5","1","null","<div style=""font-size:60px;"">+</div>","null","","","","","","",""
"","","","","","audio-keyboard-response","35","2.0.0","106944","pew3jkp1w0w","mus","raccoon","21","Female","yes","yes","5","1","null","stimuli/sounds/bird_sound_A.wav","null","","","","","","",""
"","","","","","html-keyboard-response","36","2.0.0","107947","pew3jkp1w0w","mus","raccoon","21","Female","yes","yes","5","1","null","","null","","","","","","",""
"","","","","","image-keyboard-response","37","2.0.0","108461","pew3jkp1w0w","mus","raccoon","21","Female","yes","yes","5","1","512","stimuli/pictures/piano_grand_2.jpg","0","0","","true","no","sound","stimuli/sounds/bird_sound_A.wav",""
"","","","","","audio-keyboard-response","38","2.0.0","109463","pew3jkp1w0w","mus","raccoon","21","Female","yes","yes","5","1","null","stimuli/sounds/bleep.wav","null","","","","","","",""
"","","","","","html-keyboard-response","39","2.0.0","110686","pew3jkp1w0w","mus","raccoon","21","Female","yes","yes","5","1","1120","<div style=""font-size:30px;"">Press space to start the trial</div>"," ","","","","","","",""
"","","","","","html-keyboard-response","40","2.0.0","110938","pew3jkp1w0w","mus","raccoon","21","Female","yes","yes","5","1","null","<div style=""font-size:60px;"">+</div>","null","","","","","","",""
"","","","","","audio-keyboard-response","41","2.0.0","111541","pew3jkp1w0w","mus","raccoon","21","Female","yes","yes","5","1","null","stimuli/sounds/flute_sound_A.wav","null","","","","","","",""
"","","","","","html-keyboard-response","42","2.0.0","112542","pew3jkp1w0w","mus","raccoon","21","Female","yes","yes","5","1","null","","null","","","","","","",""
"","","","","","image-keyboard-response","43","2.0.0","113240","pew3jkp1w0w","mus","raccoon","21","Female","yes","yes","5","1","695","stimuli/pictures/phone_rotary_2.jpg","0","0","","true","no","sound","stimuli/sounds/flute_sound_A.wav",""
"","","","","","audio-keyboard-response","44","2.0.0","114242","pew3jkp1w0w","mus","raccoon","21","Female","yes","yes","5","1","null","stimuli/sounds/bleep.wav","null","","","","","","",""
"","","","","","html-keyboard-response","45","2.0.0","114930","pew3jkp1w0w","mus","raccoon","21","Female","yes","yes","5","1","586","<div style=""font-size:30px;"">Press space to start the trial</div>"," ","","","","","","",""
"","","","","","html-keyboard-response","46","2.0.0","115183","pew3jkp1w0w","mus","raccoon","21","Female","yes","yes","5","1","null","<div style=""font-size:60px;"">+</div>","null","","","","","","",""
"","","","","","audio-keyboard-response","47","2.0.0","115786","pew3jkp1w0w","mus","raccoon","21","Female","yes","yes","5","1","null","stimuli/sounds/bird_label_A.wav","null","","","","","","",""
"","","","","","html-keyboard-response","48","2.0.0","116789","pew3jkp1w0w","mus","raccoon","21","Female","yes","yes","5","1","null","","null","","","","","","",""
"","","","","","image-keyboard-response","49","2.0.0","117183","pew3jkp1w0w","mus","raccoon","21","Female","yes","yes","5","1","391","stimuli/pictures/bird_hawk_1.jpg","1","1","","true","yes","sound","stimuli/sounds/bird_label_A.wav",""
"","","","","","audio-keyboard-response","50","2.0.0","118185","pew3jkp1w0w","mus","raccoon","21","Female","yes","yes","5","1","null","stimuli/sounds/bleep.wav","null","","","","","","",""
"","","","","","html-keyboard-response","51","2.0.0","118712","pew3jkp1w0w","mus","raccoon","21","Female","yes","yes","5","1","424","<div style=""font-size:30px;"">Press space to start the trial</div>"," ","","","","","","",""
"","","","","","html-keyboard-response","52","2.0.0","118964","pew3jkp1w0w","mus","raccoon","21","Female","yes","yes","5","1","null","<div style=""font-size:60px;"">+</div>","null","","","","","","",""
"","","","","","audio-keyboard-response","53","2.0.0","119594","pew3jkp1w0w","mus","raccoon","21","Female","yes","yes","5","1","null","stimuli/sounds/piano_label_A.wav","null","","","","","","",""
"","","","","","html-keyboard-response","54","2.0.0","120596","pew3jkp1w0w","mus","raccoon","21","Female","yes","yes","5","1","null","","null","","","","","","",""
"","","","","","image-keyboard-response","55","2.0.0","121005","pew3jkp1w0w","mus","raccoon","21","Female","yes","yes","5","1","406","stimuli/pictures/piano_grand_2.jpg","1","1","","true","yes","sound","stimuli/sounds/piano_label_A.wav",""
"","","","","","audio-keyboard-response","56","2.0.0","122008","pew3jkp1w0w","mus","raccoon","21","Female","yes","yes","5","1","null","stimuli/sounds/bleep.wav","null","","","","","","",""
"","","","","","html-keyboard-response","57","2.0.0","122605","pew3jkp1w0w","mus","raccoon","21","Female","yes","yes","5","1","495","<div style=""font-size:30px;"">Press space to start the trial</div>"," ","","","","","","",""
"","","","","","html-keyboard-response","58","2.0.0","122857","pew3jkp1w0w","mus","raccoon","21","Female","yes","yes","5","1","null","<div style=""font-size:60px;"">+</div>","null","","","","","","",""
"","","","","","audio-keyboard-response","59","2.0.0","123461","pew3jkp1w0w","mus","raccoon","21","Female","yes","yes","5","1","null","stimuli/sounds/phone_sound_B.wav","null","","","","","","",""
"","","","","","html-keyboard-response","60","2.0.0","124463","pew3jkp1w0w","mus","raccoon","21","Female","yes","yes","5","1","null","","null","","","","","","",""
"","","","","","image-keyboard-response","61","2.0.0","125147","pew3jkp1w0w","mus","raccoon","21","Female","yes","yes","5","1","682","stimuli/pictures/phone_cell_2.jpg","1","1","","true","no","sound","stimuli/sounds/phone_sound_B.wav",""
"","","","","","audio-keyboard-response","62","2.0.0","126151","pew3jkp1w0w","mus","raccoon","21","Female","yes","yes","5","1","null","stimuli/sounds/bleep.wav","null","","","","","","",""
"","","","","","html-keyboard-response","63","2.0.0","127114","pew3jkp1w0w","mus","raccoon","21","Female","yes","yes","5","1","861","<div style=""font-size:30px;"">Press space to start the trial</div>"," ","","","","","","",""
"","","","","","html-keyboard-response","64","2.0.0","127367","pew3jkp1w0w","mus","raccoon","21","Female","yes","yes","5","1","null","<div style=""font-size:60px;"">+</div>","null","","","","","","",""
"","","","","","audio-keyboard-response","65","2.0.0","127967","pew3jkp1w0w","mus","raccoon","21","Female","yes","yes","5","1","null","stimuli/sounds/bird_sound_B.wav","null","","","","","","",""
"","","","","","html-keyboard-response","66","2.0.0","128969","pew3jkp1w0w","mus","raccoon","21","Female","yes","yes","5","1","null","","null","","","","","","",""
"","","","","","image-keyboard-response","67","2.0.0","129505","pew3jkp1w0w","mus","raccoon","21","Female","yes","yes","5","1","533","stimuli/pictures/drum_bongo_1.jpg","0","0","","true","no","sound","stimuli/sounds/bird_sound_B.wav",""
"","","","","","audio-keyboard-response","68","2.0.0","130507","pew3jkp1w0w","mus","raccoon","21","Female","yes","yes","5","1","null","stimuli/sounds/bleep.wav","null","","","","","","",""
"","","","","","html-keyboard-response","69","2.0.0","131610","pew3jkp1w0w","mus","raccoon","21","Female","yes","yes","5","1","1001","<div style=""font-size:30px;"">Press space to start the trial</div>"," ","","","","","","",""
"","","","","","html-keyboard-response","70","2.0.0","131863","pew3jkp1w0w","mus","raccoon","21","Female","yes","yes","5","1","null","<div style=""font-size:60px;"">+</div>","null","","","","","","",""
"","","","","","audio-keyboard-response","71","2.0.0","132463","pew3jkp1w0w","mus","raccoon","21","Female","yes","yes","5","1","null","stimuli/sounds/flute_sound_A.wav","null","","","","","","",""
"","","","","","html-keyboard-response","72","2.0.0","133465","pew3jkp1w0w","mus","raccoon","21","Female","yes","yes","5","1","null","","null","","","","","","",""
"","","","","","image-keyboard-response","73","2.0.0","134200","pew3jkp1w0w","mus","raccoon","21","Female","yes","yes","5","1","733","stimuli/pictures/phone_cell_1.jpg","0","0","","true","no","sound","stimuli/sounds/flute_sound_A.wav",""
"","","","","","audio-keyboard-response","74","2.0.0","135203","pew3jkp1w0w","mus","raccoon","21","Female","yes","yes","5","1","null","stimuli/sounds/bleep.wav","null","","","","","","",""
"","","","","","html-keyboard-response","75","2.0.0","135794","pew3jkp1w0w","mus","raccoon","21","Female","yes","yes","5","1","489","<div style=""font-size:30px;"">Press space to start the trial</div>"," ","","","","","","",""
"","","","","","html-keyboard-response","76","2.0.0","136047","pew3jkp1w0w","mus","raccoon","21","Female","yes","yes","5","1","null","<div style=""font-size:60px;"">+</div>","null","","","","","","",""
"","","","","","audio-keyboard-response","77","2.0.0","136649","pew3jkp1w0w","mus","raccoon","21","Female","yes","yes","5","1","null","stimuli/sounds/phone_sound_A.wav","null","","","","","","",""
"","","","","","html-keyboard-response","78","2.0.0","137652","pew3jkp1w0w","mus","raccoon","21","Female","yes","yes","5","1","null","","null","","","","","","",""
"","","","","","image-keyboard-response","79","2.0.0","139151","pew3jkp1w0w","mus","raccoon","21","Female","yes","yes","5","1","1497","stimuli/pictures/phone_rotary_1.jpg","0","1","","false","no","sound","stimuli/sounds/phone_sound_A.wav",""
"","","","","","audio-keyboard-response","80","2.0.0","140153","pew3jkp1w0w","mus","raccoon","21","Female","yes","yes","5","1","null","stimuli/sounds/buzz.wav","null","","","","","","",""
"","","","","","html-keyboard-response","81","2.0.0","141016","pew3jkp1w0w","mus","raccoon","21","Female","yes","yes","5","1","761","<div style=""font-size:30px;"">Press space to start the trial</div>"," ","","","","","","",""
"","","","","","html-keyboard-response","82","2.0.0","141269","pew3jkp1w0w","mus","raccoon","21","Female","yes","yes","5","1","null","<div style=""font-size:60px;"">+</div>","null","","","","","","",""
"","","","","","audio-keyboard-response","83","2.0.0","141876","pew3jkp1w0w","mus","raccoon","21","Female","yes","yes","5","1","null","stimuli/sounds/piano_sound_A.wav","null","","","","","","",""
"","","","","","html-keyboard-response","84","2.0.0","142878","pew3jkp1w0w","mus","raccoon","21","Female","yes","yes","5","1","null","","null","","","","","","",""
"","","","","","image-keyboard-response","85","2.0.0","143370","pew3jkp1w0w","mus","raccoon","21","Female","yes","yes","5","1","490","stimuli/pictures/piano_electric_2.jpg","1","1","","true","no","sound","stimuli/sounds/piano_sound_A.wav",""
"","","","","","audio-keyboard-response","86","2.0.0","144373","pew3jkp1w0w","mus","raccoon","21","Female","yes","yes","5","1","null","stimuli/sounds/bleep.wav","null","","","","","","",""
"","","","","","html-keyboard-response","87","2.0.0","145283","pew3jkp1w0w","mus","raccoon","21","Female","yes","yes","5","1","808","<div style=""font-size:30px;"">Press space to start the trial</div>"," ","","","","","","",""
"","","","","","html-keyboard-response","88","2.0.0","145534","pew3jkp1w0w","mus","raccoon","21","Female","yes","yes","5","1","null","<div style=""font-size:60px;"">+</div>","null","","","","","","",""
"","","","","","audio-keyboard-response","89","2.0.0","146137","pew3jkp1w0w","mus","raccoon","21","Female","yes","yes","5","1","null","stimuli/sounds/bird_sound_A.wav","null","","","","","","",""
"","","","","","html-keyboard-response","90","2.0.0","147139","pew3jkp1w0w","mus","raccoon","21","Female","yes","yes","5","1","null","","null","","","","","","",""
"","","","","","image-keyboard-response","91","2.0.0","147543","pew3jkp1w0w","mus","raccoon","21","Female","yes","yes","5","1","402","stimuli/pictures/piano_electric_1.jpg","0","0","","true","no","sound","stimuli/sounds/bird_sound_A.wav",""
"","","","","","audio-keyboard-response","92","2.0.0","148545","pew3jkp1w0w","mus","raccoon","21","Female","yes","yes","5","1","null","stimuli/sounds/bleep.wav","null","","","","","","",""
"","","","","","html-keyboard-response","93","2.0.0","149191","pew3jkp1w0w","mus","raccoon","21","Female","yes","yes","5","1","543","<div style=""font-size:30px;"">Press space to start the trial</div>"," ","","","","","","",""
"","","","","","html-keyboard-response","94","2.0.0","149444","pew3jkp1w0w","mus","raccoon","21","Female","yes","yes","5","1","null","<div style=""font-size:60px;"">+</div>","null","","","","","","",""
"","","","","","audio-keyboard-response","95","2.0.0","150046","pew3jkp1w0w","mus","raccoon","21","Female","yes","yes","5","1","null","stimuli/sounds/flute_sound_A.wav","null","","","","","","",""
"","","","","","html-keyboard-response","96","2.0.0","151048","pew3jkp1w0w","mus","raccoon","21","Female","yes","yes","5","1","null","","null","","","","","","",""
"","","","","","image-keyboard-response","97","2.0.0","152576","pew3jkp1w0w","mus","raccoon","21","Female","yes","yes","5","1","1526","stimuli/pictures/flute_wooden_2.jpg","1","1","","true","no","sound","stimuli/sounds/flute_sound_A.wav",""
"","","","","","audio-keyboard-response","98","2.0.0","153578","pew3jkp1w0w","mus","raccoon","21","Female","yes","yes","5","1","null","stimuli/sounds/bleep.wav","null","","","","","","",""
"","","","","","html-keyboard-response","99","2.0.0","154622","pew3jkp1w0w","mus","raccoon","21","Female","yes","yes","5","1","942","<div style=""font-size:30px;"">Press space to start the trial</div>"," ","","","","","","",""
"","","","","","html-keyboard-response","100","2.0.0","154875","pew3jkp1w0w","mus","raccoon","21","Female","yes","yes","5","1","null","<div style=""font-size:60px;"">+</div>","null","","","","","","",""
"","","","","","audio-keyboard-response","101","2.0.0","155475","pew3jkp1w0w","mus","raccoon","21","Female","yes","yes","5","1","null","stimuli/sounds/bird_label_A.wav","null","","","","","","",""
"","","","","","html-keyboard-response","102","2.0.0","156478","pew3jkp1w0w","mus","raccoon","21","Female","yes","yes","5","1","null","","null","","","","","","",""
"","","","","","image-keyboard-response","103","2.0.0","156931","pew3jkp1w0w","mus","raccoon","21","Female","yes","yes","5","1","451","stimuli/pictures/bird_song_1.jpg","1","1","","true","yes","sound","stimuli/sounds/bird_label_A.wav",""
"","","","","","audio-keyboard-response","104","2.0.0","157934","pew3jkp1w0w","mus","raccoon","21","Female","yes","yes","5","1","null","stimuli/sounds/bleep.wav","null","","","","","","",""
"","","","","","html-keyboard-response","105","2.0.0","158592","pew3jkp1w0w","mus","raccoon","21","Female","yes","yes","5","1","556","<div style=""font-size:30px;"">Press space to start the trial</div>"," ","","","","","","",""
"","","","","","html-keyboard-response","106","2.0.0","158844","pew3jkp1w0w","mus","raccoon","21","Female","yes","yes","5","1","null","<div style=""font-size:60px;"">+</div>","null","","","","","","",""
"","","","","","audio-keyboard-response","107","2.0.0","159448","pew3jkp1w0w","mus","raccoon","21","Female","yes","yes","5","1","null","stimuli/sounds/drum_sound_B.wav","null","","","","","","",""
"","","","","","html-keyboard-response","108","2.0.0","160451","pew3jkp1w0w","mus","raccoon","21","Female","yes","yes","5","1","null","","null","","","","","","",""
"","","","","","image-keyboard-response","109","2.0.0","161001","pew3jkp1w0w","mus","raccoon","21","Female","yes","yes","5","1","549","stimuli/pictures/phone_cell_2.jpg","0","0","","true","no","sound","stimuli/sounds/drum_sound_B.wav",""
"","","","","","audio-keyboard-response","110","2.0.0","162004","pew3jkp1w0w","mus","raccoon","21","Female","yes","yes","5","1","null","stimuli/sounds/bleep.wav","null","","","","","","",""
"","","","","","html-keyboard-response","111","2.0.0","162588","pew3jkp1w0w","mus","raccoon","21","Female","yes","yes","5","1","482","<div style=""font-size:30px;"">Press space to start the trial</div>"," ","","","","","","",""
"","","","","","html-keyboard-response","112","2.0.0","162841","pew3jkp1w0w","mus","raccoon","21","Female","yes","yes","5","1","null","<div style=""font-size:60px;"">+</div>","null","","","","","","",""
"","","","","","audio-keyboard-response","113","2.0.0","163469","pew3jkp1w0w","mus","raccoon","21","Female","yes","yes","5","1","null","stimuli/sounds/piano_label_A.wav","null","","","","","","",""
"","","","","","html-keyboard-response","114","2.0.0","164472","pew3jkp1w0w","mus","raccoon","21","Female","yes","yes","5","1","null","","null","","","","","","",""
"","","","","","image-keyboard-response","115","2.0.0","164885","pew3jkp1w0w","mus","raccoon","21","Female","yes","yes","5","1","411","stimuli/pictures/phone_rotary_2.jpg","0","0","","true","no","sound","stimuli/sounds/piano_label_A.wav",""
"","","","","","audio-keyboard-response","116","2.0.0","165888","pew3jkp1w0w","mus","raccoon","21","Female","yes","yes","5","1","null","stimuli/sounds/bleep.wav","null","","","","","","",""
"","","","","","html-keyboard-response","117","2.0.0","166474","pew3jkp1w0w","mus","raccoon","21","Female","yes","yes","5","1","484","<div style=""font-size:30px;"">Press space to start the trial</div>"," ","","","","","","",""
"","","","","","html-keyboard-response","118","2.0.0","166726","pew3jkp1w0w","mus","raccoon","21","Female","yes","yes","5","1","null","<div style=""font-size:60px;"">+</div>","null","","","","","","",""
"","","","","","audio-keyboard-response","119","2.0.0","167331","pew3jkp1w0w","mus","raccoon","21","Female","yes","yes","5","1","null","stimuli/sounds/flute_label_B.wav","null","","","","","","",""
"","","","","","html-keyboard-response","120","2.0.0","168332","pew3jkp1w0w","mus","raccoon","21","Female","yes","yes","5","1","null","","null","","","","","","",""
"","","","","","image-keyboard-response","121","2.0.0","168843","pew3jkp1w0w","mus","raccoon","21","Female","yes","yes","5","1","509","stimuli/pictures/drum_kit_2.jpg","0","0","","true","no","sound","stimuli/sounds/flute_label_B.wav",""
"","","","","","audio-keyboard-response","122","2.0.0","169846","pew3jkp1w0w","mus","raccoon","21","Female","yes","yes","5","1","null","stimuli/sounds/bleep.wav","null","","","","","","",""
"","","","","","html-keyboard-response","123","2.0.0","170430","pew3jkp1w0w","mus","raccoon","21","Female","yes","yes","5","1","481","<div style=""font-size:30px;"">Press space to start the trial</div>"," ","","","","","","",""
"","","","","","html-keyboard-response","124","2.0.0","170682","pew3jkp1w0w","mus","raccoon","21","Female","yes","yes","5","1","null","<div style=""font-size:60px;"">+</div>","null","","","","","","",""
"","","","","","audio-keyboard-response","125","2.0.0","171282","pew3jkp1w0w","mus","raccoon","21","Female","yes","yes","5","1","null","stimuli/sounds/drum_label_B.wav","null","","","","","","",""
"","","","","","html-keyboard-response","126","2.0.0","172285","pew3jkp1w0w","mus","raccoon","21","Female","yes","yes","5","1","null","","null","","","","","","",""
"","","","","","image-keyboard-response","127","2.0.0","172731","pew3jkp1w0w","mus","raccoon","21","Female","yes","yes","5","1","445","stimuli/pictures/piano_electric_2.jpg","0","0","","true","no","sound","stimuli/sounds/drum_label_B.wav",""
"","","","","","audio-keyboard-response","128","2.0.0","173734","pew3jkp1w0w","mus","raccoon","21","Female","yes","yes","5","1","null","stimuli/sounds/bleep.wav","null","","","","","","",""
"","","","","","html-keyboard-response","129","2.0.0","174371","pew3jkp1w0w","mus","raccoon","21","Female","yes","yes","5","1","534","<div style=""font-size:30px;"">Press space to start the trial</div>"," ","","","","","","",""
"","","","","","html-keyboard-response","130","2.0.0","174623","pew3jkp1w0w","mus","raccoon","21","Female","yes","yes","5","1","null","<div style=""font-size:60px;"">+</div>","null","","","","","","",""
"","","","","","audio-keyboard-response","131","2.0.0","175223","pew3jkp1w0w","mus","raccoon","21","Female","yes","yes","5","1","null","stimuli/sounds/bird_sound_B.wav","null","","","","","","",""
"","","","","","html-keyboard-response","132","2.0.0","176226","pew3jkp1w0w","mus","raccoon","21","Female","yes","yes","5","1","null","","null","","","","","","",""
"","","","","","image-keyboard-response","133","2.0.0","176620","pew3jkp1w0w","mus","raccoon","21","Female","yes","yes","5","1","392","stimuli/pictures/bird_song_2.jpg","1","1","","true","yes","sound","stimuli/sounds/bird_sound_B.wav",""
"","","","","","audio-keyboard-response","134","2.0.0","177623","pew3jkp1w0w","mus","raccoon","21","Female","yes","yes","5","1","null","stimuli/sounds/bleep.wav","null","","","","","","",""
"","","","","","html-keyboard-response","135","2.0.0","178332","pew3jkp1w0w","mus","raccoon","21","Female","yes","yes","5","1","606","<div style=""font-size:30px;"">Press space to start the trial</div>"," ","","","","","","",""
"","","","","","html-keyboard-response","136","2.0.0","178584","pew3jkp1w0w","mus","raccoon","21","Female","yes","yes","5","1","null","<div style=""font-size:60px;"">+</div>","null","","","","","","",""
"","","","","","audio-keyboard-response","137","2.0.0","179186","pew3jkp1w0w","mus","raccoon","21","Female","yes","yes","5","1","null","stimuli/sounds/phone_label_A.wav","null","","","","","","",""
"","","","","","html-keyboard-response","138","2.0.0","180188","pew3jkp1w0w","mus","raccoon","21","Female","yes","yes","5","1","null","","null","","","","","","",""
"","","","","","image-keyboard-response","139","2.0.0","180605","pew3jkp1w0w","mus","raccoon","21","Female","yes","yes","5","1","415","stimuli/pictures/drum_kit_1.jpg","0","0","","true","no","sound","stimuli/sounds/phone_label_A.wav",""
"","","","","","audio-keyboard-response","140","2.0.0","181609","pew3jkp1w0w","mus","raccoon","21","Female","yes","yes","5","1","null","stimuli/sounds/bleep.wav","null","","","","","","",""
"","","","","","html-keyboard-response","141","2.0.0","182228","pew3jkp1w0w","mus","raccoon","21","Female","yes","yes","5","1","518","<div style=""font-size:30px;"">Press space to start the trial</div>"," ","","","","","","",""
"","","","","","html-keyboard-response","142","2.0.0","182481","pew3jkp1w0w","mus","raccoon","21","Female","yes","yes","5","1","null","<div style=""font-size:60px;"">+</div>","null","","","","","","",""
"","","","","","audio-keyboard-response","143","2.0.0","183084","pew3jkp1w0w","mus","raccoon","21","Female","yes","yes","5","1","null","stimuli/sounds/piano_label_B.wav","null","","","","","","",""
"","","","","","html-keyboard-response","144","2.0.0","184087","pew3jkp1w0w","mus","raccoon","21","Female","yes","yes","5","1","null","","null","","","","","","",""
"","","","","","image-keyboard-response","145","2.0.0","184455","pew3jkp1w0w","mus","raccoon","21","Female","yes","yes","5","1","367","stimuli/pictures/bird_hawk_1.jpg","0","0","","true","no","sound","stimuli/sounds/piano_label_B.wav",""
"","","","","","audio-keyboard-response","146","2.0.0","185458","pew3jkp1w0w","mus","raccoon","21","Female","yes","yes","5","1","null","stimuli/sounds/bleep.wav","null","","","","","","",""
"","","","","","html-keyboard-response","147","2.0.0","216652","pew3jkp1w0w","mus","raccoon","21","Female","yes","yes","5","1","31093","<p>You have completed a block. Press R when you are ready to continue</p>","r","","","","","","",""
"","","","","","html-keyboard-response","148","2.0.0","217629","pew3jkp1w0w","mus","raccoon","21","Female","yes","yes","5","1","977","<div style=""font-size:30px;"">Press space to start the trial</div>"," ","","","","","","",""
"","","","","","html-keyboard-response","149","2.0.0","217881","pew3jkp1w0w","mus","raccoon","21","Female","yes","yes","5","1","null","<div style=""font-size:60px;"">+</div>","null","","","","","","",""
"","","","","","audio-keyboard-response","150","2.0.0","218841","pew3jkp1w0w","mus","raccoon","21","Female","yes","yes","5","1","null","stimuli/sounds/drum_label_B.wav","null","","","","","","",""
"","","","","","html-keyboard-response","151","2.0.0","219843","pew3jkp1w0w","mus","raccoon","21","Female","yes","yes","5","1","null","","null","","","","","","",""
"","","","","","image-keyboard-response","152","2.0.0","220367","pew3jkp1w0w","mus","raccoon","21","Female","yes","yes","5","1","522","stimuli/pictures/piano_electric_1.jpg","0","0","","true","no","sound","stimuli/sounds/drum_label_B.wav",""
"","","","","","audio-keyboard-response","153","2.0.0","221371","pew3jkp1w0w","mus","raccoon","21","Female","yes","yes","5","1","null","stimuli/sounds/bleep.wav","null","","","","","","",""
"","","","","","html-keyboard-response","154","2.0.0","222367","pew3jkp1w0w","mus","raccoon","21","Female","yes","yes","5","1","894","<div style=""font-size:30px;"">Press space to start the trial</div>"," ","","","","","","",""
"","","","","","html-keyboard-response","155","2.0.0","222620","pew3jkp1w0w","mus","raccoon","21","Female","yes","yes","5","1","null","<div style=""font-size:60px;"">+</div>","null","","","","","","",""
"","","","","","audio-keyboard-response","156","2.0.0","223225","pew3jkp1w0w","mus","raccoon","21","Female","yes","yes","5","1","null","stimuli/sounds/piano_sound_A.wav","null","","","","","","",""
"","","","","","html-keyboard-response","157","2.0.0","224227","pew3jkp1w0w","mus","raccoon","21","Female","yes","yes","5","1","null","","null","","","","","","",""
"","","","","","image-keyboard-response","158","2.0.0","224677","pew3jkp1w0w","mus","raccoon","21","Female","yes","yes","5","1","448","stimuli/pictures/drum_kit_2.jpg","0","0","","true","no","sound","stimuli/sounds/piano_sound_A.wav",""
"","","","","","audio-keyboard-response","159","2.0.0","225680","pew3jkp1w0w","mus","raccoon","21","Female","yes","yes","5","1","null","stimuli/sounds/bleep.wav","null","","","","","","",""
"","","","","","html-keyboard-response","160","2.0.0","226351","pew3jkp1w0w","mus","raccoon","21","Female","yes","yes","5","1","569","<div style=""font-size:30px;"">Press space to start the trial</div>"," ","","","","","","",""
"","","","","","html-keyboard-response","161","2.0.0","226602","pew3jkp1w0w","mus","raccoon","21","Female","yes","yes","5","1","null","<div style=""font-size:60px;"">+</div>","null","","","","","","",""
"","","","","","audio-keyboard-response","162","2.0.0","227203","pew3jkp1w0w","mus","raccoon","21","Female","yes","yes","5","1","null","stimuli/sounds/piano_label_B.wav","null","","","","","","",""
"","","","","","html-keyboard-response","163","2.0.0","228206","pew3jkp1w0w","mus","raccoon","21","Female","yes","yes","5","1","null","","null","","","","","","",""
"","","","","","image-keyboard-response","164","2.0.0","228734","pew3jkp1w0w","mus","raccoon","21","Female","yes","yes","5","1","527","stimuli/pictures/piano_electric_2.jpg","1","1","","true","yes","sound","stimuli/sounds/piano_label_B.wav",""
"","","","","","audio-keyboard-response","165","2.0.0","229737","pew3jkp1w0w","mus","raccoon","21","Female","yes","yes","5","1","null","stimuli/sounds/bleep.wav","null","","","","","","",""
"","","","","","html-keyboard-response","166","2.0.0","230351","pew3jkp1w0w","mus","raccoon","21","Female","yes","yes","5","1","511","<div style=""font-size:30px;"">Press space to start the trial</div>"," ","","","","","","",""
"","","","","","html-keyboard-response","167","2.0.0","230604","pew3jkp1w0w","mus","raccoon","21","Female","yes","yes","5","1","null","<div style=""font-size:60px;"">+</div>","null","","","","","","",""
"","","","","","audio-keyboard-response","168","2.0.0","231203","pew3jkp1w0w","mus","raccoon","21","Female","yes","yes","5","1","null","stimuli/sounds/drum_label_B.wav","null","","","","","","",""
"","","","","","html-keyboard-response","169","2.0.0","232205","pew3jkp1w0w","mus","raccoon","21","Female","yes","yes","5","1","null","","null","","","","","","",""
"","","","","","image-keyboard-response","170","2.0.0","232591","pew3jkp1w0w","mus","raccoon","21","Female","yes","yes","5","1","384","stimuli/pictures/drum_kit_2.jpg","1","1","","true","yes","sound","stimuli/sounds/drum_label_B.wav",""
"","","","","","audio-keyboard-response","171","2.0.0","233593","pew3jkp1w0w","mus","raccoon","21","Female","yes","yes","5","1","null","stimuli/sounds/bleep.wav","null","","","","","","",""
"","","","","","html-keyboard-response","172","2.0.0","234212","pew3jkp1w0w","mus","raccoon","21","Female","yes","yes","5","1","517","<div style=""font-size:30px;"">Press space to start the trial</div>"," ","","","","","","",""
"","","","","","html-keyboard-response","173","2.0.0","234464","pew3jkp1w0w","mus","raccoon","21","Female","yes","yes","5","1","null","<div style=""font-size:60px;"">+</div>","null","","","","","","",""
"","","","","","audio-keyboard-response","174","2.0.0","235070","pew3jkp1w0w","mus","raccoon","21","Female","yes","yes","5","1","null","stimuli/sounds/piano_sound_A.wav","null","","","","","","",""
"","","","","","html-keyboard-response","175","2.0.0","236073","pew3jkp1w0w","mus","raccoon","21","Female","yes","yes","5","1","null","","null","","","","","","",""
"","","","","","image-keyboard-response","176","2.0.0","236551","pew3jkp1w0w","mus","raccoon","21","Female","yes","yes","5","1","476","stimuli/pictures/piano_grand_2.jpg","1","1","","true","yes","sound","stimuli/sounds/piano_sound_A.wav",""
"","","","","","audio-keyboard-response","177","2.0.0","237553","pew3jkp1w0w","mus","raccoon","21","Female","yes","yes","5","1","null","stimuli/sounds/bleep.wav","null","","","","","","",""
"","","","","","html-keyboard-response","178","2.0.0","238188","pew3jkp1w0w","mus","raccoon","21","Female","yes","yes","5","1","533","<div style=""font-size:30px;"">Press space to start the trial</div>"," ","","","","","","",""
"","","","","","html-keyboard-response","179","2.0.0","238440","pew3jkp1w0w","mus","raccoon","21","Female","yes","yes","5","1","null","<div style=""font-size:60px;"">+</div>","null","","","","","","",""
"","","","","","audio-keyboard-response","180","2.0.0","239043","pew3jkp1w0w","mus","raccoon","21","Female","yes","yes","5","1","null","stimuli/sounds/phone_label_B.wav","null","","","","","","",""
"","","","","","html-keyboard-response","181","2.0.0","240046","pew3jkp1w0w","mus","raccoon","21","Female","yes","yes","5","1","null","","null","","","","","","",""
"","","","","","image-keyboard-response","182","2.0.0","240534","pew3jkp1w0w","mus","raccoon","21","Female","yes","yes","5","1","486","stimuli/pictures/flute_metal_1.jpg","0","0","","true","no","sound","stimuli/sounds/phone_label_B.wav",""
"","","","","","audio-keyboard-response","183","2.0.0","241537","pew3jkp1w0w","mus","raccoon","21","Female","yes","yes","5","1","null","stimuli/sounds/bleep.wav","null","","","","","","",""
"","","","","","html-keyboard-response","184","2.0.0","242034","pew3jkp1w0w","mus","raccoon","21","Female","yes","yes","5","1","395","<div style=""font-size:30px;"">Press space to start the trial</div>"," ","","","","","","",""
"","","","","","html-keyboard-response","185","2.0.0","242287","pew3jkp1w0w","mus","raccoon","21","Female","yes","yes","5","1","null","<div style=""font-size:60px;"">+</div>","null","","","","","","",""
"","","","","","audio-keyboard-response","186","2.0.0","242888","pew3jkp1w0w","mus","raccoon","21","Female","yes","yes","5","1","null","stimuli/sounds/phone_label_A.wav","null","","","","","","",""
"","","","","","html-keyboard-response","187","2.0.0","243890","pew3jkp1w0w","mus","raccoon","21","Female","yes","yes","5","1","null","","null","","","","","","",""
"","","","","","image-keyboard-response","188","2.0.0","244234","pew3jkp1w0w","mus","raccoon","21","Female","yes","yes","5","1","342","stimuli/pictures/phone_cell_2.jpg","1","1","","true","yes","sound","stimuli/sounds/phone_label_A.wav",""
"","","","","","audio-keyboard-response","189","2.0.0","245237","pew3jkp1w0w","mus","raccoon","21","Female","yes","yes","5","1","null","stimuli/sounds/bleep.wav","null","","","","","","",""
"","","","","","html-keyboard-response","190","2.0.0","245800","pew3jkp1w0w","mus","raccoon","21","Female","yes","yes","5","1","461","<div style=""font-size:30px;"">Press space to start the trial</div>"," ","","","","","","",""
"","","","","","html-keyboard-response","191","2.0.0","246053","pew3jkp1w0w","mus","raccoon","21","Female","yes","yes","5","1","null","<div style=""font-size:60px;"">+</div>","null","","","","","","",""
"","","","","","audio-keyboard-response","192","2.0.0","246659","pew3jkp1w0w","mus","raccoon","21","Female","yes","yes","5","1","null","stimuli/sounds/flute_label_B.wav","null","","","","","","",""
"","","","","","html-keyboard-response","193","2.0.0","247661","pew3jkp1w0w","mus","raccoon","21","Female","yes","yes","5","1","null","","null","","","","","","",""
"","","","","","image-keyboard-response","194","2.0.0","248143","pew3jkp1w0w","mus","raccoon","21","Female","yes","yes","5","1","480","stimuli/pictures/drum_bongo_1.jpg","0","0","","true","no","sound","stimuli/sounds/flute_label_B.wav",""
"","","","","","audio-keyboard-response","195","2.0.0","249145","pew3jkp1w0w","mus","raccoon","21","Female","yes","yes","5","1","null","stimuli/sounds/bleep.wav","null","","","","","","",""
"","","","","","html-keyboard-response","196","2.0.0","249726","pew3jkp1w0w","mus","raccoon","21","Female","yes","yes","5","1","479","<div style=""font-size:30px;"">Press space to start the trial</div>"," ","","","","","","",""
"","","","","","html-keyboard-response","197","2.0.0","249979","pew3jkp1w0w","mus","raccoon","21","Female","yes","yes","5","1","null","<div style=""font-size:60px;"">+</div>","null","","","","","","",""
"","","","","","audio-keyboard-response","198","2.0.0","250578","pew3jkp1w0w","mus","raccoon","21","Female","yes","yes","5","1","null","stimuli/sounds/bird_sound_A.wav","null","","","","","","",""
"","","","","","html-keyboard-response","199","2.0.0","251581","pew3jkp1w0w","mus","raccoon","21","Female","yes","yes","5","1","null","","null","","","","","","",""
"","","","","","image-keyboard-response","200","2.0.0","251994","pew3jkp1w0w","mus","raccoon","21","Female","yes","yes","5","1","411","stimuli/pictures/bird_hawk_1.jpg","1","1","","true","yes","sound","stimuli/sounds/bird_sound_A.wav",""
"","","","","","audio-keyboard-response","201","2.0.0","252997","pew3jkp1w0w","mus","raccoon","21","Female","yes","yes","5","1","null","stimuli/sounds/bleep.wav","null","","","","","","",""
"","","","","","html-keyboard-response","202","2.0.0","253573","pew3jkp1w0w","mus","raccoon","21","Female","yes","yes","5","1","474","<div style=""font-size:30px;"">Press space to start the trial</div>"," ","","","","","","",""
"","","","","","html-keyboard-response","203","2.0.0","253825","pew3jkp1w0w","mus","raccoon","21","Female","yes","yes","5","1","null","<div style=""font-size:60px;"">+</div>","null","","","","","","",""
"","","","","","audio-keyboard-response","204","2.0.0","254434","pew3jkp1w0w","mus","raccoon","21","Female","yes","yes","5","1","null","stimuli/sounds/piano_sound_B.wav","null","","","","","","",""
"","","","","","html-keyboard-response","205","2.0.0","255437","pew3jkp1w0w","mus","raccoon","21","Female","yes","yes","5","1","null","","null","","","","","","",""
"","","","","","image-keyboard-response","206","2.0.0","256236","pew3jkp1w0w","mus","raccoon","21","Female","yes","yes","5","1","798","stimuli/pictures/flute_wooden_2.jpg","0","0","","true","no","sound","stimuli/sounds/piano_sound_B.wav",""
"","","","","","audio-keyboard-response","207","2.0.0","257240","pew3jkp1w0w","mus","raccoon","21","Female","yes","yes","5","1","null","stimuli/sounds/bleep.wav","null","","","","","","",""
"","","","","","html-keyboard-response","208","2.0.0","258117","pew3jkp1w0w","mus","raccoon","21","Female","yes","yes","5","1","775","<div style=""font-size:30px;"">Press space to start the trial</div>"," ","","","","","","",""
"","","","","","html-keyboard-response","209","2.0.0","258370","pew3jkp1w0w","mus","raccoon","21","Female","yes","yes","5","1","null","<div style=""font-size:60px;"">+</div>","null","","","","","","",""
"","","","","","audio-keyboard-response","210","2.0.0","258972","pew3jkp1w0w","mus","raccoon","21","Female","yes","yes","5","1","null","stimuli/sounds/bird_sound_A.wav","null","","","","","","",""
"","","","","","html-keyboard-response","211","2.0.0","259974","pew3jkp1w0w","mus","raccoon","21","Female","yes","yes","5","1","null","","null","","","","","","",""
"","","","","","image-keyboard-response","212","2.0.0","260447","pew3jkp1w0w","mus","raccoon","21","Female","yes","yes","5","1","471","stimuli/pictures/bird_hawk_1.jpg","1","1","","true","yes","sound","stimuli/sounds/bird_sound_A.wav",""
"","","","","","audio-keyboard-response","213","2.0.0","261450","pew3jkp1w0w","mus","raccoon","21","Female","yes","yes","5","1","null","stimuli/sounds/bleep.wav","null","","","","","","",""
"","","","","","html-keyboard-response","214","2.0.0","261966","pew3jkp1w0w","mus","raccoon","21","Female","yes","yes","5","1","414","<div style=""font-size:30px;"">Press space to start the trial</div>"," ","","","","","","",""
"","","","","","html-keyboard-response","215","2.0.0","262219","pew3jkp1w0w","mus","raccoon","21","Female","yes","yes","5","1","null","<div style=""font-size:60px;"">+</div>","null","","","","","","",""
"","","","","","audio-keyboard-response","216","2.0.0","262823","pew3jkp1w0w","mus","raccoon","21","Female","yes","yes","5","1","null","stimuli/sounds/drum_sound_B.wav","null","","","","","","",""
"","","","","","html-keyboard-response","217","2.0.0","263826","pew3jkp1w0w","mus","raccoon","21","Female","yes","yes","5","1","null","","null","","","","","","",""
"","","","","","image-keyboard-response","218","2.0.0","264580","pew3jkp1w0w","mus","raccoon","21","Female","yes","yes","5","1","753","stimuli/pictures/phone_rotary_2.jpg","0","0","","true","no","sound","stimuli/sounds/drum_sound_B.wav",""
"","","","","","audio-keyboard-response","219","2.0.0","265584","pew3jkp1w0w","mus","raccoon","21","Female","yes","yes","5","1","null","stimuli/sounds/bleep.wav","null","","","","","","",""
"","","","","","html-keyboard-response","220","2.0.0","266123","pew3jkp1w0w","mus","raccoon","21","Female","yes","yes","5","1","437","<div style=""font-size:30px;"">Press space to start the trial</div>"," ","","","","","","",""
"","","","","","html-keyboard-response","221","2.0.0","266375","pew3jkp1w0w","mus","raccoon","21","Female","yes","yes","5","1","null","<div style=""font-size:60px;"">+</div>","null","","","","","","",""
"","","","","","audio-keyboard-response","222","2.0.0","266977","pew3jkp1w0w","mus","raccoon","21","Female","yes","yes","5","1","null","stimuli/sounds/flute_sound_A.wav","null","","","","","","",""
"","","","","","html-keyboard-response","223","2.0.0","267979","pew3jkp1w0w","mus","raccoon","21","Female","yes","yes","5","1","null","","null","","","","","","",""
"","","","","","image-keyboard-response","224","2.0.0","268498","pew3jkp1w0w","mus","raccoon","21","Female","yes","yes","5","1","516","stimuli/pictures/phone_cell_2.jpg","0","0","","true","no","sound","stimuli/sounds/flute_sound_A.wav",""
"","","","","","audio-keyboard-response","225","2.0.0","269501","pew3jkp1w0w","mus","raccoon","21","Female","yes","yes","5","1","null","stimuli/sounds/bleep.wav","null","","","","","","",""
"","","","","","html-keyboard-response","226","2.0.0","270100","pew3jkp1w0w","mus","raccoon","21","Female","yes","yes","5","1","498","<div style=""font-size:30px;"">Press space to start the trial</div>"," ","","","","","","",""
"","","","","","html-keyboard-response","227","2.0.0","270353","pew3jkp1w0w","mus","raccoon","21","Female","yes","yes","5","1","null","<div style=""font-size:60px;"">+</div>","null","","","","","","",""
"","","","","","audio-keyboard-response","228","2.0.0","270961","pew3jkp1w0w","mus","raccoon","21","Female","yes","yes","5","1","null","stimuli/sounds/piano_sound_A.wav","null","","","","","","",""
"","","","","","html-keyboard-response","229","2.0.0","271964","pew3jkp1w0w","mus","raccoon","21","Female","yes","yes","5","1","null","","null","","","","","","",""
"","","","","","image-keyboard-response","230","2.0.0","272445","pew3jkp1w0w","mus","raccoon","21","Female","yes","yes","5","1","479","stimuli/pictures/piano_electric_1.jpg","1","1","","true","no","sound","stimuli/sounds/piano_sound_A.wav",""
"","","","","","audio-keyboard-response","231","2.0.0","273448","pew3jkp1w0w","mus","raccoon","21","Female","yes","yes","5","1","null","stimuli/sounds/bleep.wav","null","","","","","","",""
"","","","","","html-keyboard-response","232","2.0.0","274047","pew3jkp1w0w","mus","raccoon","21","Female","yes","yes","5","1","497","<div style=""font-size:30px;"">Press space to start the trial</div>"," ","","","","","","",""
"","","","","","html-keyboard-response","233","2.0.0","274300","pew3jkp1w0w","mus","raccoon","21","Female","yes","yes","5","1","null","<div style=""font-size:60px;"">+</div>","null","","","","","","",""
"","","","","","audio-keyboard-response","234","2.0.0","274908","pew3jkp1w0w","mus","raccoon","21","Female","yes","yes","5","1","null","stimuli/sounds/piano_sound_B.wav","null","","","","","","",""
"","","","","","html-keyboard-response","235","2.0.0","275910","pew3jkp1w0w","mus","raccoon","21","Female","yes","yes","5","1","null","","null","","","","","","",""
"","","","","","image-keyboard-response","236","2.0.0","276607","pew3jkp1w0w","mus","raccoon","21","Female","yes","yes","5","1","695","stimuli/pictures/piano_electric_2.jpg","1","1","","true","yes","sound","stimuli/sounds/piano_sound_B.wav",""
"","","","","","audio-keyboard-response","237","2.0.0","277609","pew3jkp1w0w","mus","raccoon","21","Female","yes","yes","5","1","null","stimuli/sounds/bleep.wav","null","","","","","","",""
"","","","","","html-keyboard-response","238","2.0.0","278128","pew3jkp1w0w","mus","raccoon","21","Female","yes","yes","5","1","416","<div style=""font-size:30px;"">Press space to start the trial</div>"," ","","","","","","",""
"","","","","","html-keyboard-response","239","2.0.0","278380","pew3jkp1w0w","mus","raccoon","21","Female","yes","yes","5","1","null","<div style=""font-size:60px;"">+</div>","null","","","","","","",""
"","","","","","audio-keyboard-response","240","2.0.0","278982","pew3jkp1w0w","mus","raccoon","21","Female","yes","yes","5","1","null","stimuli/sounds/phone_sound_B.wav","null","","","","","","",""
"","","","","","html-keyboard-response","241","2.0.0","279985","pew3jkp1w0w","mus","raccoon","21","Female","yes","yes","5","1","null","","null","","","","","","",""
"","","","","","image-keyboard-response","242","2.0.0","280414","pew3jkp1w0w","mus","raccoon","21","Female","yes","yes","5","1","427","stimuli/pictures/piano_grand_2.jpg","0","0","","true","no","sound","stimuli/sounds/phone_sound_B.wav",""
"","","","","","audio-keyboard-response","243","2.0.0","281416","pew3jkp1w0w","mus","raccoon","21","Female","yes","yes","5","1","null","stimuli/sounds/bleep.wav","null","","","","","","",""
"","","","","","html-keyboard-response","244","2.0.0","281969","pew3jkp1w0w","mus","raccoon","21","Female","yes","yes","5","1","451","<div style=""font-size:30px;"">Press space to start the trial</div>"," ","","","","","","",""
"","","","","","html-keyboard-response","245","2.0.0","282222","pew3jkp1w0w","mus","raccoon","21","Female","yes","yes","5","1","null","<div style=""font-size:60px;"">+</div>","null","","","","","","",""
"","","","","","audio-keyboard-response","246","2.0.0","282827","pew3jkp1w0w","mus","raccoon","21","Female","yes","yes","5","1","null","stimuli/sounds/piano_sound_A.wav","null","","","","","","",""
"","","","","","html-keyboard-response","247","2.0.0","283830","pew3jkp1w0w","mus","raccoon","21","Female","yes","yes","5","1","null","","null","","","","","","",""
"","","","","","image-keyboard-response","248","2.0.0","284213","pew3jkp1w0w","mus","raccoon","21","Female","yes","yes","5","1","381","stimuli/pictures/drum_bongo_1.jpg","0","0","","true","no","sound","stimuli/sounds/piano_sound_A.wav",""
"","","","","","audio-keyboard-response","249","2.0.0","285216","pew3jkp1w0w","mus","raccoon","21","Female","yes","yes","5","1","null","stimuli/sounds/bleep.wav","null","","","","","","",""
"","","","","","html-keyboard-response","250","2.0.0","286137","pew3jkp1w0w","mus","raccoon","21","Female","yes","yes","5","1","818","<div style=""font-size:30px;"">Press space to start the trial</div>"," ","","","","","","",""
"","","","","","html-keyboard-response","251","2.0.0","286388","pew3jkp1w0w","mus","raccoon","21","Female","yes","yes","5","1","null","<div style=""font-size:60px;"">+</div>","null","","","","","","",""
"","","","","","audio-keyboard-response","252","2.0.0","287014","pew3jkp1w0w","mus","raccoon","21","Female","yes","yes","5","1","null","stimuli/sounds/piano_label_A.wav","null","","","","","","",""
"","","","","","html-keyboard-response","253","2.0.0","288017","pew3jkp1w0w","mus","raccoon","21","Female","yes","yes","5","1","null","","null","","","","","","",""
"","","","","","image-keyboard-response","254","2.0.0","288417","pew3jkp1w0w","mus","raccoon","21","Female","yes","yes","5","1","399","stimuli/pictures/piano_electric_2.jpg","1","1","","true","yes","sound","stimuli/sounds/piano_label_A.wav",""
"","","","","","audio-keyboard-response","255","2.0.0","289420","pew3jkp1w0w","mus","raccoon","21","Female","yes","yes","5","1","null","stimuli/sounds/bleep.wav","null","","","","","","",""
"","","","","","html-keyboard-response","256","2.0.0","290200","pew3jkp1w0w","mus","raccoon","21","Female","yes","yes","5","1","679","<div style=""font-size:30px;"">Press space to start the trial</div>"," ","","","","","","",""
"","","","","","html-keyboard-response","257","2.0.0","290453","pew3jkp1w0w","mus","raccoon","21","Female","yes","yes","5","1","null","<div style=""font-size:60px;"">+</div>","null","","","","","","",""
"","","","","","audio-keyboard-response","258","2.0.0","291062","pew3jkp1w0w","mus","raccoon","21","Female","yes","yes","5","1","null","stimuli/sounds/piano_sound_B.wav","null","","","","","","",""
"","","","","","html-keyboard-response","259","2.0.0","292064","pew3jkp1w0w","mus","raccoon","21","Female","yes","yes","5","1","null","","null","","","","","","",""
"","","","","","image-keyboard-response","260","2.0.0","294586","pew3jkp1w0w","mus","raccoon","21","Female","yes","yes","5","1","2519","stimuli/pictures/flute_metal_2.jpg","0","0","","true","no","sound","stimuli/sounds/piano_sound_B.wav",""
"","","","","","audio-keyboard-response","261","2.0.0","295588","pew3jkp1w0w","mus","raccoon","21","Female","yes","yes","5","1","null","stimuli/sounds/bleep.wav","null","","","","","","",""
"","","","","","html-keyboard-response","262","2.0.0","296218","pew3jkp1w0w","mus","raccoon","21","Female","yes","yes","5","1","529","<div style=""font-size:30px;"">Press space to start the trial</div>"," ","","","","","","",""
"","","","","","html-keyboard-response","263","2.0.0","296471","pew3jkp1w0w","mus","raccoon","21","Female","yes","yes","5","1","null","<div style=""font-size:60px;"">+</div>","null","","","","","","",""
"","","","","","audio-keyboard-response","264","2.0.0","297072","pew3jkp1w0w","mus","raccoon","21","Female","yes","yes","5","1","null","stimuli/sounds/flute_sound_A.wav","null","","","","","","",""
"","","","","","html-keyboard-response","265","2.0.0","298074","pew3jkp1w0w","mus","raccoon","21","Female","yes","yes","5","1","null","","null","","","","","","",""
"","","","","","image-keyboard-response","266","2.0.0","298673","pew3jkp1w0w","mus","raccoon","21","Female","yes","yes","5","1","597","stimuli/pictures/flute_metal_2.jpg","1","1","","true","yes","sound","stimuli/sounds/flute_sound_A.wav",""
"","","","","","audio-keyboard-response","267","2.0.0","299676","pew3jkp1w0w","mus","raccoon","21","Female","yes","yes","5","1","null","stimuli/sounds/bleep.wav","null","","","","","","",""
"","","","","","html-keyboard-response","268","2.0.0","301681","pew3jkp1w0w","mus","raccoon","21","Female","yes","yes","5","1","1903","<p>You have completed a block. Press R when you are ready to continue</p>","r","","","","","","",""
"","","","","","html-keyboard-response","269","2.0.0","302783","pew3jkp1w0w","mus","raccoon","21","Female","yes","yes","5","1","1101","<div style=""font-size:30px;"">Press space to start the trial</div>"," ","","","","","","",""
"","","","","","html-keyboard-response","270","2.0.0","303035","pew3jkp1w0w","mus","raccoon","21","Female","yes","yes","5","1","null","<div style=""font-size:60px;"">+</div>","null","","","","","","",""
"","","","","","audio-keyboard-response","271","2.0.0","303637","pew3jkp1w0w","mus","raccoon","21","Female","yes","yes","5","1","null","stimuli/sounds/piano_label_B.wav","null","","","","","","",""
"","","","","","html-keyboard-response","272","2.0.0","304639","pew3jkp1w0w","mus","raccoon","21","Female","yes","yes","5","1","null","","null","","","","","","",""
"","","","","","image-keyboard-response","273","2.0.0","305368","pew3jkp1w0w","mus","raccoon","21","Female","yes","yes","5","1","727","stimuli/pictures/bird_song_2.jpg","0","0","","true","no","sound","stimuli/sounds/piano_label_B.wav",""
"","","","","","audio-keyboard-response","274","2.0.0","306371","pew3jkp1w0w","mus","raccoon","21","Female","yes","yes","5","1","null","stimuli/sounds/bleep.wav","null","","","","","","",""
"","","","","","html-keyboard-response","275","2.0.0","307130","pew3jkp1w0w","mus","raccoon","21","Female","yes","yes","5","1","658","<div style=""font-size:30px;"">Press space to start the trial</div>"," ","","","","","","",""
"","","","","","html-keyboard-response","276","2.0.0","307383","pew3jkp1w0w","mus","raccoon","21","Female","yes","yes","5","1","null","<div style=""font-size:60px;"">+</div>","null","","","","","","",""
"","","","","","audio-keyboard-response","277","2.0.0","307983","pew3jkp1w0w","mus","raccoon","21","Female","yes","yes","5","1","null","stimuli/sounds/flute_label_A.wav","null","","","","","","",""
"","","","","","html-keyboard-response","278","2.0.0","308986","pew3jkp1w0w","mus","raccoon","21","Female","yes","yes","5","1","null","","null","","","","","","",""
"","","","","","image-keyboard-response","279","2.0.0","309406","pew3jkp1w0w","mus","raccoon","21","Female","yes","yes","5","1","418","stimuli/pictures/piano_electric_1.jpg","0","0","","true","no","sound","stimuli/sounds/flute_label_A.wav",""
"","","","","","audio-keyboard-response","280","2.0.0","310409","pew3jkp1w0w","mus","raccoon","21","Female","yes","yes","5","1","null","stimuli/sounds/bleep.wav","null","","","","","","",""
"","","","","","html-keyboard-response","281","2.0.0","311789","pew3jkp1w0w","mus","raccoon","21","Female","yes","yes","5","1","1277","<div style=""font-size:30px;"">Press space to start the trial</div>"," ","","","","","","",""
"","","","","","html-keyboard-response","282","2.0.0","312041","pew3jkp1w0w","mus","raccoon","21","Female","yes","yes","5","1","null","<div style=""font-size:60px;"">+</div>","null","","","","","","",""
"","","","","","audio-keyboard-response","283","2.0.0","312645","pew3jkp1w0w","mus","raccoon","21","Female","yes","yes","5","1","null","stimuli/sounds/phone_sound_B.wav","null","","","","","","",""
"","","","","","html-keyboard-response","284","2.0.0","313646","pew3jkp1w0w","mus","raccoon","21","Female","yes","yes","5","1","null","","null","","","","","","",""
"","","","","","image-keyboard-response","285","2.0.0","314078","pew3jkp1w0w","mus","raccoon","21","Female","yes","yes","5","1","430","stimuli/pictures/piano_grand_1.jpg","0","0","","true","no","sound","stimuli/sounds/phone_sound_B.wav",""
"","","","","","audio-keyboard-response","286","2.0.0","315080","pew3jkp1w0w","mus","raccoon","21","Female","yes","yes","5","1","null","stimuli/sounds/bleep.wav","null","","","","","","",""
"","","","","","html-keyboard-response","287","2.0.0","315927","pew3jkp1w0w","mus","raccoon","21","Female","yes","yes","5","1","744","<div style=""font-size:30px;"">Press space to start the trial</div>"," ","","","","","","",""
"","","","","","html-keyboard-response","288","2.0.0","316179","pew3jkp1w0w","mus","raccoon","21","Female","yes","yes","5","1","null","<div style=""font-size:60px;"">+</div>","null","","","","","","",""
"","","","","","audio-keyboard-response","289","2.0.0","316788","pew3jkp1w0w","mus","raccoon","21","Female","yes","yes","5","1","null","stimuli/sounds/piano_sound_A.wav","null","","","","","","",""
"","","","","","html-keyboard-response","290","2.0.0","317791","pew3jkp1w0w","mus","raccoon","21","Female","yes","yes","5","1","null","","null","","","","","","",""
"","","","","","image-keyboard-response","291","2.0.0","318278","pew3jkp1w0w","mus","raccoon","21","Female","yes","yes","5","1","485","stimuli/pictures/piano_grand_1.jpg","0","1","","false","yes","sound","stimuli/sounds/piano_sound_A.wav",""
"","","","","","audio-keyboard-response","292","2.0.0","318475","pew3jkp1w0w","mus","raccoon","21","Female","yes","yes","5","1","197","stimuli/sounds/buzz.wav","0","","","","","","",""
"","","","","","html-keyboard-response","293","2.0.0","320549","pew3jkp1w0w","mus","raccoon","21","Female","yes","yes","5","1","1972","<div style=""font-size:30px;"">Press space to start the trial</div>"," ","","","","","","",""
"","","","","","html-keyboard-response","294","2.0.0","320801","pew3jkp1w0w","mus","raccoon","21","Female","yes","yes","5","1","null","<div style=""font-size:60px;"">+</div>","null","","","","","","",""
"","","","","","audio-keyboard-response","295","2.0.0","321401","pew3jkp1w0w","mus","raccoon","21","Female","yes","yes","5","1","null","stimuli/sounds/drum_sound_A.wav","null","","","","","","",""
"","","","","","html-keyboard-response","296","2.0.0","322404","pew3jkp1w0w","mus","raccoon","21","Female","yes","yes","5","1","null","","null","","","","","","",""
"","","","","","image-keyboard-response","297","2.0.0","322861","pew3jkp1w0w","mus","raccoon","21","Female","yes","yes","5","1","455","stimuli/pictures/drum_bongo_2.jpg","1","1","","true","no","sound","stimuli/sounds/drum_sound_A.wav",""
"","","","","","audio-keyboard-response","298","2.0.0","323864","pew3jkp1w0w","mus","raccoon","21","Female","yes","yes","5","1","null","stimuli/sounds/bleep.wav","null","","","","","","",""
"","","","","","html-keyboard-response","299","2.0.0","324899","pew3jkp1w0w","mus","raccoon","21","Female","yes","yes","5","1","934","<div style=""font-size:30px;"">Press space to start the trial</div>"," ","","","","","","",""
"","","","","","html-keyboard-response","300","2.0.0","325152","pew3jkp1w0w","mus","raccoon","21","Female","yes","yes","5","1","null","<div style=""font-size:60px;"">+</div>","null","","","","","","",""
"","","","","","audio-keyboard-response","301","2.0.0","325753","pew3jkp1w0w","mus","raccoon","21","Female","yes","yes","5","1","null","stimuli/sounds/phone_sound_A.wav","null","","","","","","",""
"","","","","","html-keyboard-response","302","2.0.0","326755","pew3jkp1w0w","mus","raccoon","21","Female","yes","yes","5","1","null","","null","","","","","","",""
"","","","","","image-keyboard-response","303","2.0.0","327175","pew3jkp1w0w","mus","raccoon","21","Female","yes","yes","5","1","418","stimuli/pictures/phone_cell_2.jpg","1","1","","true","yes","sound","stimuli/sounds/phone_sound_A.wav",""
"","","","","","audio-keyboard-response","304","2.0.0","328178","pew3jkp1w0w","mus","raccoon","21","Female","yes","yes","5","1","null","stimuli/sounds/bleep.wav","null","","","","","","",""
"","","","","","html-keyboard-response","305","2.0.0","328922","pew3jkp1w0w","mus","raccoon","21","Female","yes","yes","5","1","641","<div style=""font-size:30px;"">Press space to start the trial</div>"," ","","","","","","",""
"","","","","","html-keyboard-response","306","2.0.0","329175","pew3jkp1w0w","mus","raccoon","21","Female","yes","yes","5","1","null","<div style=""font-size:60px;"">+</div>","null","","","","","","",""
"","","","","","audio-keyboard-response","307","2.0.0","329774","pew3jkp1w0w","mus","raccoon","21","Female","yes","yes","5","1","null","stimuli/sounds/phone_sound_A.wav","null","","","","","","",""
"","","","","","html-keyboard-response","308","2.0.0","330777","pew3jkp1w0w","mus","raccoon","21","Female","yes","yes","5","1","null","","null","","","","","","",""
"","","","","","image-keyboard-response","309","2.0.0","331878","pew3jkp1w0w","mus","raccoon","21","Female","yes","yes","5","1","1099","stimuli/pictures/bird_hawk_1.jpg","0","0","","true","no","sound","stimuli/sounds/phone_sound_A.wav",""
"","","","","","audio-keyboard-response","310","2.0.0","332880","pew3jkp1w0w","mus","raccoon","21","Female","yes","yes","5","1","null","stimuli/sounds/bleep.wav","null","","","","","","",""
"","","","","","html-keyboard-response","311","2.0.0","333634","pew3jkp1w0w","mus","raccoon","21","Female","yes","yes","5","1","652","<div style=""font-size:30px;"">Press space to start the trial</div>"," ","","","","","","",""
"","","","","","html-keyboard-response","312","2.0.0","333886","pew3jkp1w0w","mus","raccoon","21","Female","yes","yes","5","1","null","<div style=""font-size:60px;"">+</div>","null","","","","","","",""
"","","","","","audio-keyboard-response","313","2.0.0","334489","pew3jkp1w0w","mus","raccoon","21","Female","yes","yes","5","1","null","stimuli/sounds/drum_sound_B.wav","null","","","","","","",""
"","","","","","html-keyboard-response","314","2.0.0","335491","pew3jkp1w0w","mus","raccoon","21","Female","yes","yes","5","1","null","","null","","","","","","",""
"","","","","","image-keyboard-response","315","2.0.0","335968","pew3jkp1w0w","mus","raccoon","21","Female","yes","yes","5","1","475","stimuli/pictures/drum_bongo_2.jpg","1","1","","true","yes","sound","stimuli/sounds/drum_sound_B.wav",""
"","","","","","audio-keyboard-response","316","2.0.0","336971","pew3jkp1w0w","mus","raccoon","21","Female","yes","yes","5","1","null","stimuli/sounds/bleep.wav","null","","","","","","",""
"","","","","","html-keyboard-response","317","2.0.0","338317","pew3jkp1w0w","mus","raccoon","21","Female","yes","yes","5","1","1244","<div style=""font-size:30px;"">Press space to start the trial</div>"," ","","","","","","",""
"","","","","","html-keyboard-response","318","2.0.0","338570","pew3jkp1w0w","mus","raccoon","21","Female","yes","yes","5","1","null","<div style=""font-size:60px;"">+</div>","null","","","","","","",""
"","","","","","audio-keyboard-response","319","2.0.0","339171","pew3jkp1w0w","mus","raccoon","21","Female","yes","yes","5","1","null","stimuli/sounds/drum_label_A.wav","null","","","","","","",""
"","","","","","html-keyboard-response","320","2.0.0","340173","pew3jkp1w0w","mus","raccoon","21","Female","yes","yes","5","1","null","","null","","","","","","",""
"","","","","","image-keyboard-response","321","2.0.0","341088","pew3jkp1w0w","mus","raccoon","21","Female","yes","yes","5","1","913","stimuli/pictures/bird_hawk_1.jpg","0","0","","true","no","sound","stimuli/sounds/drum_label_A.wav",""
"","","","","","audio-keyboard-response","322","2.0.0","342090","pew3jkp1w0w","mus","raccoon","21","Female","yes","yes","5","1","null","stimuli/sounds/bleep.wav","null","","","","","","",""
"","","","","","html-keyboard-response","323","2.0.0","343764","pew3jkp1w0w","mus","raccoon","21","Female","yes","yes","5","1","1572","<div style=""font-size:30px;"">Press space to start the trial</div>"," ","","","","","","",""
"","","","","","html-keyboard-response","324","2.0.0","344016","pew3jkp1w0w","mus","raccoon","21","Female","yes","yes","5","1","null","<div style=""font-size:60px;"">+</div>","null","","","","","","",""
"","","","","","audio-keyboard-response","325","2.0.0","344622","pew3jkp1w0w","mus","raccoon","21","Female","yes","yes","5","1","null","stimuli/sounds/piano_sound_B.wav","null","","","","","","",""
"","","","","","html-keyboard-response","326","2.0.0","345623","pew3jkp1w0w","mus","raccoon","21","Female","yes","yes","5","1","null","","null","","","","","","",""
"","","","","","image-keyboard-response","327","2.0.0","346115","pew3jkp1w0w","mus","raccoon","21","Female","yes","yes","5","1","490","stimuli/pictures/piano_electric_1.jpg","1","1","","true","yes","sound","stimuli/sounds/piano_sound_B.wav",""
"","","","","","audio-keyboard-response","328","2.0.0","347117","pew3jkp1w0w","mus","raccoon","21","Female","yes","yes","5","1","null","stimuli/sounds/bleep.wav","null","","","","","","",""
"","","","","","html-keyboard-response","329","2.0.0","347653","pew3jkp1w0w","mus","raccoon","21","Female","yes","yes","5","1","433","<div style=""font-size:30px;"">Press space to start the trial</div>"," ","","","","","","",""
"","","","","","html-keyboard-response","330","2.0.0","347905","pew3jkp1w0w","mus","raccoon","21","Female","yes","yes","5","1","null","<div style=""font-size:60px;"">+</div>","null","","","","","","",""
"","","","","","audio-keyboard-response","331","2.0.0","348504","pew3jkp1w0w","mus","raccoon","21","Female","yes","yes","5","1","null","stimuli/sounds/piano_label_B.wav","null","","","","","","",""
"","","","","","html-keyboard-response","332","2.0.0","349506","pew3jkp1w0w","mus","raccoon","21","Female","yes","yes","5","1","null","","null","","","","","","",""
"","","","","","image-keyboard-response","333","2.0.0","350038","pew3jkp1w0w","mus","raccoon","21","Female","yes","yes","5","1","531","stimuli/pictures/bird_song_1.jpg","0","0","","true","no","sound","stimuli/sounds/piano_label_B.wav",""
"","","","","","audio-keyboard-response","334","2.0.0","351041","pew3jkp1w0w","mus","raccoon","21","Female","yes","yes","5","1","null","stimuli/sounds/bleep.wav","null","","","","","","",""
"","","","","","html-keyboard-response","335","2.0.0","351681","pew3jkp1w0w","mus","raccoon","21","Female","yes","yes","5","1","539","<div style=""font-size:30px;"">Press space to start the trial</div>"," ","","","","","","",""
"","","","","","html-keyboard-response","336","2.0.0","351933","pew3jkp1w0w","mus","raccoon","21","Female","yes","yes","5","1","null","<div style=""font-size:60px;"">+</div>","null","","","","","","",""
"","","","","","audio-keyboard-response","337","2.0.0","352563","pew3jkp1w0w","mus","raccoon","21","Female","yes","yes","5","1","null","stimuli/sounds/piano_label_A.wav","null","","","","","","",""
"","","","","","html-keyboard-response","338","2.0.0","353565","pew3jkp1w0w","mus","raccoon","21","Female","yes","yes","5","1","null","","null","","","","","","",""
"","","","","","image-keyboard-response","339","2.0.0","353904","pew3jkp1w0w","mus","raccoon","21","Female","yes","yes","5","1","337","stimuli/pictures/piano_grand_1.jpg","1","1","","true","yes","sound","stimuli/sounds/piano_label_A.wav",""
"","","","","","audio-keyboard-response","340","2.0.0","354907","pew3jkp1w0w","mus","raccoon","21","Female","yes","yes","5","1","null","stimuli/sounds/bleep.wav","null","","","","","","",""
"","","","","","html-keyboard-response","341","2.0.0","355602","pew3jkp1w0w","mus","raccoon","21","Female","yes","yes","5","1","593","<div style=""font-size:30px;"">Press space to start the trial</div>"," ","","","","","","",""
"","","","","","html-keyboard-response","342","2.0.0","355855","pew3jkp1w0w","mus","raccoon","21","Female","yes","yes","5","1","null","<div style=""font-size:60px;"">+</div>","null","","","","","","",""
"","","","","","audio-keyboard-response","343","2.0.0","356456","pew3jkp1w0w","mus","raccoon","21","Female","yes","yes","5","1","null","stimuli/sounds/bird_label_B.wav","null","","","","","","",""
"","","","","","html-keyboard-response","344","2.0.0","357457","pew3jkp1w0w","mus","raccoon","21","Female","yes","yes","5","1","null","","null","","","","","","",""
"","","","","","image-keyboard-response","345","2.0.0","357904","pew3jkp1w0w","mus","raccoon","21","Female","yes","yes","5","1","445","stimuli/pictures/bird_hawk_1.jpg","0","1","","false","yes","sound","stimuli/sounds/bird_label_B.wav",""
"","","","","","audio-keyboard-response","346","2.0.0","358907","pew3jkp1w0w","mus","raccoon","21","Female","yes","yes","5","1","null","stimuli/sounds/buzz.wav","null","","","","","","",""
"","","","","","html-keyboard-response","347","2.0.0","359703","pew3jkp1w0w","mus","raccoon","21","Female","yes","yes","5","1","694","<div style=""font-size:30px;"">Press space to start the trial</div>"," ","","","","","","",""
"","","","","","html-keyboard-response","348","2.0.0","359955","pew3jkp1w0w","mus","raccoon","21","Female","yes","yes","5","1","null","<div style=""font-size:60px;"">+</div>","null","","","","","","",""
"","","","","","audio-keyboard-response","349","2.0.0","360557","pew3jkp1w0w","mus","raccoon","21","Female","yes","yes","5","1","null","stimuli/sounds/phone_sound_B.wav","null","","","","","","",""
"","","","","","html-keyboard-response","350","2.0.0","361559","pew3jkp1w0w","mus","raccoon","21","Female","yes","yes","5","1","null","","null","","","","","","",""
"","","","","","image-keyboard-response","351","2.0.0","362301","pew3jkp1w0w","mus","raccoon","21","Female","yes","yes","5","1","739","stimuli/pictures/piano_electric_1.jpg","0","0","","true","no","sound","stimuli/sounds/phone_sound_B.wav",""
"","","","","","audio-keyboard-response","352","2.0.0","363304","pew3jkp1w0w","mus","raccoon","21","Female","yes","yes","5","1","null","stimuli/sounds/bleep.wav","null","","","","","","",""
"","","","","","html-keyboard-response","353","2.0.0","363949","pew3jkp1w0w","mus","raccoon","21","Female","yes","yes","5","1","543","<div style=""font-size:30px;"">Press space to start the trial</div>"," ","","","","","","",""
"","","","","","html-keyboard-response","354","2.0.0","364201","pew3jkp1w0w","mus","raccoon","21","Female","yes","yes","5","1","null","<div style=""font-size:60px;"">+</div>","null","","","","","","",""
"","","","","","audio-keyboard-response","355","2.0.0","364802","pew3jkp1w0w","mus","raccoon","21","Female","yes","yes","5","1","null","stimuli/sounds/phone_label_A.wav","null","","","","","","",""
"","","","","","html-keyboard-response","356","2.0.0","365804","pew3jkp1w0w","mus","raccoon","21","Female","yes","yes","5","1","null","","null","","","","","","",""
"","","","","","image-keyboard-response","357","2.0.0","366466","pew3jkp1w0w","mus","raccoon","21","Female","yes","yes","5","1","660","stimuli/pictures/drum_kit_2.jpg","0","0","","true","no","sound","stimuli/sounds/phone_label_A.wav",""
"","","","","","audio-keyboard-response","358","2.0.0","367468","pew3jkp1w0w","mus","raccoon","21","Female","yes","yes","5","1","null","stimuli/sounds/bleep.wav","null","","","","","","",""
"","","","","","html-keyboard-response","359","2.0.0","368128","pew3jkp1w0w","mus","raccoon","21","Female","yes","yes","5","1","558","<div style=""font-size:30px;"">Press space to start the trial</div>"," ","","","","","","",""
"","","","","","html-keyboard-response","360","2.0.0","368381","pew3jkp1w0w","mus","raccoon","21","Female","yes","yes","5","1","null","<div style=""font-size:60px;"">+</div>","null","","","","","","",""
"","","","","","audio-keyboard-response","361","2.0.0","368983","pew3jkp1w0w","mus","raccoon","21","Female","yes","yes","5","1","null","stimuli/sounds/drum_label_A.wav","null","","","","","","",""
"","","","","","html-keyboard-response","362","2.0.0","369986","pew3jkp1w0w","mus","raccoon","21","Female","yes","yes","5","1","null","","null","","","","","","",""
"","","","","","image-keyboard-response","363","2.0.0","370500","pew3jkp1w0w","mus","raccoon","21","Female","yes","yes","5","1","512","stimuli/pictures/drum_bongo_1.jpg","1","1","","true","yes","sound","stimuli/sounds/drum_label_A.wav",""
"","","","","","audio-keyboard-response","364","2.0.0","371503","pew3jkp1w0w","mus","raccoon","21","Female","yes","yes","5","1","null","stimuli/sounds/bleep.wav","null","","","","","","",""
"","","","","","html-keyboard-response","365","2.0.0","372065","pew3jkp1w0w","mus","raccoon","21","Female","yes","yes","5","1","459","<div style=""font-size:30px;"">Press space to start the trial</div>"," ","","","","","","",""
"","","","","","html-keyboard-response","366","2.0.0","372318","pew3jkp1w0w","mus","raccoon","21","Female","yes","yes","5","1","null","<div style=""font-size:60px;"">+</div>","null","","","","","","",""
"","","","","","audio-keyboard-response","367","2.0.0","372919","pew3jkp1w0w","mus","raccoon","21","Female","yes","yes","5","1","null","stimuli/sounds/phone_label_A.wav","null","","","","","","",""
"","","","","","html-keyboard-response","368","2.0.0","373921","pew3jkp1w0w","mus","raccoon","21","Female","yes","yes","5","1","null","","null","","","","","","",""
"","","","","","image-keyboard-response","369","2.0.0","374408","pew3jkp1w0w","mus","raccoon","21","Female","yes","yes","5","1","485","stimuli/pictures/phone_cell_1.jpg","1","1","","true","yes","sound","stimuli/sounds/phone_label_A.wav",""
"","","","","","audio-keyboard-response","370","2.0.0","375411","pew3jkp1w0w","mus","raccoon","21","Female","yes","yes","5","1","null","stimuli/sounds/bleep.wav","null","","","","","","",""
"","","","","","html-keyboard-response","371","2.0.0","376152","pew3jkp1w0w","mus","raccoon","21","Female","yes","yes","5","1","639","<div style=""font-size:30px;"">Press space to start the trial</div>"," ","","","","","","",""
"","","","","","html-keyboard-response","372","2.0.0","376405","pew3jkp1w0w","mus","raccoon","21","Female","yes","yes","5","1","null","<div style=""font-size:60px;"">+</div>","null","","","","","","",""
"","","","","","audio-keyboard-response","373","2.0.0","377004","pew3jkp1w0w","mus","raccoon","21","Female","yes","yes","5","1","null","stimuli/sounds/bird_label_A.wav","null","","","","","","",""
"","","","","","html-keyboard-response","374","2.0.0","378007","pew3jkp1w0w","mus","raccoon","21","Female","yes","yes","5","1","null","","null","","","","","","",""
"","","","","","image-keyboard-response","375","2.0.0","378452","pew3jkp1w0w","mus","raccoon","21","Female","yes","yes","5","1","443","stimuli/pictures/bird_hawk_1.jpg","1","1","","true","yes","sound","stimuli/sounds/bird_label_A.wav",""
"","","","","","audio-keyboard-response","376","2.0.0","379454","pew3jkp1w0w","mus","raccoon","21","Female","yes","yes","5","1","null","stimuli/sounds/bleep.wav","null","","","","","","",""
"","","","","","html-keyboard-response","377","2.0.0","379923","pew3jkp1w0w","mus","raccoon","21","Female","yes","yes","5","1","367","<div style=""font-size:30px;"">Press space to start the trial</div>"," ","","","","","","",""
"","","","","","html-keyboard-response","378","2.0.0","380175","pew3jkp1w0w","mus","raccoon","21","Female","yes","yes","5","1","null","<div style=""font-size:60px;"">+</div>","null","","","","","","",""
"","","","","","audio-keyboard-response","379","2.0.0","380775","pew3jkp1w0w","mus","raccoon","21","Female","yes","yes","5","1","null","stimuli/sounds/flute_label_A.wav","null","","","","","","",""
"","","","","","html-keyboard-response","380","2.0.0","381777","pew3jkp1w0w","mus","raccoon","21","Female","yes","yes","5","1","null","","null","","","","","","",""
"","","","","","image-keyboard-response","381","2.0.0","382253","pew3jkp1w0w","mus","raccoon","21","Female","yes","yes","5","1","474","stimuli/pictures/piano_electric_2.jpg","0","0","","true","no","sound","stimuli/sounds/flute_label_A.wav",""
"","","","","","audio-keyboard-response","382","2.0.0","383256","pew3jkp1w0w","mus","raccoon","21","Female","yes","yes","5","1","null","stimuli/sounds/bleep.wav","null","","","","","","",""
"","","","","","html-keyboard-response","383","2.0.0","383825","pew3jkp1w0w","mus","raccoon","21","Female","yes","yes","5","1","466","<div style=""font-size:30px;"">Press space to start the trial</div>"," ","","","","","","",""
"","","","","","html-keyboard-response","384","2.0.0","384078","pew3jkp1w0w","mus","raccoon","21","Female","yes","yes","5","1","null","<div style=""font-size:60px;"">+</div>","null","","","","","","",""
"","","","","","audio-keyboard-response","385","2.0.0","384678","pew3jkp1w0w","mus","raccoon","21","Female","yes","yes","5","1","null","stimuli/sounds/bird_label_A.wav","null","","","","","","",""
"","","","","","html-keyboard-response","386","2.0.0","385681","pew3jkp1w0w","mus","raccoon","21","Female","yes","yes","5","1","null","","null","","","","","","",""
"","","","","","image-keyboard-response","387","2.0.0","386211","pew3jkp1w0w","mus","raccoon","21","Female","yes","yes","5","1","528","stimuli/pictures/bird_song_2.jpg","1","1","","true","yes","sound","stimuli/sounds/bird_label_A.wav",""
"","","","","","audio-keyboard-response","388","2.0.0","387214","pew3jkp1w0w","mus","raccoon","21","Female","yes","yes","5","1","null","stimuli/sounds/bleep.wav","null","","","","","","",""
"","","","","","html-keyboard-response","389","2.0.0","388788","pew3jkp1w0w","mus","raccoon","21","Female","yes","yes","5","1","1472","<p>You have completed a block. Press R when you are ready to continue</p>","r","","","","","","",""
"","","","","","html-keyboard-response","390","2.0.0","389530","pew3jkp1w0w","mus","raccoon","21","Female","yes","yes","5","1","742","<div style=""font-size:30px;"">Press space to start the trial</div>"," ","","","","","","",""
"","","","","","html-keyboard-response","391","2.0.0","389782","pew3jkp1w0w","mus","raccoon","21","Female","yes","yes","5","1","null","<div style=""font-size:60px;"">+</div>","null","","","","","","",""
"","","","","","audio-keyboard-response","392","2.0.0","390411","pew3jkp1w0w","mus","raccoon","21","Female","yes","yes","5","1","null","stimuli/sounds/piano_label_A.wav","null","","","","","","",""
"","","","","","html-keyboard-response","393","2.0.0","391413","pew3jkp1w0w","mus","raccoon","21","Female","yes","yes","5","1","null","","null","","","","","","",""
"","","","","","image-keyboard-response","394","2.0.0","391948","pew3jkp1w0w","mus","raccoon","21","Female","yes","yes","5","1","533","stimuli/pictures/phone_rotary_1.jpg","0","0","","true","no","sound","stimuli/sounds/piano_label_A.wav",""
"","","","","","audio-keyboard-response","395","2.0.0","392951","pew3jkp1w0w","mus","raccoon","21","Female","yes","yes","5","1","null","stimuli/sounds/bleep.wav","null","","","","","","",""
"","","","","","html-keyboard-response","396","2.0.0","393681","pew3jkp1w0w","mus","raccoon","21","Female","yes","yes","5","1","627","<div style=""font-size:30px;"">Press space to start the trial</div>"," ","","","","","","",""
"","","","","","html-keyboard-response","397","2.0.0","393933","pew3jkp1w0w","mus","raccoon","21","Female","yes","yes","5","1","null","<div style=""font-size:60px;"">+</div>","null","","","","","","",""
"","","","","","audio-keyboard-response","398","2.0.0","394561","pew3jkp1w0w","mus","raccoon","21","Female","yes","yes","5","1","null","stimuli/sounds/piano_label_A.wav","null","","","","","","",""
"","","","","","html-keyboard-response","399","2.0.0","395563","pew3jkp1w0w","mus","raccoon","21","Female","yes","yes","5","1","null","","null","","","","","","",""
"","","","","","image-keyboard-response","400","2.0.0","396000","pew3jkp1w0w","mus","raccoon","21","Female","yes","yes","5","1","435","stimuli/pictures/piano_electric_1.jpg","1","1","","true","yes","sound","stimuli/sounds/piano_label_A.wav",""
"","","","","","audio-keyboard-response","401","2.0.0","397004","pew3jkp1w0w","mus","raccoon","21","Female","yes","yes","5","1","null","stimuli/sounds/bleep.wav","null","","","","","","",""
"","","","","","html-keyboard-response","402","2.0.0","397737","pew3jkp1w0w","mus","raccoon","21","Female","yes","yes","5","1","630","<div style=""font-size:30px;"">Press space to start the trial</div>"," ","","","","","","",""
"","","","","","html-keyboard-response","403","2.0.0","397990","pew3jkp1w0w","mus","raccoon","21","Female","yes","yes","5","1","null","<div style=""font-size:60px;"">+</div>","null","","","","","","",""
"","","","","","audio-keyboard-response","404","2.0.0","398592","pew3jkp1w0w","mus","raccoon","21","Female","yes","yes","5","1","null","stimuli/sounds/drum_sound_B.wav","null","","","","","","",""
"","","","","","html-keyboard-response","405","2.0.0","399595","pew3jkp1w0w","mus","raccoon","21","Female","yes","yes","5","1","null","","null","","","","","","",""
"","","","","","image-keyboard-response","406","2.0.0","400357","pew3jkp1w0w","mus","raccoon","21","Female","yes","yes","5","1","761","stimuli/pictures/drum_kit_2.jpg","0","1","","false","no","sound","stimuli/sounds/drum_sound_B.wav",""
"","","","","","audio-keyboard-response","407","2.0.0","401361","pew3jkp1w0w","mus","raccoon","21","Female","yes","yes","5","1","null","stimuli/sounds/buzz.wav","null","","","","","","",""
"","","","","","html-keyboard-response","408","2.0.0","402165","pew3jkp1w0w","mus","raccoon","21","Female","yes","yes","5","1","703","<div style=""font-size:30px;"">Press space to start the trial</div>"," ","","","","","","",""
"","","","","","html-keyboard-response","409","2.0.0","402418","pew3jkp1w0w","mus","raccoon","21","Female","yes","yes","5","1","null","<div style=""font-size:60px;"">+</div>","null","","","","","","",""
"","","","","","audio-keyboard-response","410","2.0.0","403024","pew3jkp1w0w","mus","raccoon","21","Female","yes","yes","5","1","null","stimuli/sounds/flute_sound_B.wav","null","","","","","","",""
"","","","","","html-keyboard-response","411","2.0.0","404027","pew3jkp1w0w","mus","raccoon","21","Female","yes","yes","5","1","null","","null","","","","","","",""
"","","","","","image-keyboard-response","412","2.0.0","404850","pew3jkp1w0w","mus","raccoon","21","Female","yes","yes","5","1","821","stimuli/pictures/bird_song_2.jpg","0","0","","true","no","sound","stimuli/sounds/flute_sound_B.wav",""
"","","","","","audio-keyboard-response","413","2.0.0","405853","pew3jkp1w0w","mus","raccoon","21","Female","yes","yes","5","1","null","stimuli/sounds/bleep.wav","null","","","","","","",""
"","","","","","html-keyboard-response","414","2.0.0","406978","pew3jkp1w0w","mus","raccoon","21","Female","yes","yes","5","1","1022","<div style=""font-size:30px;"">Press space to start the trial</div>"," ","","","","","","",""
"","","","","","html-keyboard-response","415","2.0.0","407231","pew3jkp1w0w","mus","raccoon","21","Female","yes","yes","5","1","null","<div style=""font-size:60px;"">+</div>","null","","","","","","",""
"","","","","","audio-keyboard-response","416","2.0.0","407835","pew3jkp1w0w","mus","raccoon","21","Female","yes","yes","5","1","null","stimuli/sounds/drum_sound_A.wav","null","","","","","","",""
"","","","","","html-keyboard-response","417","2.0.0","408837","pew3jkp1w0w","mus","raccoon","21","Female","yes","yes","5","1","null","","null","","","","","","",""
"","","","","","image-keyboard-response","418","2.0.0","409874","pew3jkp1w0w","mus","raccoon","21","Female","yes","yes","5","1","1035","stimuli/pictures/drum_bongo_1.jpg","1","1","","true","no","sound","stimuli/sounds/drum_sound_A.wav",""
"","","","","","audio-keyboard-response","419","2.0.0","410876","pew3jkp1w0w","mus","raccoon","21","Female","yes","yes","5","1","null","stimuli/sounds/bleep.wav","null","","","","","","",""
"","","","","","html-keyboard-response","420","2.0.0","411547","pew3jkp1w0w","mus","raccoon","21","Female","yes","yes","5","1","569","<div style=""font-size:30px;"">Press space to start the trial</div>"," ","","","","","","",""
"","","","","","html-keyboard-response","421","2.0.0","411800","pew3jkp1w0w","mus","raccoon","21","Female","yes","yes","5","1","null","<div style=""font-size:60px;"">+</div>","null","","","","","","",""
"","","","","","audio-keyboard-response","422","2.0.0","412400","pew3jkp1w0w","mus","raccoon","21","Female","yes","yes","5","1","null","stimuli/sounds/bird_label_B.wav","null","","","","","","",""
"","","","","","html-keyboard-response","423","2.0.0","413402","pew3jkp1w0w","mus","raccoon","21","Female","yes","yes","5","1","null","","null","","","","","","",""
"","","","","","image-keyboard-response","424","2.0.0","414416","pew3jkp1w0w","mus","raccoon","21","Female","yes","yes","5","1","1012","stimuli/pictures/phone_cell_1.jpg","0","0","","true","no","sound","stimuli/sounds/bird_label_B.wav",""
"","","","","","audio-keyboard-response","425","2.0.0","415419","pew3jkp1w0w","mus","raccoon","21","Female","yes","yes","5","1","null","stimuli/sounds/bleep.wav","null","","","","","","",""
"","","","","","html-keyboard-response","426","2.0.0","416880","pew3jkp1w0w","mus","raccoon","21","Female","yes","yes","5","1","1359","<div style=""font-size:30px;"">Press space to start the trial</div>"," ","","","","","","",""
"","","","","","html-keyboard-response","427","2.0.0","417132","pew3jkp1w0w","mus","raccoon","21","Female","yes","yes","5","1","null","<div style=""font-size:60px;"">+</div>","null","","","","","","",""
"","","","","","audio-keyboard-response","428","2.0.0","417738","pew3jkp1w0w","mus","raccoon","21","Female","yes","yes","5","1","null","stimuli/sounds/flute_sound_B.wav","null","","","","","","",""
"","","","","","html-keyboard-response","429","2.0.0","418741","pew3jkp1w0w","mus","raccoon","21","Female","yes","yes","5","1","null","","null","","","","","","",""
"","","","","","image-keyboard-response","430","2.0.0","419287","pew3jkp1w0w","mus","raccoon","21","Female","yes","yes","5","1","545","stimuli/pictures/flute_wooden_1.jpg","1","1","","true","yes","sound","stimuli/sounds/flute_sound_B.wav",""
"","","","","","audio-keyboard-response","431","2.0.0","420290","pew3jkp1w0w","mus","raccoon","21","Female","yes","yes","5","1","null","stimuli/sounds/bleep.wav","null","","","","","","",""
"","","","","","html-keyboard-response","432","2.0.0","420964","pew3jkp1w0w","mus","raccoon","21","Female","yes","yes","5","1","572","<div style=""font-size:30px;"">Press space to start the trial</div>"," ","","","","","","",""
"","","","","","html-keyboard-response","433","2.0.0","421216","pew3jkp1w0w","mus","raccoon","21","Female","yes","yes","5","1","null","<div style=""font-size:60px;"">+</div>","null","","","","","","",""
"","","","","","audio-keyboard-response","434","2.0.0","421823","pew3jkp1w0w","mus","raccoon","21","Female","yes","yes","5","1","null","stimuli/sounds/flute_label_B.wav","null","","","","","","",""
"","","","","","html-keyboard-response","435","2.0.0","422826","pew3jkp1w0w","mus","raccoon","21","Female","yes","yes","5","1","null","","null","","","","","","",""
"","","","","","image-keyboard-response","436","2.0.0","423377","pew3jkp1w0w","mus","raccoon","21","Female","yes","yes","5","1","550","stimuli/pictures/flute_wooden_2.jpg","1","1","","true","yes","sound","stimuli/sounds/flute_label_B.wav",""
"","","","","","audio-keyboard-response","437","2.0.0","424380","pew3jkp1w0w","mus","raccoon","21","Female","yes","yes","5","1","null","stimuli/sounds/bleep.wav","null","","","","","","",""
"","","","","","html-keyboard-response","438","2.0.0","424897","pew3jkp1w0w","mus","raccoon","21","Female","yes","yes","5","1","415","<div style=""font-size:30px;"">Press space to start the trial</div>"," ","","","","","","",""
"","","","","","html-keyboard-response","439","2.0.0","425149","pew3jkp1w0w","mus","raccoon","21","Female","yes","yes","5","1","null","<div style=""font-size:60px;"">+</div>","null","","","","","","",""
"","","","","","audio-keyboard-response","440","2.0.0","425748","pew3jkp1w0w","mus","raccoon","21","Female","yes","yes","5","1","null","stimuli/sounds/phone_sound_B.wav","null","","","","","","",""
"","","","","","html-keyboard-response","441","2.0.0","426751","pew3jkp1w0w","mus","raccoon","21","Female","yes","yes","5","1","null","","null","","","","","","",""
"","","","","","image-keyboard-response","442","2.0.0","427531","pew3jkp1w0w","mus","raccoon","21","Female","yes","yes","5","1","777","stimuli/pictures/piano_electric_2.jpg","0","0","","true","no","sound","stimuli/sounds/phone_sound_B.wav",""
"","","","","","audio-keyboard-response","443","2.0.0","428534","pew3jkp1w0w","mus","raccoon","21","Female","yes","yes","5","1","null","stimuli/sounds/bleep.wav","null","","","","","","",""
"","","","","","html-keyboard-response","444","2.0.0","429169","pew3jkp1w0w","mus","raccoon","21","Female","yes","yes","5","1","534","<div style=""font-size:30px;"">Press space to start the trial</div>"," ","","","","","","",""
"","","","","","html-keyboard-response","445","2.0.0","429422","pew3jkp1w0w","mus","raccoon","21","Female","yes","yes","5","1","null","<div style=""font-size:60px;"">+</div>","null","","","","","","",""
"","","","","","audio-keyboard-response","446","2.0.0","430026","pew3jkp1w0w","mus","raccoon","21","Female","yes","yes","5","1","null","stimuli/sounds/bird_label_B.wav","null","","","","","","",""
"","","","","","html-keyboard-response","447","2.0.0","431027","pew3jkp1w0w","mus","raccoon","21","Female","yes","yes","5","1","null","","null","","","","","","",""
"","","","","","image-keyboard-response","448","2.0.0","431651","pew3jkp1w0w","mus","raccoon","21","Female","yes","yes","5","1","622","stimuli/pictures/phone_cell_2.jpg","0","0","","true","no","sound","stimuli/sounds/bird_label_B.wav",""
"","","","","","audio-keyboard-response","449","2.0.0","432653","pew3jkp1w0w","mus","raccoon","21","Female","yes","yes","5","1","null","stimuli/sounds/bleep.wav","null","","","","","","",""
"","","","","","html-keyboard-response","450","2.0.0","433369","pew3jkp1w0w","mus","raccoon","21","Female","yes","yes","5","1","613","<div style=""font-size:30px;"">Press space to start the trial</div>"," ","","","","","","",""
"","","","","","html-keyboard-response","451","2.0.0","433621","pew3jkp1w0w","mus","raccoon","21","Female","yes","yes","5","1","null","<div style=""font-size:60px;"">+</div>","null","","","","","","",""
"","","","","","audio-keyboard-response","452","2.0.0","434223","pew3jkp1w0w","mus","raccoon","21","Female","yes","yes","5","1","null","stimuli/sounds/phone_sound_B.wav","null","","","","","","",""
"","","","","","html-keyboard-response","453","2.0.0","435225","pew3jkp1w0w","mus","raccoon","21","Female","yes","yes","5","1","null","","null","","","","","","",""
"","","","","","image-keyboard-response","454","2.0.0","436384","pew3jkp1w0w","mus","raccoon","21","Female","yes","yes","5","1","1158","stimuli/pictures/phone_rotary_1.jpg","1","1","","true","yes","sound","stimuli/sounds/phone_sound_B.wav",""
"","","","","","audio-keyboard-response","455","2.0.0","437387","pew3jkp1w0w","mus","raccoon","21","Female","yes","yes","5","1","null","stimuli/sounds/bleep.wav","null","","","","","","",""
"","","","","","html-keyboard-response","456","2.0.0","438498","pew3jkp1w0w","mus","raccoon","21","Female","yes","yes","5","1","1008","<div style=""font-size:30px;"">Press space to start the trial</div>"," ","","","","","","",""
"","","","","","html-keyboard-response","457","2.0.0","438751","pew3jkp1w0w","mus","raccoon","21","Female","yes","yes","5","1","null","<div style=""font-size:60px;"">+</div>","null","","","","","","",""
"","","","","","audio-keyboard-response","458","2.0.0","439353","pew3jkp1w0w","mus","raccoon","21","Female","yes","yes","5","1","null","stimuli/sounds/piano_label_B.wav","null","","","","","","",""
"","","","","","html-keyboard-response","459","2.0.0","440355","pew3jkp1w0w","mus","raccoon","21","Female","yes","yes","5","1","null","","null","","","","","","",""
"","","","","","image-keyboard-response","460","2.0.0","441152","pew3jkp1w0w","mus","raccoon","21","Female","yes","yes","5","1","795","stimuli/pictures/bird_hawk_1.jpg","0","0","","true","no","sound","stimuli/sounds/piano_label_B.wav",""
"","","","","","audio-keyboard-response","461","2.0.0","442156","pew3jkp1w0w","mus","raccoon","21","Female","yes","yes","5","1","null","stimuli/sounds/bleep.wav","null","","","","","","",""
"","","","","","html-keyboard-response","462","2.0.0","442847","pew3jkp1w0w","mus","raccoon","21","Female","yes","yes","5","1","589","<div style=""font-size:30px;"">Press space to start the trial</div>"," ","","","","","","",""
"","","","","","html-keyboard-response","463","2.0.0","443100","pew3jkp1w0w","mus","raccoon","21","Female","yes","yes","5","1","null","<div style=""font-size:60px;"">+</div>","null","","","","","","",""
"","","","","","audio-keyboard-response","464","2.0.0","443700","pew3jkp1w0w","mus","raccoon","21","Female","yes","yes","5","1","null","stimuli/sounds/drum_label_B.wav","null","","","","","","",""
"","","","","","html-keyboard-response","465","2.0.0","444701","pew3jkp1w0w","mus","raccoon","21","Female","yes","yes","5","1","null","","null","","","","","","",""
"","","","","","image-keyboard-response","466","2.0.0","445185","pew3jkp1w0w","mus","raccoon","21","Female","yes","yes","5","1","483","stimuli/pictures/drum_kit_1.jpg","1","1","","true","yes","sound","stimuli/sounds/drum_label_B.wav",""
"","","","","","audio-keyboard-response","467","2.0.0","446188","pew3jkp1w0w","mus","raccoon","21","Female","yes","yes","5","1","null","stimuli/sounds/bleep.wav","null","","","","","","",""
"","","","","","html-keyboard-response","468","2.0.0","446886","pew3jkp1w0w","mus","raccoon","21","Female","yes","yes","5","1","595","<div style=""font-size:30px;"">Press space to start the trial</div>"," ","","","","","","",""
"","","","","","html-keyboard-response","469","2.0.0","447138","pew3jkp1w0w","mus","raccoon","21","Female","yes","yes","5","1","null","<div style=""font-size:60px;"">+</div>","null","","","","","","",""
"","","","","","audio-keyboard-response","470","2.0.0","447742","pew3jkp1w0w","mus","raccoon","21","Female","yes","yes","5","1","null","stimuli/sounds/drum_label_B.wav","null","","","","","","",""
"","","","","","html-keyboard-response","471","2.0.0","448744","pew3jkp1w0w","mus","raccoon","21","Female","yes","yes","5","1","null","","null","","","","","","",""
"","","","","","image-keyboard-response","472","2.0.0","449484","pew3jkp1w0w","mus","raccoon","21","Female","yes","yes","5","1","738","stimuli/pictures/drum_bongo_1.jpg","1","1","","true","yes","sound","stimuli/sounds/drum_label_B.wav",""
"","","","","","audio-keyboard-response","473","2.0.0","450487","pew3jkp1w0w","mus","raccoon","21","Female","yes","yes","5","1","null","stimuli/sounds/bleep.wav","null","","","","","","",""
"","","","","","html-keyboard-response","474","2.0.0","451010","pew3jkp1w0w","mus","raccoon","21","Female","yes","yes","5","1","420","<div style=""font-size:30px;"">Press space to start the trial</div>"," ","","","","","","",""
"","","","","","html-keyboard-response","475","2.0.0","451262","pew3jkp1w0w","mus","raccoon","21","Female","yes","yes","5","1","null","<div style=""font-size:60px;"">+</div>","null","","","","","","",""
"","","","","","audio-keyboard-response","476","2.0.0","451865","pew3jkp1w0w","mus","raccoon","21","Female","yes","yes","5","1","null","stimuli/sounds/drum_sound_B.wav","null","","","","","","",""
"","","","","","html-keyboard-response","477","2.0.0","452866","pew3jkp1w0w","mus","raccoon","21","Female","yes","yes","5","1","null","","null","","","","","","",""
"","","","","","image-keyboard-response","478","2.0.0","453284","pew3jkp1w0w","mus","raccoon","21","Female","yes","yes","5","1","416","stimuli/pictures/phone_rotary_1.jpg","0","0","","true","no","sound","stimuli/sounds/drum_sound_B.wav",""
"","","","","","audio-keyboard-response","479","2.0.0","454287","pew3jkp1w0w","mus","raccoon","21","Female","yes","yes","5","1","null","stimuli/sounds/bleep.wav","null","","","","","","",""
"","","","","","html-keyboard-response","480","2.0.0","454823","pew3jkp1w0w","mus","raccoon","21","Female","yes","yes","5","1","434","<div style=""font-size:30px;"">Press space to start the trial</div>"," ","","","","","","",""
"","","","","","html-keyboard-response","481","2.0.0","455076","pew3jkp1w0w","mus","raccoon","21","Female","yes","yes","5","1","null","<div style=""font-size:60px;"">+</div>","null","","","","","","",""
"","","","","","audio-keyboard-response","482","2.0.0","455678","pew3jkp1w0w","mus","raccoon","21","Female","yes","yes","5","1","null","stimuli/sounds/bird_sound_A.wav","null","","","","","","",""
"","","","","","html-keyboard-response","483","2.0.0","456680","pew3jkp1w0w","mus","raccoon","21","Female","yes","yes","5","1","null","","null","","","","","","",""
