"success","timeout","failed_images","failed_audio","failed_video","trial_type","trial_index","plugin_version","time_elapsed","random_id","condition","participant","age","gender_id","mus_exp","inst_exp","years_exp","mus_listening","rt","stimulus","response","correct_response","practice","correct","congruent","sound_type","audio","question_order"
"true","false","[]","[]","[]","preload","0","2.0.0","848","pf3abh3rob2","mus","otter","21","female","no","no","0","5","","","","","","","","","",""
"","","","","","html-keyboard-response","1","2.0.0","2403","pf3abh3rob2","mus","otter","21","female","no","no","0","5","1553","Welcome to the experiment! Press any key to begin.","n","","","","","","",""
"true","","","","","fullscreen","2","null","5440","pf3abh3rob2","mus","otter","21","female","no","no","0","5","2035","","","","","","","","",""
"","","","","","survey-text","3","2.0.0","8614","pf3abh3rob2","mus","otter","21","female","no","no","0","5","3172","","{""participant_id"":""otter""}","","","","","","",""
"","","","","","html-keyboard-response","4","2.0.0","27184","pf3abh3rob2","mus","otter","21","female","no","no","0","5","18569","
    <p> Please use headphones for the duration of the study.</p>
    <p> Within each trial, you will hear a sound and then be presented with an image in the center of your screen.</p>
    <p>Press the <b>'1'</b> key if what you hear <u>matches</u> what you see.</p>
    <p>Press the <b>'0'</b> key if what you hear <u>does not match</u> what you see.</p>
    <p>Try to respond as quickly and accurately as you can.</p>
    <p> Press any key to begin.</p>
    ","n","","","","","","",""
"","","","","","html-keyboard-response","5","2.0.0","30752","pf3abh3rob2","mus","otter","21","female","no","no","0","5","3568","
    <div style=""font-size:28px;"">
      <p>You will now complete 4 short practice trials.</p>
      <p>This is just to help you get familiar with the task.</p>
      <p>Press any key to begin.</p>
    </div>
  ","l","","","","","","",""
"","","","","","html-keyboard-response","6","2.0.0","31253","pf3abh3rob2","mus","otter","21","female","no","no","0","5","null","<div style=""font-size:60px;"">+</div>","null","","","","","","",""
"","","","","","audio-keyboard-response","7","2.0.0","31848","pf3abh3rob2","mus","otter","21","female","no","no","0","5","null","stimuli/sounds/guitar_label_A.wav","null","","","","","","",""
"","","","","","image-keyboard-response","8","2.0.0","32415","pf3abh3rob2","mus","otter","21","female","no","no","0","5","566","stimuli/pictures/guitar_acoustic_1.jpg","1","1","true","true","","","",""
"","","","","","audio-keyboard-response","9","2.0.0","33217","pf3abh3rob2","mus","otter","21","female","no","no","0","5","null","stimuli/sounds/bleep.wav","null","","","","","","",""
"","","","","","html-keyboard-response","10","2.0.0","33918","pf3abh3rob2","mus","otter","21","female","no","no","0","5","null","<p style='color:green; font-size:30px;'>Correct!</p>","null","","","","","","",""
"","","","","","html-keyboard-response","11","2.0.0","34419","pf3abh3rob2","mus","otter","21","female","no","no","0","5","null","<div style=""font-size:60px;"">+</div>","null","","","","","","",""
"","","","","","audio-keyboard-response","12","2.0.0","35019","pf3abh3rob2","mus","otter","21","female","no","no","0","5","null","stimuli/sounds/guitar_sound_B.wav","null","","","","","","",""
"","","","","","image-keyboard-response","13","2.0.0","35920","pf3abh3rob2","mus","otter","21","female","no","no","0","5","900","stimuli/pictures/guitar_acoustic_2.jpg","1","1","true","true","","","",""
"","","","","","audio-keyboard-response","14","2.0.0","36722","pf3abh3rob2","mus","otter","21","female","no","no","0","5","null","stimuli/sounds/bleep.wav","null","","","","","","",""
"","","","","","html-keyboard-response","15","2.0.0","37423","pf3abh3rob2","mus","otter","21","female","no","no","0","5","null","<p style='color:green; font-size:30px;'>Correct!</p>","null","","","","","","",""
"","","","","","html-keyboard-response","16","2.0.0","37925","pf3abh3rob2","mus","otter","21","female","no","no","0","5","null","<div style=""font-size:60px;"">+</div>","null","","","","","","",""
"","","","","","audio-keyboard-response","17","2.0.0","38530","pf3abh3rob2","mus","otter","21","female","no","no","0","5","null","stimuli/sounds/flute_sound_A.wav","null","","","","","","",""
"","","","","","image-keyboard-response","18","2.0.0","39145","pf3abh3rob2","mus","otter","21","female","no","no","0","5","615","stimuli/pictures/guitar_electric_1.jpg","0","0","true","true","","","",""
"","","","","","audio-keyboard-response","19","2.0.0","39946","pf3abh3rob2","mus","otter","21","female","no","no","0","5","null","stimuli/sounds/bleep.wav","null","","","","","","",""
"","","","","","html-keyboard-response","20","2.0.0","40648","pf3abh3rob2","mus","otter","21","female","no","no","0","5","null","<p style='color:green; font-size:30px;'>Correct!</p>","null","","","","","","",""
"","","","","","html-keyboard-response","21","2.0.0","41150","pf3abh3rob2","mus","otter","21","female","no","no","0","5","null","<div style=""font-size:60px;"">+</div>","null","","","","","","",""
"","","","","","audio-keyboard-response","22","2.0.0","41748","pf3abh3rob2","mus","otter","21","female","no","no","0","5","null","stimuli/sounds/guitar_sound_A.wav","null","","","","","","",""
"","","","","","image-keyboard-response","23","2.0.0","42980","pf3abh3rob2","mus","otter","21","female","no","no","0","5","1232","stimuli/pictures/guitar_acoustic_1.jpg","0","1","true","false","","","",""
"","","","","","audio-keyboard-response","24","2.0.0","43781","pf3abh3rob2","mus","otter","21","female","no","no","0","5","null","stimuli/sounds/buzz.wav","null","","","","","","",""
"","","","","","html-keyboard-response","25","2.0.0","44483","pf3abh3rob2","mus","otter","21","female","no","no","0","5","null","<p style='color:red; font-size:30px;'>Incorrect</p>","null","","","","","","",""
"","","","","","html-keyboard-response","26","2.0.0","48604","pf3abh3rob2","mus","otter","21","female","no","no","0","5","4121","<p>Practice complete. Press any key to begin the real experiment.</p>","m","","","","","","",""
"","","","","","html-keyboard-response","27","2.0.0","56740","pf3abh3rob2","mus","otter","21","female","no","no","0","5","8136","<div style=""font-size:30px;"">Press space to start the trial</div>"," ","","","","","","",""
"","","","","","html-keyboard-response","28","2.0.0","56991","pf3abh3rob2","mus","otter","21","female","no","no","0","5","null","<div style=""font-size:60px;"">+</div>","null","","","","","","",""
"","","","","","audio-keyboard-response","29","2.0.0","57588","pf3abh3rob2","mus","otter","21","female","no","no","0","5","null","stimuli/sounds/phone_sound_B.wav","null","","","","","","",""
"","","","","","html-keyboard-response","30","2.0.0","58590","pf3abh3rob2","mus","otter","21","female","no","no","0","5","null","","null","","","","","","",""
"","","","","","image-keyboard-response","31","2.0.0","59763","pf3abh3rob2","mus","otter","21","female","no","no","0","5","1172","stimuli/pictures/phone_cell_2.jpg","0","1","","false","no","sound","stimuli/sounds/phone_sound_B.wav",""
"","","","","","audio-keyboard-response","32","2.0.0","60764","pf3abh3rob2","mus","otter","21","female","no","no","0","5","null","stimuli/sounds/buzz.wav","null","","","","","","",""
"","","","","","html-keyboard-response","33","2.0.0","66292","pf3abh3rob2","mus","otter","21","female","no","no","0","5","5428","<div style=""font-size:30px;"">Press space to start the trial</div>"," ","","","","","","",""
"","","","","","html-keyboard-response","34","2.0.0","66544","pf3abh3rob2","mus","otter","21","female","no","no","0","5","null","<div style=""font-size:60px;"">+</div>","null","","","","","","",""
"","","","","","audio-keyboard-response","35","2.0.0","67134","pf3abh3rob2","mus","otter","21","female","no","no","0","5","null","stimuli/sounds/phone_sound_B.wav","null","","","","","","",""
"","","","","","html-keyboard-response","36","2.0.0","68136","pf3abh3rob2","mus","otter","21","female","no","no","0","5","null","","null","","","","","","",""
"","","","","","image-keyboard-response","37","2.0.0","69072","pf3abh3rob2","mus","otter","21","female","no","no","0","5","935","stimuli/pictures/piano_electric_1.jpg","0","0","","true","no","sound","stimuli/sounds/phone_sound_B.wav",""
"","","","","","audio-keyboard-response","38","2.0.0","70073","pf3abh3rob2","mus","otter","21","female","no","no","0","5","null","stimuli/sounds/bleep.wav","null","","","","","","",""
"","","","","","html-keyboard-response","39","2.0.0","71059","pf3abh3rob2","mus","otter","21","female","no","no","0","5","885","<div style=""font-size:30px;"">Press space to start the trial</div>"," ","","","","","","",""
"","","","","","html-keyboard-response","40","2.0.0","71310","pf3abh3rob2","mus","otter","21","female","no","no","0","5","null","<div style=""font-size:60px;"">+</div>","null","","","","","","",""
"","","","","","audio-keyboard-response","41","2.0.0","71904","pf3abh3rob2","mus","otter","21","female","no","no","0","5","null","stimuli/sounds/drum_sound_B.wav","null","","","","","","",""
"","","","","","html-keyboard-response","42","2.0.0","72905","pf3abh3rob2","mus","otter","21","female","no","no","0","5","null","","null","","","","","","",""
"","","","","","image-keyboard-response","43","2.0.0","73771","pf3abh3rob2","mus","otter","21","female","no","no","0","5","865","stimuli/pictures/phone_rotary_1.jpg","0","0","","true","no","sound","stimuli/sounds/drum_sound_B.wav",""
"","","","","","audio-keyboard-response","44","2.0.0","74772","pf3abh3rob2","mus","otter","21","female","no","no","0","5","null","stimuli/sounds/bleep.wav","null","","","","","","",""
"","","","","","html-keyboard-response","45","2.0.0","75334","pf3abh3rob2","mus","otter","21","female","no","no","0","5","460","<div style=""font-size:30px;"">Press space to start the trial</div>"," ","","","","","","",""
"","","","","","html-keyboard-response","46","2.0.0","75587","pf3abh3rob2","mus","otter","21","female","no","no","0","5","null","<div style=""font-size:60px;"">+</div>","null","","","","","","",""
"","","","","","audio-keyboard-response","47","2.0.0","76188","pf3abh3rob2","mus","otter","21","female","no","no","0","5","null","stimuli/sounds/piano_label_B.wav","null","","","","","","",""
"","","","","","html-keyboard-response","48","2.0.0","77190","pf3abh3rob2","mus","otter","21","female","no","no","0","5","null","","null","","","","","","",""
"","","","","","image-keyboard-response","49","2.0.0","77713","pf3abh3rob2","mus","otter","21","female","no","no","0","5","522","stimuli/pictures/bird_song_2.jpg","0","0","","true","no","sound","stimuli/sounds/piano_label_B.wav",""
"","","","","","audio-keyboard-response","50","2.0.0","78715","pf3abh3rob2","mus","otter","21","female","no","no","0","5","null","stimuli/sounds/bleep.wav","null","","","","","","",""
"","","","","","html-keyboard-response","51","2.0.0","79345","pf3abh3rob2","mus","otter","21","female","no","no","0","5","528","<div style=""font-size:30px;"">Press space to start the trial</div>"," ","","","","","","",""
"","","","","","html-keyboard-response","52","2.0.0","79596","pf3abh3rob2","mus","otter","21","female","no","no","0","5","null","<div style=""font-size:60px;"">+</div>","null","","","","","","",""
"","","","","","audio-keyboard-response","53","2.0.0","80200","pf3abh3rob2","mus","otter","21","female","no","no","0","5","null","stimuli/sounds/flute_label_B.wav","null","","","","","","",""
"","","","","","html-keyboard-response","54","2.0.0","81201","pf3abh3rob2","mus","otter","21","female","no","no","0","5","null","","null","","","","","","",""
"","","","","","image-keyboard-response","55","2.0.0","81649","pf3abh3rob2","mus","otter","21","female","no","no","0","5","447","stimuli/pictures/drum_bongo_1.jpg","0","0","","true","no","sound","stimuli/sounds/flute_label_B.wav",""
"","","","","","audio-keyboard-response","56","2.0.0","82650","pf3abh3rob2","mus","otter","21","female","no","no","0","5","null","stimuli/sounds/bleep.wav","null","","","","","","",""
"","","","","","html-keyboard-response","57","2.0.0","83215","pf3abh3rob2","mus","otter","21","female","no","no","0","5","464","<div style=""font-size:30px;"">Press space to start the trial</div>"," ","","","","","","",""
"","","","","","html-keyboard-response","58","2.0.0","83466","pf3abh3rob2","mus","otter","21","female","no","no","0","5","null","<div style=""font-size:60px;"">+</div>","null","","","","","","",""
"","","","","","audio-keyboard-response","59","2.0.0","84054","pf3abh3rob2","mus","otter","21","female","no","no","0","5","null","stimuli/sounds/bird_label_B.wav","null","","","","","","",""
"","","","","","html-keyboard-response","60","2.0.0","85056","pf3abh3rob2","mus","otter","21","female","no","no","0","5","null","","null","","","","","","",""
"","","","","","image-keyboard-response","61","2.0.0","85529","pf3abh3rob2","mus","otter","21","female","no","no","0","5","472","stimuli/pictures/bird_song_1.jpg","1","1","","true","yes","sound","stimuli/sounds/bird_label_B.wav",""
"","","","","","audio-keyboard-response","62","2.0.0","86530","pf3abh3rob2","mus","otter","21","female","no","no","0","5","null","stimuli/sounds/bleep.wav","null","","","","","","",""
"","","","","","html-keyboard-response","63","2.0.0","87100","pf3abh3rob2","mus","otter","21","female","no","no","0","5","468","<div style=""font-size:30px;"">Press space to start the trial</div>"," ","","","","","","",""
"","","","","","html-keyboard-response","64","2.0.0","87352","pf3abh3rob2","mus","otter","21","female","no","no","0","5","null","<div style=""font-size:60px;"">+</div>","null","","","","","","",""
"","","","","","audio-keyboard-response","65","2.0.0","87954","pf3abh3rob2","mus","otter","21","female","no","no","0","5","null","stimuli/sounds/flute_sound_A.wav","null","","","","","","",""
"","","","","","html-keyboard-response","66","2.0.0","88956","pf3abh3rob2","mus","otter","21","female","no","no","0","5","null","","null","","","","","","",""
"","","","","","image-keyboard-response","67","2.0.0","90281","pf3abh3rob2","mus","otter","21","female","no","no","0","5","1324","stimuli/pictures/flute_wooden_1.jpg","0","1","","false","no","sound","stimuli/sounds/flute_sound_A.wav",""
"","","","","","audio-keyboard-response","68","2.0.0","91283","pf3abh3rob2","mus","otter","21","female","no","no","0","5","null","stimuli/sounds/buzz.wav","null","","","","","","",""
"","","","","","html-keyboard-response","69","2.0.0","91777","pf3abh3rob2","mus","otter","21","female","no","no","0","5","393","<div style=""font-size:30px;"">Press space to start the trial</div>"," ","","","","","","",""
"","","","","","html-keyboard-response","70","2.0.0","92029","pf3abh3rob2","mus","otter","21","female","no","no","0","5","null","<div style=""font-size:60px;"">+</div>","null","","","","","","",""
"","","","","","audio-keyboard-response","71","2.0.0","92635","pf3abh3rob2","mus","otter","21","female","no","no","0","5","null","stimuli/sounds/flute_label_A.wav","null","","","","","","",""
"","","","","","html-keyboard-response","72","2.0.0","93635","pf3abh3rob2","mus","otter","21","female","no","no","0","5","null","","null","","","","","","",""
"","","","","","image-keyboard-response","73","2.0.0","94216","pf3abh3rob2","mus","otter","21","female","no","no","0","5","580","stimuli/pictures/piano_grand_2.jpg","0","0","","true","no","sound","stimuli/sounds/flute_label_A.wav",""
"","","","","","audio-keyboard-response","74","2.0.0","95218","pf3abh3rob2","mus","otter","21","female","no","no","0","5","null","stimuli/sounds/bleep.wav","null","","","","","","",""
"","","","","","html-keyboard-response","75","2.0.0","95898","pf3abh3rob2","mus","otter","21","female","no","no","0","5","578","<div style=""font-size:30px;"">Press space to start the trial</div>"," ","","","","","","",""
"","","","","","html-keyboard-response","76","2.0.0","96150","pf3abh3rob2","mus","otter","21","female","no","no","0","5","null","<div style=""font-size:60px;"">+</div>","null","","","","","","",""
"","","","","","audio-keyboard-response","77","2.0.0","96759","pf3abh3rob2","mus","otter","21","female","no","no","0","5","null","stimuli/sounds/piano_label_B.wav","null","","","","","","",""
"","","","","","html-keyboard-response","78","2.0.0","97761","pf3abh3rob2","mus","otter","21","female","no","no","0","5","null","","null","","","","","","",""
"","","","","","image-keyboard-response","79","2.0.0","98451","pf3abh3rob2","mus","otter","21","female","no","no","0","5","689","stimuli/pictures/bird_hawk_1.jpg","0","0","","true","no","sound","stimuli/sounds/piano_label_B.wav",""
"","","","","","audio-keyboard-response","80","2.0.0","99452","pf3abh3rob2","mus","otter","21","female","no","no","0","5","null","stimuli/sounds/bleep.wav","null","","","","","","",""
"","","","","","html-keyboard-response","81","2.0.0","99994","pf3abh3rob2","mus","otter","21","female","no","no","0","5","440","<div style=""font-size:30px;"">Press space to start the trial</div>"," ","","","","","","",""
"","","","","","html-keyboard-response","82","2.0.0","100245","pf3abh3rob2","mus","otter","21","female","no","no","0","5","null","<div style=""font-size:60px;"">+</div>","null","","","","","","",""
"","","","","","audio-keyboard-response","83","2.0.0","100839","pf3abh3rob2","mus","otter","21","female","no","no","0","5","null","stimuli/sounds/bird_label_A.wav","null","","","","","","",""
"","","","","","html-keyboard-response","84","2.0.0","101841","pf3abh3rob2","mus","otter","21","female","no","no","0","5","null","","null","","","","","","",""
"","","","","","image-keyboard-response","85","2.0.0","102231","pf3abh3rob2","mus","otter","21","female","no","no","0","5","389","stimuli/pictures/flute_metal_2.jpg","0","0","","true","no","sound","stimuli/sounds/bird_label_A.wav",""
"","","","","","audio-keyboard-response","86","2.0.0","103232","pf3abh3rob2","mus","otter","21","female","no","no","0","5","null","stimuli/sounds/bleep.wav","null","","","","","","",""
"","","","","","html-keyboard-response","87","2.0.0","103933","pf3abh3rob2","mus","otter","21","female","no","no","0","5","598","<div style=""font-size:30px;"">Press space to start the trial</div>"," ","","","","","","",""
"","","","","","html-keyboard-response","88","2.0.0","104184","pf3abh3rob2","mus","otter","21","female","no","no","0","5","null","<div style=""font-size:60px;"">+</div>","null","","","","","","",""
"","","","","","audio-keyboard-response","89","2.0.0","104784","pf3abh3rob2","mus","otter","21","female","no","no","0","5","null","stimuli/sounds/drum_sound_B.wav","null","","","","","","",""
"","","","","","html-keyboard-response","90","2.0.0","105785","pf3abh3rob2","mus","otter","21","female","no","no","0","5","null","","null","","","","","","",""
"","","","","","image-keyboard-response","91","2.0.0","106477","pf3abh3rob2","mus","otter","21","female","no","no","0","5","692","stimuli/pictures/drum_bongo_1.jpg","1","1","","true","yes","sound","stimuli/sounds/drum_sound_B.wav",""
"","","","","","audio-keyboard-response","92","2.0.0","107478","pf3abh3rob2","mus","otter","21","female","no","no","0","5","null","stimuli/sounds/bleep.wav","null","","","","","","",""
"","","","","","html-keyboard-response","93","2.0.0","107894","pf3abh3rob2","mus","otter","21","female","no","no","0","5","313","<div style=""font-size:30px;"">Press space to start the trial</div>"," ","","","","","","",""
"","","","","","html-keyboard-response","94","2.0.0","108146","pf3abh3rob2","mus","otter","21","female","no","no","0","5","null","<div style=""font-size:60px;"">+</div>","null","","","","","","",""
"","","","","","audio-keyboard-response","95","2.0.0","108759","pf3abh3rob2","mus","otter","21","female","no","no","0","5","null","stimuli/sounds/flute_label_B.wav","null","","","","","","",""
"","","","","","html-keyboard-response","96","2.0.0","109761","pf3abh3rob2","mus","otter","21","female","no","no","0","5","null","","null","","","","","","",""
"","","","","","image-keyboard-response","97","2.0.0","110198","pf3abh3rob2","mus","otter","21","female","no","no","0","5","437","stimuli/pictures/flute_metal_1.jpg","1","1","","true","yes","sound","stimuli/sounds/flute_label_B.wav",""
"","","","","","audio-keyboard-response","98","2.0.0","111200","pf3abh3rob2","mus","otter","21","female","no","no","0","5","null","stimuli/sounds/bleep.wav","null","","","","","","",""
"","","","","","html-keyboard-response","99","2.0.0","112075","pf3abh3rob2","mus","otter","21","female","no","no","0","5","773","<div style=""font-size:30px;"">Press space to start the trial</div>"," ","","","","","","",""
"","","","","","html-keyboard-response","100","2.0.0","112328","pf3abh3rob2","mus","otter","21","female","no","no","0","5","null","<div style=""font-size:60px;"">+</div>","null","","","","","","",""
"","","","","","audio-keyboard-response","101","2.0.0","112915","pf3abh3rob2","mus","otter","21","female","no","no","0","5","null","stimuli/sounds/bird_label_A.wav","null","","","","","","",""
"","","","","","html-keyboard-response","102","2.0.0","113916","pf3abh3rob2","mus","otter","21","female","no","no","0","5","null","","null","","","","","","",""
"","","","","","image-keyboard-response","103","2.0.0","114479","pf3abh3rob2","mus","otter","21","female","no","no","0","5","562","stimuli/pictures/bird_song_2.jpg","1","1","","true","yes","sound","stimuli/sounds/bird_label_A.wav",""
"","","","","","audio-keyboard-response","104","2.0.0","115480","pf3abh3rob2","mus","otter","21","female","no","no","0","5","null","stimuli/sounds/bleep.wav","null","","","","","","",""
"","","","","","html-keyboard-response","105","2.0.0","116087","pf3abh3rob2","mus","otter","21","female","no","no","0","5","505","<div style=""font-size:30px;"">Press space to start the trial</div>"," ","","","","","","",""
"","","","","","html-keyboard-response","106","2.0.0","116338","pf3abh3rob2","mus","otter","21","female","no","no","0","5","null","<div style=""font-size:60px;"">+</div>","null","","","","","","",""
"","","","","","audio-keyboard-response","107","2.0.0","116949","pf3abh3rob2","mus","otter","21","female","no","no","0","5","null","stimuli/sounds/piano_label_B.wav","null","","","","","","",""
"","","","","","html-keyboard-response","108","2.0.0","117950","pf3abh3rob2","mus","otter","21","female","no","no","0","5","null","","null","","","","","","",""
"","","","","","image-keyboard-response","109","2.0.0","118514","pf3abh3rob2","mus","otter","21","female","no","no","0","5","563","stimuli/pictures/piano_electric_2.jpg","1","1","","true","yes","sound","stimuli/sounds/piano_label_B.wav",""
"","","","","","audio-keyboard-response","110","2.0.0","119515","pf3abh3rob2","mus","otter","21","female","no","no","0","5","null","stimuli/sounds/bleep.wav","null","","","","","","",""
"","","","","","html-keyboard-response","111","2.0.0","120131","pf3abh3rob2","mus","otter","21","female","no","no","0","5","514","<div style=""font-size:30px;"">Press space to start the trial</div>"," ","","","","","","",""
"","","","","","html-keyboard-response","112","2.0.0","120383","pf3abh3rob2","mus","otter","21","female","no","no","0","5","null","<div style=""font-size:60px;"">+</div>","null","","","","","","",""
"","","","","","audio-keyboard-response","113","2.0.0","120978","pf3abh3rob2","mus","otter","21","female","no","no","0","5","null","stimuli/sounds/phone_sound_A.wav","null","","","","","","",""
"","","","","","html-keyboard-response","114","2.0.0","121979","pf3abh3rob2","mus","otter","21","female","no","no","0","5","null","","null","","","","","","",""
"","","","","","image-keyboard-response","115","2.0.0","122365","pf3abh3rob2","mus","otter","21","female","no","no","0","5","384","stimuli/pictures/phone_cell_1.jpg","1","1","","true","yes","sound","stimuli/sounds/phone_sound_A.wav",""
"","","","","","audio-keyboard-response","116","2.0.0","123367","pf3abh3rob2","mus","otter","21","female","no","no","0","5","null","stimuli/sounds/bleep.wav","null","","","","","","",""
"","","","","","html-keyboard-response","117","2.0.0","123786","pf3abh3rob2","mus","otter","21","female","no","no","0","5","318","<div style=""font-size:30px;"">Press space to start the trial</div>"," ","","","","","","",""
"","","","","","html-keyboard-response","118","2.0.0","124038","pf3abh3rob2","mus","otter","21","female","no","no","0","5","null","<div style=""font-size:60px;"">+</div>","null","","","","","","",""
"","","","","","audio-keyboard-response","119","2.0.0","124629","pf3abh3rob2","mus","otter","21","female","no","no","0","5","null","stimuli/sounds/drum_label_A.wav","null","","","","","","",""
"","","","","","html-keyboard-response","120","2.0.0","125631","pf3abh3rob2","mus","otter","21","female","no","no","0","5","null","","null","","","","","","",""
"","","","","","image-keyboard-response","121","2.0.0","126150","pf3abh3rob2","mus","otter","21","female","no","no","0","5","518","stimuli/pictures/drum_bongo_1.jpg","1","1","","true","yes","sound","stimuli/sounds/drum_label_A.wav",""
"","","","","","audio-keyboard-response","122","2.0.0","127152","pf3abh3rob2","mus","otter","21","female","no","no","0","5","null","stimuli/sounds/bleep.wav","null","","","","","","",""
"","","","","","html-keyboard-response","123","2.0.0","127927","pf3abh3rob2","mus","otter","21","female","no","no","0","5","673","<div style=""font-size:30px;"">Press space to start the trial</div>"," ","","","","","","",""
"","","","","","html-keyboard-response","124","2.0.0","128178","pf3abh3rob2","mus","otter","21","female","no","no","0","5","null","<div style=""font-size:60px;"">+</div>","null","","","","","","",""
"","","","","","audio-keyboard-response","125","2.0.0","128778","pf3abh3rob2","mus","otter","21","female","no","no","0","5","null","stimuli/sounds/phone_label_A.wav","null","","","","","","",""
"","","","","","html-keyboard-response","126","2.0.0","129780","pf3abh3rob2","mus","otter","21","female","no","no","0","5","null","","null","","","","","","",""
"","","","","","image-keyboard-response","127","2.0.0","130230","pf3abh3rob2","mus","otter","21","female","no","no","0","5","449","stimuli/pictures/phone_cell_1.jpg","1","1","","true","yes","sound","stimuli/sounds/phone_label_A.wav",""
"","","","","","audio-keyboard-response","128","2.0.0","131231","pf3abh3rob2","mus","otter","21","female","no","no","0","5","null","stimuli/sounds/bleep.wav","null","","","","","","",""
"","","","","","html-keyboard-response","129","2.0.0","131872","pf3abh3rob2","mus","otter","21","female","no","no","0","5","539","<div style=""font-size:30px;"">Press space to start the trial</div>"," ","","","","","","",""
"","","","","","html-keyboard-response","130","2.0.0","132123","pf3abh3rob2","mus","otter","21","female","no","no","0","5","null","<div style=""font-size:60px;"">+</div>","null","","","","","","",""
"","","","","","audio-keyboard-response","131","2.0.0","132744","pf3abh3rob2","mus","otter","21","female","no","no","0","5","null","stimuli/sounds/piano_label_A.wav","null","","","","","","",""
"","","","","","html-keyboard-response","132","2.0.0","133746","pf3abh3rob2","mus","otter","21","female","no","no","0","5","null","","null","","","","","","",""
"","","","","","image-keyboard-response","133","2.0.0","134462","pf3abh3rob2","mus","otter","21","female","no","no","0","5","716","stimuli/pictures/phone_rotary_2.jpg","0","0","","true","no","sound","stimuli/sounds/piano_label_A.wav",""
"","","","","","audio-keyboard-response","134","2.0.0","135464","pf3abh3rob2","mus","otter","21","female","no","no","0","5","null","stimuli/sounds/bleep.wav","null","","","","","","",""
"","","","","","html-keyboard-response","135","2.0.0","136224","pf3abh3rob2","mus","otter","21","female","no","no","0","5","658","<div style=""font-size:30px;"">Press space to start the trial</div>"," ","","","","","","",""
"","","","","","html-keyboard-response","136","2.0.0","136475","pf3abh3rob2","mus","otter","21","female","no","no","0","5","null","<div style=""font-size:60px;"">+</div>","null","","","","","","",""
"","","","","","audio-keyboard-response","137","2.0.0","137079","pf3abh3rob2","mus","otter","21","female","no","no","0","5","null","stimuli/sounds/flute_label_A.wav","null","","","","","","",""
"","","","","","html-keyboard-response","138","2.0.0","138081","pf3abh3rob2","mus","otter","21","female","no","no","0","5","null","","null","","","","","","",""
"","","","","","image-keyboard-response","139","2.0.0","138591","pf3abh3rob2","mus","otter","21","female","no","no","0","5","510","stimuli/pictures/piano_electric_1.jpg","0","0","","true","no","sound","stimuli/sounds/flute_label_A.wav",""
"","","","","","audio-keyboard-response","140","2.0.0","139592","pf3abh3rob2","mus","otter","21","female","no","no","0","5","null","stimuli/sounds/bleep.wav","null","","","","","","",""
"","","","","","html-keyboard-response","141","2.0.0","140300","pf3abh3rob2","mus","otter","21","female","no","no","0","5","606","<div style=""font-size:30px;"">Press space to start the trial</div>"," ","","","","","","",""
"","","","","","html-keyboard-response","142","2.0.0","140552","pf3abh3rob2","mus","otter","21","female","no","no","0","5","null","<div style=""font-size:60px;"">+</div>","null","","","","","","",""
"","","","","","audio-keyboard-response","143","2.0.0","141144","pf3abh3rob2","mus","otter","21","female","no","no","0","5","null","stimuli/sounds/bird_label_B.wav","null","","","","","","",""
"","","","","","html-keyboard-response","144","2.0.0","142146","pf3abh3rob2","mus","otter","21","female","no","no","0","5","null","","null","","","","","","",""
"","","","","","image-keyboard-response","145","2.0.0","142673","pf3abh3rob2","mus","otter","21","female","no","no","0","5","526","stimuli/pictures/phone_rotary_2.jpg","0","0","","true","no","sound","stimuli/sounds/bird_label_B.wav",""
"","","","","","audio-keyboard-response","146","2.0.0","143674","pf3abh3rob2","mus","otter","21","female","no","no","0","5","null","stimuli/sounds/bleep.wav","null","","","","","","",""
"","","","","","html-keyboard-response","147","2.0.0","145882","pf3abh3rob2","mus","otter","21","female","no","no","0","5","2107","<p>You have completed a block. Press R when you are ready to continue</p>","r","","","","","","",""
"","","","","","html-keyboard-response","148","2.0.0","146673","pf3abh3rob2","mus","otter","21","female","no","no","0","5","791","<div style=""font-size:30px;"">Press space to start the trial</div>"," ","","","","","","",""
"","","","","","html-keyboard-response","149","2.0.0","146925","pf3abh3rob2","mus","otter","21","female","no","no","0","5","null","<div style=""font-size:60px;"">+</div>","null","","","","","","",""
"","","","","","audio-keyboard-response","150","2.0.0","147520","pf3abh3rob2","mus","otter","21","female","no","no","0","5","null","stimuli/sounds/bird_sound_A.wav","null","","","","","","",""
"","","","","","html-keyboard-response","151","2.0.0","148520","pf3abh3rob2","mus","otter","21","female","no","no","0","5","null","","null","","","","","","",""
"","","","","","image-keyboard-response","152","2.0.0","149249","pf3abh3rob2","mus","otter","21","female","no","no","0","5","728","stimuli/pictures/bird_song_1.jpg","1","1","","true","no","sound","stimuli/sounds/bird_sound_A.wav",""
"","","","","","audio-keyboard-response","153","2.0.0","150251","pf3abh3rob2","mus","otter","21","female","no","no","0","5","null","stimuli/sounds/bleep.wav","null","","","","","","",""
"","","","","","html-keyboard-response","154","2.0.0","150775","pf3abh3rob2","mus","otter","21","female","no","no","0","5","423","<div style=""font-size:30px;"">Press space to start the trial</div>"," ","","","","","","",""
"","","","","","html-keyboard-response","155","2.0.0","151027","pf3abh3rob2","mus","otter","21","female","no","no","0","5","null","<div style=""font-size:60px;"">+</div>","null","","","","","","",""
"","","","","","audio-keyboard-response","156","2.0.0","151629","pf3abh3rob2","mus","otter","21","female","no","no","0","5","null","stimuli/sounds/flute_label_A.wav","null","","","","","","",""
"","","","","","html-keyboard-response","157","2.0.0","152631","pf3abh3rob2","mus","otter","21","female","no","no","0","5","null","","null","","","","","","",""
"","","","","","image-keyboard-response","158","2.0.0","153143","pf3abh3rob2","mus","otter","21","female","no","no","0","5","512","stimuli/pictures/flute_wooden_1.jpg","0","1","","false","yes","sound","stimuli/sounds/flute_label_A.wav",""
"","","","","","audio-keyboard-response","159","2.0.0","154144","pf3abh3rob2","mus","otter","21","female","no","no","0","5","null","stimuli/sounds/buzz.wav","null","","","","","","",""
"","","","","","html-keyboard-response","160","2.0.0","154680","pf3abh3rob2","mus","otter","21","female","no","no","0","5","435","<div style=""font-size:30px;"">Press space to start the trial</div>"," ","","","","","","",""
"","","","","","html-keyboard-response","161","2.0.0","154932","pf3abh3rob2","mus","otter","21","female","no","no","0","5","null","<div style=""font-size:60px;"">+</div>","null","","","","","","",""
"","","","","","audio-keyboard-response","162","2.0.0","155538","pf3abh3rob2","mus","otter","21","female","no","no","0","5","null","stimuli/sounds/flute_sound_B.wav","null","","","","","","",""
"","","","","","html-keyboard-response","163","2.0.0","156540","pf3abh3rob2","mus","otter","21","female","no","no","0","5","null","","null","","","","","","",""
"","","","","","image-keyboard-response","164","2.0.0","157114","pf3abh3rob2","mus","otter","21","female","no","no","0","5","574","stimuli/pictures/flute_wooden_2.jpg","1","1","","true","yes","sound","stimuli/sounds/flute_sound_B.wav",""
"","","","","","audio-keyboard-response","165","2.0.0","158116","pf3abh3rob2","mus","otter","21","female","no","no","0","5","null","stimuli/sounds/bleep.wav","null","","","","","","",""
"","","","","","html-keyboard-response","166","2.0.0","158826","pf3abh3rob2","mus","otter","21","female","no","no","0","5","609","<div style=""font-size:30px;"">Press space to start the trial</div>"," ","","","","","","",""
"","","","","","html-keyboard-response","167","2.0.0","159079","pf3abh3rob2","mus","otter","21","female","no","no","0","5","null","<div style=""font-size:60px;"">+</div>","null","","","","","","",""
"","","","","","audio-keyboard-response","168","2.0.0","159678","pf3abh3rob2","mus","otter","21","female","no","no","0","5","null","stimuli/sounds/phone_sound_B.wav","null","","","","","","",""
"","","","","","html-keyboard-response","169","2.0.0","160679","pf3abh3rob2","mus","otter","21","female","no","no","0","5","null","","null","","","","","","",""
"","","","","","image-keyboard-response","170","2.0.0","161390","pf3abh3rob2","mus","otter","21","female","no","no","0","5","711","stimuli/pictures/phone_cell_1.jpg","1","1","","true","no","sound","stimuli/sounds/phone_sound_B.wav",""
"","","","","","audio-keyboard-response","171","2.0.0","162392","pf3abh3rob2","mus","otter","21","female","no","no","0","5","null","stimuli/sounds/bleep.wav","null","","","","","","",""
"","","","","","html-keyboard-response","172","2.0.0","162818","pf3abh3rob2","mus","otter","21","female","no","no","0","5","325","<div style=""font-size:30px;"">Press space to start the trial</div>"," ","","","","","","",""
"","","","","","html-keyboard-response","173","2.0.0","163069","pf3abh3rob2","mus","otter","21","female","no","no","0","5","null","<div style=""font-size:60px;"">+</div>","null","","","","","","",""
"","","","","","audio-keyboard-response","174","2.0.0","163675","pf3abh3rob2","mus","otter","21","female","no","no","0","5","null","stimuli/sounds/flute_label_A.wav","null","","","","","","",""
"","","","","","html-keyboard-response","175","2.0.0","164676","pf3abh3rob2","mus","otter","21","female","no","no","0","5","null","","null","","","","","","",""
"","","","","","image-keyboard-response","176","2.0.0","165246","pf3abh3rob2","mus","otter","21","female","no","no","0","5","569","stimuli/pictures/piano_electric_2.jpg","0","0","","true","no","sound","stimuli/sounds/flute_label_A.wav",""
"","","","","","audio-keyboard-response","177","2.0.0","166247","pf3abh3rob2","mus","otter","21","female","no","no","0","5","null","stimuli/sounds/bleep.wav","null","","","","","","",""
"","","","","","html-keyboard-response","178","2.0.0","166663","pf3abh3rob2","mus","otter","21","female","no","no","0","5","313","<div style=""font-size:30px;"">Press space to start the trial</div>"," ","","","","","","",""
"","","","","","html-keyboard-response","179","2.0.0","166914","pf3abh3rob2","mus","otter","21","female","no","no","0","5","null","<div style=""font-size:60px;"">+</div>","null","","","","","","",""
"","","","","","audio-keyboard-response","180","2.0.0","167514","pf3abh3rob2","mus","otter","21","female","no","no","0","5","null","stimuli/sounds/drum_sound_B.wav","null","","","","","","",""
"","","","","","html-keyboard-response","181","2.0.0","168516","pf3abh3rob2","mus","otter","21","female","no","no","0","5","null","","null","","","","","","",""
"","","","","","image-keyboard-response","182","2.0.0","169298","pf3abh3rob2","mus","otter","21","female","no","no","0","5","781","stimuli/pictures/drum_kit_1.jpg","1","1","","true","no","sound","stimuli/sounds/drum_sound_B.wav",""
"","","","","","audio-keyboard-response","183","2.0.0","170299","pf3abh3rob2","mus","otter","21","female","no","no","0","5","null","stimuli/sounds/bleep.wav","null","","","","","","",""
"","","","","","html-keyboard-response","184","2.0.0","170954","pf3abh3rob2","mus","otter","21","female","no","no","0","5","553","<div style=""font-size:30px;"">Press space to start the trial</div>"," ","","","","","","",""
"","","","","","html-keyboard-response","185","2.0.0","171205","pf3abh3rob2","mus","otter","21","female","no","no","0","5","null","<div style=""font-size:60px;"">+</div>","null","","","","","","",""
"","","","","","audio-keyboard-response","186","2.0.0","171804","pf3abh3rob2","mus","otter","21","female","no","no","0","5","null","stimuli/sounds/drum_sound_A.wav","null","","","","","","",""
"","","","","","html-keyboard-response","187","2.0.0","172805","pf3abh3rob2","mus","otter","21","female","no","no","0","5","null","","null","","","","","","",""
"","","","","","image-keyboard-response","188","2.0.0","173572","pf3abh3rob2","mus","otter","21","female","no","no","0","5","766","stimuli/pictures/drum_bongo_1.jpg","1","1","","true","no","sound","stimuli/sounds/drum_sound_A.wav",""
"","","","","","audio-keyboard-response","189","2.0.0","174574","pf3abh3rob2","mus","otter","21","female","no","no","0","5","null","stimuli/sounds/bleep.wav","null","","","","","","",""
"","","","","","html-keyboard-response","190","2.0.0","175910","pf3abh3rob2","mus","otter","21","female","no","no","0","5","1235","<div style=""font-size:30px;"">Press space to start the trial</div>"," ","","","","","","",""
"","","","","","html-keyboard-response","191","2.0.0","176161","pf3abh3rob2","mus","otter","21","female","no","no","0","5","null","<div style=""font-size:60px;"">+</div>","null","","","","","","",""
"","","","","","audio-keyboard-response","192","2.0.0","176769","pf3abh3rob2","mus","otter","21","female","no","no","0","5","null","stimuli/sounds/piano_sound_B.wav","null","","","","","","",""
"","","","","","html-keyboard-response","193","2.0.0","177771","pf3abh3rob2","mus","otter","21","female","no","no","0","5","null","","null","","","","","","",""
"","","","","","image-keyboard-response","194","2.0.0","178488","pf3abh3rob2","mus","otter","21","female","no","no","0","5","716","stimuli/pictures/piano_electric_1.jpg","1","1","","true","yes","sound","stimuli/sounds/piano_sound_B.wav",""
"","","","","","audio-keyboard-response","195","2.0.0","179489","pf3abh3rob2","mus","otter","21","female","no","no","0","5","null","stimuli/sounds/bleep.wav","null","","","","","","",""
"","","","","","html-keyboard-response","196","2.0.0","179916","pf3abh3rob2","mus","otter","21","female","no","no","0","5","326","<div style=""font-size:30px;"">Press space to start the trial</div>"," ","","","","","","",""
"","","","","","html-keyboard-response","197","2.0.0","180168","pf3abh3rob2","mus","otter","21","female","no","no","0","5","null","<div style=""font-size:60px;"">+</div>","null","","","","","","",""
"","","","","","audio-keyboard-response","198","2.0.0","180768","pf3abh3rob2","mus","otter","21","female","no","no","0","5","null","stimuli/sounds/phone_sound_A.wav","null","","","","","","",""
"","","","","","html-keyboard-response","199","2.0.0","181770","pf3abh3rob2","mus","otter","21","female","no","no","0","5","null","","null","","","","","","",""
"","","","","","image-keyboard-response","200","2.0.0","182594","pf3abh3rob2","mus","otter","21","female","no","no","0","5","824","stimuli/pictures/bird_song_1.jpg","0","0","","true","no","sound","stimuli/sounds/phone_sound_A.wav",""
"","","","","","audio-keyboard-response","201","2.0.0","183596","pf3abh3rob2","mus","otter","21","female","no","no","0","5","null","stimuli/sounds/bleep.wav","null","","","","","","",""
"","","","","","html-keyboard-response","202","2.0.0","183972","pf3abh3rob2","mus","otter","21","female","no","no","0","5","275","<div style=""font-size:30px;"">Press space to start the trial</div>"," ","","","","","","",""
"","","","","","html-keyboard-response","203","2.0.0","184223","pf3abh3rob2","mus","otter","21","female","no","no","0","5","null","<div style=""font-size:60px;"">+</div>","null","","","","","","",""
"","","","","","audio-keyboard-response","204","2.0.0","184818","pf3abh3rob2","mus","otter","21","female","no","no","0","5","null","stimuli/sounds/drum_sound_B.wav","null","","","","","","",""
"","","","","","html-keyboard-response","205","2.0.0","185820","pf3abh3rob2","mus","otter","21","female","no","no","0","5","null","","null","","","","","","",""
"","","","","","image-keyboard-response","206","2.0.0","186231","pf3abh3rob2","mus","otter","21","female","no","no","0","5","410","stimuli/pictures/drum_bongo_2.jpg","1","1","","true","yes","sound","stimuli/sounds/drum_sound_B.wav",""
"","","","","","audio-keyboard-response","207","2.0.0","187232","pf3abh3rob2","mus","otter","21","female","no","no","0","5","null","stimuli/sounds/bleep.wav","null","","","","","","",""
"","","","","","html-keyboard-response","208","2.0.0","187782","pf3abh3rob2","mus","otter","21","female","no","no","0","5","448","<div style=""font-size:30px;"">Press space to start the trial</div>"," ","","","","","","",""
"","","","","","html-keyboard-response","209","2.0.0","188034","pf3abh3rob2","mus","otter","21","female","no","no","0","5","null","<div style=""font-size:60px;"">+</div>","null","","","","","","",""
"","","","","","audio-keyboard-response","210","2.0.0","188634","pf3abh3rob2","mus","otter","21","female","no","no","0","5","null","stimuli/sounds/bird_label_A.wav","null","","","","","","",""
"","","","","","html-keyboard-response","211","2.0.0","189636","pf3abh3rob2","mus","otter","21","female","no","no","0","5","null","","null","","","","","","",""
"","","","","","image-keyboard-response","212","2.0.0","190185","pf3abh3rob2","mus","otter","21","female","no","no","0","5","549","stimuli/pictures/flute_wooden_2.jpg","0","0","","true","no","sound","stimuli/sounds/bird_label_A.wav",""
"","","","","","audio-keyboard-response","213","2.0.0","191188","pf3abh3rob2","mus","otter","21","female","no","no","0","5","null","stimuli/sounds/bleep.wav","null","","","","","","",""
"","","","","","html-keyboard-response","214","2.0.0","191808","pf3abh3rob2","mus","otter","21","female","no","no","0","5","519","<div style=""font-size:30px;"">Press space to start the trial</div>"," ","","","","","","",""
"","","","","","html-keyboard-response","215","2.0.0","192059","pf3abh3rob2","mus","otter","21","female","no","no","0","5","null","<div style=""font-size:60px;"">+</div>","null","","","","","","",""
"","","","","","audio-keyboard-response","216","2.0.0","192654","pf3abh3rob2","mus","otter","21","female","no","no","0","5","null","stimuli/sounds/bird_sound_A.wav","null","","","","","","",""
"","","","","","html-keyboard-response","217","2.0.0","193655","pf3abh3rob2","mus","otter","21","female","no","no","0","5","null","","null","","","","","","",""
"","","","","","image-keyboard-response","218","2.0.0","194080","pf3abh3rob2","mus","otter","21","female","no","no","0","5","424","stimuli/pictures/piano_grand_2.jpg","0","0","","true","no","sound","stimuli/sounds/bird_sound_A.wav",""
"","","","","","audio-keyboard-response","219","2.0.0","195082","pf3abh3rob2","mus","otter","21","female","no","no","0","5","null","stimuli/sounds/bleep.wav","null","","","","","","",""
"","","","","","html-keyboard-response","220","2.0.0","195573","pf3abh3rob2","mus","otter","21","female","no","no","0","5","389","<div style=""font-size:30px;"">Press space to start the trial</div>"," ","","","","","","",""
"","","","","","html-keyboard-response","221","2.0.0","195824","pf3abh3rob2","mus","otter","21","female","no","no","0","5","null","<div style=""font-size:60px;"">+</div>","null","","","","","","",""
"","","","","","audio-keyboard-response","222","2.0.0","196419","pf3abh3rob2","mus","otter","21","female","no","no","0","5","null","stimuli/sounds/drum_label_A.wav","null","","","","","","",""
"","","","","","html-keyboard-response","223","2.0.0","197420","pf3abh3rob2","mus","otter","21","female","no","no","0","5","null","","null","","","","","","",""
"","","","","","image-keyboard-response","224","2.0.0","197986","pf3abh3rob2","mus","otter","21","female","no","no","0","5","565","stimuli/pictures/bird_song_1.jpg","0","0","","true","no","sound","stimuli/sounds/drum_label_A.wav",""
"","","","","","audio-keyboard-response","225","2.0.0","198988","pf3abh3rob2","mus","otter","21","female","no","no","0","5","null","stimuli/sounds/bleep.wav","null","","","","","","",""
"","","","","","html-keyboard-response","226","2.0.0","199488","pf3abh3rob2","mus","otter","21","female","no","no","0","5","399","<div style=""font-size:30px;"">Press space to start the trial</div>"," ","","","","","","",""
"","","","","","html-keyboard-response","227","2.0.0","199740","pf3abh3rob2","mus","otter","21","female","no","no","0","5","null","<div style=""font-size:60px;"">+</div>","null","","","","","","",""
"","","","","","audio-keyboard-response","228","2.0.0","200349","pf3abh3rob2","mus","otter","21","female","no","no","0","5","null","stimuli/sounds/flute_label_A.wav","null","","","","","","",""
"","","","","","html-keyboard-response","229","2.0.0","201351","pf3abh3rob2","mus","otter","21","female","no","no","0","5","null","","null","","","","","","",""
"","","","","","image-keyboard-response","230","2.0.0","201776","pf3abh3rob2","mus","otter","21","female","no","no","0","5","425","stimuli/pictures/piano_grand_1.jpg","0","0","","true","no","sound","stimuli/sounds/flute_label_A.wav",""
"","","","","","audio-keyboard-response","231","2.0.0","202777","pf3abh3rob2","mus","otter","21","female","no","no","0","5","null","stimuli/sounds/bleep.wav","null","","","","","","",""
"","","","","","html-keyboard-response","232","2.0.0","203338","pf3abh3rob2","mus","otter","21","female","no","no","0","5","459","<div style=""font-size:30px;"">Press space to start the trial</div>"," ","","","","","","",""
"","","","","","html-keyboard-response","233","2.0.0","203589","pf3abh3rob2","mus","otter","21","female","no","no","0","5","null","<div style=""font-size:60px;"">+</div>","null","","","","","","",""
"","","","","","audio-keyboard-response","234","2.0.0","204219","pf3abh3rob2","mus","otter","21","female","no","no","0","5","null","stimuli/sounds/piano_label_A.wav","null","","","","","","",""
"","","","","","html-keyboard-response","235","2.0.0","205220","pf3abh3rob2","mus","otter","21","female","no","no","0","5","null","","null","","","","","","",""
"","","","","","image-keyboard-response","236","2.0.0","205722","pf3abh3rob2","mus","otter","21","female","no","no","0","5","501","stimuli/pictures/phone_cell_1.jpg","0","0","","true","no","sound","stimuli/sounds/piano_label_A.wav",""
"","","","","","audio-keyboard-response","237","2.0.0","206723","pf3abh3rob2","mus","otter","21","female","no","no","0","5","null","stimuli/sounds/bleep.wav","null","","","","","","",""
"","","","","","html-keyboard-response","238","2.0.0","207313","pf3abh3rob2","mus","otter","21","female","no","no","0","5","488","<div style=""font-size:30px;"">Press space to start the trial</div>"," ","","","","","","",""
"","","","","","html-keyboard-response","239","2.0.0","207564","pf3abh3rob2","mus","otter","21","female","no","no","0","5","null","<div style=""font-size:60px;"">+</div>","null","","","","","","",""
"","","","","","audio-keyboard-response","240","2.0.0","208164","pf3abh3rob2","mus","otter","21","female","no","no","0","5","null","stimuli/sounds/drum_label_A.wav","null","","","","","","",""
"","","","","","html-keyboard-response","241","2.0.0","209165","pf3abh3rob2","mus","otter","21","female","no","no","0","5","null","","null","","","","","","",""
"","","","","","image-keyboard-response","242","2.0.0","209837","pf3abh3rob2","mus","otter","21","female","no","no","0","5","672","stimuli/pictures/drum_kit_1.jpg","1","1","","true","yes","sound","stimuli/sounds/drum_label_A.wav",""
"","","","","","audio-keyboard-response","243","2.0.0","210839","pf3abh3rob2","mus","otter","21","female","no","no","0","5","null","stimuli/sounds/bleep.wav","null","","","","","","",""
"","","","","","html-keyboard-response","244","2.0.0","211253","pf3abh3rob2","mus","otter","21","female","no","no","0","5","314","<div style=""font-size:30px;"">Press space to start the trial</div>"," ","","","","","","",""
"","","","","","html-keyboard-response","245","2.0.0","211505","pf3abh3rob2","mus","otter","21","female","no","no","0","5","null","<div style=""font-size:60px;"">+</div>","null","","","","","","",""
"","","","","","audio-keyboard-response","246","2.0.0","212094","pf3abh3rob2","mus","otter","21","female","no","no","0","5","null","stimuli/sounds/drum_sound_A.wav","null","","","","","","",""
"","","","","","html-keyboard-response","247","2.0.0","213096","pf3abh3rob2","mus","otter","21","female","no","no","0","5","null","","null","","","","","","",""
"","","","","","image-keyboard-response","248","2.0.0","213682","pf3abh3rob2","mus","otter","21","female","no","no","0","5","585","stimuli/pictures/flute_wooden_1.jpg","0","0","","true","no","sound","stimuli/sounds/drum_sound_A.wav",""
"","","","","","audio-keyboard-response","249","2.0.0","214684","pf3abh3rob2","mus","otter","21","female","no","no","0","5","null","stimuli/sounds/bleep.wav","null","","","","","","",""
"","","","","","html-keyboard-response","250","2.0.0","215195","pf3abh3rob2","mus","otter","21","female","no","no","0","5","410","<div style=""font-size:30px;"">Press space to start the trial</div>"," ","","","","","","",""
"","","","","","html-keyboard-response","251","2.0.0","215446","pf3abh3rob2","mus","otter","21","female","no","no","0","5","null","<div style=""font-size:60px;"">+</div>","null","","","","","","",""
"","","","","","audio-keyboard-response","252","2.0.0","216039","pf3abh3rob2","mus","otter","21","female","no","no","0","5","null","stimuli/sounds/bird_sound_B.wav","null","","","","","","",""
"","","","","","html-keyboard-response","253","2.0.0","217040","pf3abh3rob2","mus","otter","21","female","no","no","0","5","null","","null","","","","","","",""
"","","","","","image-keyboard-response","254","2.0.0","217504","pf3abh3rob2","mus","otter","21","female","no","no","0","5","463","stimuli/pictures/drum_bongo_1.jpg","0","0","","true","no","sound","stimuli/sounds/bird_sound_B.wav",""
"","","","","","audio-keyboard-response","255","2.0.0","218505","pf3abh3rob2","mus","otter","21","female","no","no","0","5","null","stimuli/sounds/bleep.wav","null","","","","","","",""
"","","","","","html-keyboard-response","256","2.0.0","219004","pf3abh3rob2","mus","otter","21","female","no","no","0","5","397","<div style=""font-size:30px;"">Press space to start the trial</div>"," ","","","","","","",""
"","","","","","html-keyboard-response","257","2.0.0","219255","pf3abh3rob2","mus","otter","21","female","no","no","0","5","null","<div style=""font-size:60px;"">+</div>","null","","","","","","",""
"","","","","","audio-keyboard-response","258","2.0.0","219849","pf3abh3rob2","mus","otter","21","female","no","no","0","5","null","stimuli/sounds/bird_label_A.wav","null","","","","","","",""
"","","","","","html-keyboard-response","259","2.0.0","220851","pf3abh3rob2","mus","otter","21","female","no","no","0","5","null","","null","","","","","","",""
"","","","","","image-keyboard-response","260","2.0.0","221259","pf3abh3rob2","mus","otter","21","female","no","no","0","5","408","stimuli/pictures/bird_hawk_1.jpg","1","1","","true","yes","sound","stimuli/sounds/bird_label_A.wav",""
"","","","","","audio-keyboard-response","261","2.0.0","222260","pf3abh3rob2","mus","otter","21","female","no","no","0","5","null","stimuli/sounds/bleep.wav","null","","","","","","",""
"","","","","","html-keyboard-response","262","2.0.0","222746","pf3abh3rob2","mus","otter","21","female","no","no","0","5","384","<div style=""font-size:30px;"">Press space to start the trial</div>"," ","","","","","","",""
"","","","","","html-keyboard-response","263","2.0.0","222997","pf3abh3rob2","mus","otter","21","female","no","no","0","5","null","<div style=""font-size:60px;"">+</div>","null","","","","","","",""
"","","","","","audio-keyboard-response","264","2.0.0","223584","pf3abh3rob2","mus","otter","21","female","no","no","0","5","null","stimuli/sounds/phone_label_A.wav","null","","","","","","",""
"","","","","","html-keyboard-response","265","2.0.0","224586","pf3abh3rob2","mus","otter","21","female","no","no","0","5","null","","null","","","","","","",""
"","","","","","image-keyboard-response","266","2.0.0","225220","pf3abh3rob2","mus","otter","21","female","no","no","0","5","633","stimuli/pictures/drum_kit_1.jpg","0","0","","true","no","sound","stimuli/sounds/phone_label_A.wav",""
"","","","","","audio-keyboard-response","267","2.0.0","226221","pf3abh3rob2","mus","otter","21","female","no","no","0","5","null","stimuli/sounds/bleep.wav","null","","","","","","",""
"","","","","","html-keyboard-response","268","2.0.0","227541","pf3abh3rob2","mus","otter","21","female","no","no","0","5","1218","<p>You have completed a block. Press R when you are ready to continue</p>","r","","","","","","",""
"","","","","","html-keyboard-response","269","2.0.0","228171","pf3abh3rob2","mus","otter","21","female","no","no","0","5","631","<div style=""font-size:30px;"">Press space to start the trial</div>"," ","","","","","","",""
"","","","","","html-keyboard-response","270","2.0.0","228424","pf3abh3rob2","mus","otter","21","female","no","no","0","5","null","<div style=""font-size:60px;"">+</div>","null","","","","","","",""
"","","","","","audio-keyboard-response","271","2.0.0","229029","pf3abh3rob2","mus","otter","21","female","no","no","0","5","null","stimuli/sounds/piano_sound_B.wav","null","","","","","","",""
"","","","","","html-keyboard-response","272","2.0.0","230030","pf3abh3rob2","mus","otter","21","female","no","no","0","5","null","","null","","","","","","",""
"","","","","","image-keyboard-response","273","2.0.0","230521","pf3abh3rob2","mus","otter","21","female","no","no","0","5","491","stimuli/pictures/piano_grand_2.jpg","0","1","","false","no","sound","stimuli/sounds/piano_sound_B.wav",""
"","","","","","audio-keyboard-response","274","2.0.0","231523","pf3abh3rob2","mus","otter","21","female","no","no","0","5","null","stimuli/sounds/buzz.wav","null","","","","","","",""
"","","","","","html-keyboard-response","275","2.0.0","232253","pf3abh3rob2","mus","otter","21","female","no","no","0","5","629","<div style=""font-size:30px;"">Press space to start the trial</div>"," ","","","","","","",""
"","","","","","html-keyboard-response","276","2.0.0","232504","pf3abh3rob2","mus","otter","21","female","no","no","0","5","null","<div style=""font-size:60px;"">+</div>","null","","","","","","",""
"","","","","","audio-keyboard-response","277","2.0.0","233094","pf3abh3rob2","mus","otter","21","female","no","no","0","5","null","stimuli/sounds/bird_label_A.wav","null","","","","","","",""
"","","","","","html-keyboard-response","278","2.0.0","234096","pf3abh3rob2","mus","otter","21","female","no","no","0","5","null","","null","","","","","","",""
"","","","","","image-keyboard-response","279","2.0.0","234527","pf3abh3rob2","mus","otter","21","female","no","no","0","5","431","stimuli/pictures/bird_song_1.jpg","1","1","","true","yes","sound","stimuli/sounds/bird_label_A.wav",""
"","","","","","audio-keyboard-response","280","2.0.0","235528","pf3abh3rob2","mus","otter","21","female","no","no","0","5","null","stimuli/sounds/bleep.wav","null","","","","","","",""
"","","","","","html-keyboard-response","281","2.0.0","236274","pf3abh3rob2","mus","otter","21","female","no","no","0","5","643","<div style=""font-size:30px;"">Press space to start the trial</div>"," ","","","","","","",""
"","","","","","html-keyboard-response","282","2.0.0","236526","pf3abh3rob2","mus","otter","21","female","no","no","0","5","null","<div style=""font-size:60px;"">+</div>","null","","","","","","",""
"","","","","","audio-keyboard-response","283","2.0.0","237114","pf3abh3rob2","mus","otter","21","female","no","no","0","5","null","stimuli/sounds/phone_label_A.wav","null","","","","","","",""
"","","","","","html-keyboard-response","284","2.0.0","238115","pf3abh3rob2","mus","otter","21","female","no","no","0","5","null","","null","","","","","","",""
"","","","","","image-keyboard-response","285","2.0.0","238792","pf3abh3rob2","mus","otter","21","female","no","no","0","5","676","stimuli/pictures/phone_rotary_1.jpg","1","1","","true","yes","sound","stimuli/sounds/phone_label_A.wav",""
"","","","","","audio-keyboard-response","286","2.0.0","239794","pf3abh3rob2","mus","otter","21","female","no","no","0","5","null","stimuli/sounds/bleep.wav","null","","","","","","",""
"","","","","","html-keyboard-response","287","2.0.0","240461","pf3abh3rob2","mus","otter","21","female","no","no","0","5","566","<div style=""font-size:30px;"">Press space to start the trial</div>"," ","","","","","","",""
"","","","","","html-keyboard-response","288","2.0.0","240712","pf3abh3rob2","mus","otter","21","female","no","no","0","5","null","<div style=""font-size:60px;"">+</div>","null","","","","","","",""
"","","","","","audio-keyboard-response","289","2.0.0","241308","pf3abh3rob2","mus","otter","21","female","no","no","0","5","null","stimuli/sounds/drum_sound_A.wav","null","","","","","","",""
"","","","","","html-keyboard-response","290","2.0.0","242310","pf3abh3rob2","mus","otter","21","female","no","no","0","5","null","","null","","","","","","",""
"","","","","","image-keyboard-response","291","2.0.0","242672","pf3abh3rob2","mus","otter","21","female","no","no","0","5","362","stimuli/pictures/drum_bongo_2.jpg","1","1","","true","no","sound","stimuli/sounds/drum_sound_A.wav",""
"","","","","","audio-keyboard-response","292","2.0.0","243673","pf3abh3rob2","mus","otter","21","female","no","no","0","5","null","stimuli/sounds/bleep.wav","null","","","","","","",""
"","","","","","html-keyboard-response","293","2.0.0","244219","pf3abh3rob2","mus","otter","21","female","no","no","0","5","445","<div style=""font-size:30px;"">Press space to start the trial</div>"," ","","","","","","",""
"","","","","","html-keyboard-response","294","2.0.0","244470","pf3abh3rob2","mus","otter","21","female","no","no","0","5","null","<div style=""font-size:60px;"">+</div>","null","","","","","","",""
"","","","","","audio-keyboard-response","295","2.0.0","245064","pf3abh3rob2","mus","otter","21","female","no","no","0","5","null","stimuli/sounds/drum_label_B.wav","null","","","","","","",""
"","","","","","html-keyboard-response","296","2.0.0","246066","pf3abh3rob2","mus","otter","21","female","no","no","0","5","null","","null","","","","","","",""
"","","","","","image-keyboard-response","297","2.0.0","246655","pf3abh3rob2","mus","otter","21","female","no","no","0","5","589","stimuli/pictures/drum_bongo_1.jpg","1","1","","true","yes","sound","stimuli/sounds/drum_label_B.wav",""
"","","","","","audio-keyboard-response","298","2.0.0","247657","pf3abh3rob2","mus","otter","21","female","no","no","0","5","null","stimuli/sounds/bleep.wav","null","","","","","","",""
"","","","","","html-keyboard-response","299","2.0.0","248548","pf3abh3rob2","mus","otter","21","female","no","no","0","5","789","<div style=""font-size:30px;"">Press space to start the trial</div>"," ","","","","","","",""
"","","","","","html-keyboard-response","300","2.0.0","248799","pf3abh3rob2","mus","otter","21","female","no","no","0","5","null","<div style=""font-size:60px;"">+</div>","null","","","","","","",""
"","","","","","audio-keyboard-response","301","2.0.0","249399","pf3abh3rob2","mus","otter","21","female","no","no","0","5","null","stimuli/sounds/drum_sound_B.wav","null","","","","","","",""
"","","","","","html-keyboard-response","302","2.0.0","250400","pf3abh3rob2","mus","otter","21","female","no","no","0","5","null","","null","","","","","","",""
"","","","","","image-keyboard-response","303","2.0.0","250964","pf3abh3rob2","mus","otter","21","female","no","no","0","5","564","stimuli/pictures/phone_cell_2.jpg","0","0","","true","no","sound","stimuli/sounds/drum_sound_B.wav",""
"","","","","","audio-keyboard-response","304","2.0.0","251966","pf3abh3rob2","mus","otter","21","female","no","no","0","5","null","stimuli/sounds/bleep.wav","null","","","","","","",""
"","","","","","html-keyboard-response","305","2.0.0","252581","pf3abh3rob2","mus","otter","21","female","no","no","0","5","513","<div style=""font-size:30px;"">Press space to start the trial</div>"," ","","","","","","",""
"","","","","","html-keyboard-response","306","2.0.0","252832","pf3abh3rob2","mus","otter","21","female","no","no","0","5","null","<div style=""font-size:60px;"">+</div>","null","","","","","","",""
"","","","","","audio-keyboard-response","307","2.0.0","253428","pf3abh3rob2","mus","otter","21","female","no","no","0","5","null","stimuli/sounds/bird_sound_A.wav","null","","","","","","",""
"","","","","","html-keyboard-response","308","2.0.0","254430","pf3abh3rob2","mus","otter","21","female","no","no","0","5","null","","null","","","","","","",""
"","","","","","image-keyboard-response","309","2.0.0","255232","pf3abh3rob2","mus","otter","21","female","no","no","0","5","802","stimuli/pictures/piano_grand_1.jpg","0","0","","true","no","sound","stimuli/sounds/bird_sound_A.wav",""
"","","","","","audio-keyboard-response","310","2.0.0","256234","pf3abh3rob2","mus","otter","21","female","no","no","0","5","null","stimuli/sounds/bleep.wav","null","","","","","","",""
"","","","","","html-keyboard-response","311","2.0.0","256890","pf3abh3rob2","mus","otter","21","female","no","no","0","5","554","<div style=""font-size:30px;"">Press space to start the trial</div>"," ","","","","","","",""
"","","","","","html-keyboard-response","312","2.0.0","257142","pf3abh3rob2","mus","otter","21","female","no","no","0","5","null","<div style=""font-size:60px;"">+</div>","null","","","","","","",""
"","","","","","audio-keyboard-response","313","2.0.0","257739","pf3abh3rob2","mus","otter","21","female","no","no","0","5","null","stimuli/sounds/bird_label_A.wav","null","","","","","","",""
"","","","","","html-keyboard-response","314","2.0.0","258740","pf3abh3rob2","mus","otter","21","female","no","no","0","5","null","","null","","","","","","",""
"","","","","","image-keyboard-response","315","2.0.0","259448","pf3abh3rob2","mus","otter","21","female","no","no","0","5","707","stimuli/pictures/bird_hawk_1.jpg","1","1","","true","yes","sound","stimuli/sounds/bird_label_A.wav",""
"","","","","","audio-keyboard-response","316","2.0.0","260449","pf3abh3rob2","mus","otter","21","female","no","no","0","5","null","stimuli/sounds/bleep.wav","null","","","","","","",""
"","","","","","html-keyboard-response","317","2.0.0","261220","pf3abh3rob2","mus","otter","21","female","no","no","0","5","670","<div style=""font-size:30px;"">Press space to start the trial</div>"," ","","","","","","",""
"","","","","","html-keyboard-response","318","2.0.0","261472","pf3abh3rob2","mus","otter","21","female","no","no","0","5","null","<div style=""font-size:60px;"">+</div>","null","","","","","","",""
"","","","","","audio-keyboard-response","319","2.0.0","262068","pf3abh3rob2","mus","otter","21","female","no","no","0","5","null","stimuli/sounds/bird_sound_A.wav","null","","","","","","",""
"","","","","","html-keyboard-response","320","2.0.0","263069","pf3abh3rob2","mus","otter","21","female","no","no","0","5","null","","null","","","","","","",""
"","","","","","image-keyboard-response","321","2.0.0","263613","pf3abh3rob2","mus","otter","21","female","no","no","0","5","543","stimuli/pictures/piano_electric_2.jpg","0","0","","true","no","sound","stimuli/sounds/bird_sound_A.wav",""
"","","","","","audio-keyboard-response","322","2.0.0","264615","pf3abh3rob2","mus","otter","21","female","no","no","0","5","null","stimuli/sounds/bleep.wav","null","","","","","","",""
"","","","","","html-keyboard-response","323","2.0.0","265430","pf3abh3rob2","mus","otter","21","female","no","no","0","5","714","<div style=""font-size:30px;"">Press space to start the trial</div>"," ","","","","","","",""
"","","","","","html-keyboard-response","324","2.0.0","265681","pf3abh3rob2","mus","otter","21","female","no","no","0","5","null","<div style=""font-size:60px;"">+</div>","null","","","","","","",""
"","","","","","audio-keyboard-response","325","2.0.0","266274","pf3abh3rob2","mus","otter","21","female","no","no","0","5","null","stimuli/sounds/bird_sound_B.wav","null","","","","","","",""
"","","","","","html-keyboard-response","326","2.0.0","267276","pf3abh3rob2","mus","otter","21","female","no","no","0","5","null","","null","","","","","","",""
"","","","","","image-keyboard-response","327","2.0.0","267763","pf3abh3rob2","mus","otter","21","female","no","no","0","5","487","stimuli/pictures/bird_hawk_1.jpg","1","1","","true","no","sound","stimuli/sounds/bird_sound_B.wav",""
"","","","","","audio-keyboard-response","328","2.0.0","268764","pf3abh3rob2","mus","otter","21","female","no","no","0","5","null","stimuli/sounds/bleep.wav","null","","","","","","",""
"","","","","","html-keyboard-response","329","2.0.0","269552","pf3abh3rob2","mus","otter","21","female","no","no","0","5","686","<div style=""font-size:30px;"">Press space to start the trial</div>"," ","","","","","","",""
"","","","","","html-keyboard-response","330","2.0.0","269804","pf3abh3rob2","mus","otter","21","female","no","no","0","5","null","<div style=""font-size:60px;"">+</div>","null","","","","","","",""
"","","","","","audio-keyboard-response","331","2.0.0","270408","pf3abh3rob2","mus","otter","21","female","no","no","0","5","null","stimuli/sounds/flute_sound_B.wav","null","","","","","","",""
"","","","","","html-keyboard-response","332","2.0.0","271409","pf3abh3rob2","mus","otter","21","female","no","no","0","5","null","","null","","","","","","",""
"","","","","","image-keyboard-response","333","2.0.0","272015","pf3abh3rob2","mus","otter","21","female","no","no","0","5","606","stimuli/pictures/flute_metal_2.jpg","1","1","","true","no","sound","stimuli/sounds/flute_sound_B.wav",""
"","","","","","audio-keyboard-response","334","2.0.0","273016","pf3abh3rob2","mus","otter","21","female","no","no","0","5","null","stimuli/sounds/bleep.wav","null","","","","","","",""
"","","","","","html-keyboard-response","335","2.0.0","273679","pf3abh3rob2","mus","otter","21","female","no","no","0","5","561","<div style=""font-size:30px;"">Press space to start the trial</div>"," ","","","","","","",""
"","","","","","html-keyboard-response","336","2.0.0","273930","pf3abh3rob2","mus","otter","21","female","no","no","0","5","null","<div style=""font-size:60px;"">+</div>","null","","","","","","",""
"","","","","","audio-keyboard-response","337","2.0.0","274524","pf3abh3rob2","mus","otter","21","female","no","no","0","5","null","stimuli/sounds/bird_label_A.wav","null","","","","","","",""
"","","","","","html-keyboard-response","338","2.0.0","275526","pf3abh3rob2","mus","otter","21","female","no","no","0","5","null","","null","","","","","","",""
"","","","","","image-keyboard-response","339","2.0.0","275995","pf3abh3rob2","mus","otter","21","female","no","no","0","5","468","stimuli/pictures/flute_metal_1.jpg","0","0","","true","no","sound","stimuli/sounds/bird_label_A.wav",""
"","","","","","audio-keyboard-response","340","2.0.0","276996","pf3abh3rob2","mus","otter","21","female","no","no","0","5","null","stimuli/sounds/bleep.wav","null","","","","","","",""
"","","","","","html-keyboard-response","341","2.0.0","277924","pf3abh3rob2","mus","otter","21","female","no","no","0","5","827","<div style=""font-size:30px;"">Press space to start the trial</div>"," ","","","","","","",""
"","","","","","html-keyboard-response","342","2.0.0","278176","pf3abh3rob2","mus","otter","21","female","no","no","0","5","null","<div style=""font-size:60px;"">+</div>","null","","","","","","",""
"","","","","","audio-keyboard-response","343","2.0.0","278778","pf3abh3rob2","mus","otter","21","female","no","no","0","5","null","stimuli/sounds/piano_sound_A.wav","null","","","","","","",""
"","","","","","html-keyboard-response","344","2.0.0","279779","pf3abh3rob2","mus","otter","21","female","no","no","0","5","null","","null","","","","","","",""
"","","","","","image-keyboard-response","345","2.0.0","280371","pf3abh3rob2","mus","otter","21","female","no","no","0","5","592","stimuli/pictures/drum_kit_1.jpg","0","0","","true","no","sound","stimuli/sounds/piano_sound_A.wav",""
"","","","","","audio-keyboard-response","346","2.0.0","281374","pf3abh3rob2","mus","otter","21","female","no","no","0","5","null","stimuli/sounds/bleep.wav","null","","","","","","",""
"","","","","","html-keyboard-response","347","2.0.0","281978","pf3abh3rob2","mus","otter","21","female","no","no","0","5","503","<div style=""font-size:30px;"">Press space to start the trial</div>"," ","","","","","","",""
"","","","","","html-keyboard-response","348","2.0.0","282229","pf3abh3rob2","mus","otter","21","female","no","no","0","5","null","<div style=""font-size:60px;"">+</div>","null","","","","","","",""
"","","","","","audio-keyboard-response","349","2.0.0","282834","pf3abh3rob2","mus","otter","21","female","no","no","0","5","null","stimuli/sounds/piano_sound_B.wav","null","","","","","","",""
"","","","","","html-keyboard-response","350","2.0.0","283836","pf3abh3rob2","mus","otter","21","female","no","no","0","5","null","","null","","","","","","",""
"","","","","","image-keyboard-response","351","2.0.0","284598","pf3abh3rob2","mus","otter","21","female","no","no","0","5","762","stimuli/pictures/piano_grand_1.jpg","1","1","","true","no","sound","stimuli/sounds/piano_sound_B.wav",""
"","","","","","audio-keyboard-response","352","2.0.0","285600","pf3abh3rob2","mus","otter","21","female","no","no","0","5","null","stimuli/sounds/bleep.wav","null","","","","","","",""
"","","","","","html-keyboard-response","353","2.0.0","286146","pf3abh3rob2","mus","otter","21","female","no","no","0","5","445","<div style=""font-size:30px;"">Press space to start the trial</div>"," ","","","","","","",""
"","","","","","html-keyboard-response","354","2.0.0","286398","pf3abh3rob2","mus","otter","21","female","no","no","0","5","null","<div style=""font-size:60px;"">+</div>","null","","","","","","",""
"","","","","","audio-keyboard-response","355","2.0.0","286998","pf3abh3rob2","mus","otter","21","female","no","no","0","5","null","stimuli/sounds/drum_sound_A.wav","null","","","","","","",""
"","","","","","html-keyboard-response","356","2.0.0","287999","pf3abh3rob2","mus","otter","21","female","no","no","0","5","null","","null","","","","","","",""
"","","","","","image-keyboard-response","357","2.0.0","288603","pf3abh3rob2","mus","otter","21","female","no","no","0","5","603","stimuli/pictures/flute_metal_1.jpg","0","0","","true","no","sound","stimuli/sounds/drum_sound_A.wav",""
"","","","","","audio-keyboard-response","358","2.0.0","289604","pf3abh3rob2","mus","otter","21","female","no","no","0","5","null","stimuli/sounds/bleep.wav","null","","","","","","",""
"","","","","","html-keyboard-response","359","2.0.0","290075","pf3abh3rob2","mus","otter","21","female","no","no","0","5","370","<div style=""font-size:30px;"">Press space to start the trial</div>"," ","","","","","","",""
"","","","","","html-keyboard-response","360","2.0.0","290326","pf3abh3rob2","mus","otter","21","female","no","no","0","5","null","<div style=""font-size:60px;"">+</div>","null","","","","","","",""
"","","","","","audio-keyboard-response","361","2.0.0","290919","pf3abh3rob2","mus","otter","21","female","no","no","0","5","null","stimuli/sounds/phone_sound_A.wav","null","","","","","","",""
"","","","","","html-keyboard-response","362","2.0.0","291920","pf3abh3rob2","mus","otter","21","female","no","no","0","5","null","","null","","","","","","",""
"","","","","","image-keyboard-response","363","2.0.0","292654","pf3abh3rob2","mus","otter","21","female","no","no","0","5","734","stimuli/pictures/phone_rotary_1.jpg","1","1","","true","no","sound","stimuli/sounds/phone_sound_A.wav",""
"","","","","","audio-keyboard-response","364","2.0.0","293656","pf3abh3rob2","mus","otter","21","female","no","no","0","5","null","stimuli/sounds/bleep.wav","null","","","","","","",""
"","","","","","html-keyboard-response","365","2.0.0","294421","pf3abh3rob2","mus","otter","21","female","no","no","0","5","664","<div style=""font-size:30px;"">Press space to start the trial</div>"," ","","","","","","",""
"","","","","","html-keyboard-response","366","2.0.0","294673","pf3abh3rob2","mus","otter","21","female","no","no","0","5","null","<div style=""font-size:60px;"">+</div>","null","","","","","","",""
"","","","","","audio-keyboard-response","367","2.0.0","295269","pf3abh3rob2","mus","otter","21","female","no","no","0","5","null","stimuli/sounds/drum_label_B.wav","null","","","","","","",""
"","","","","","html-keyboard-response","368","2.0.0","296270","pf3abh3rob2","mus","otter","21","female","no","no","0","5","null","","null","","","","","","",""
"","","","","","image-keyboard-response","369","2.0.0","296870","pf3abh3rob2","mus","otter","21","female","no","no","0","5","599","stimuli/pictures/piano_grand_2.jpg","0","0","","true","no","sound","stimuli/sounds/drum_label_B.wav",""
"","","","","","audio-keyboard-response","370","2.0.0","297872","pf3abh3rob2","mus","otter","21","female","no","no","0","5","null","stimuli/sounds/bleep.wav","null","","","","","","",""
"","","","","","html-keyboard-response","371","2.0.0","298457","pf3abh3rob2","mus","otter","21","female","no","no","0","5","484","<div style=""font-size:30px;"">Press space to start the trial</div>"," ","","","","","","",""
"","","","","","html-keyboard-response","372","2.0.0","298709","pf3abh3rob2","mus","otter","21","female","no","no","0","5","null","<div style=""font-size:60px;"">+</div>","null","","","","","","",""
"","","","","","audio-keyboard-response","373","2.0.0","299319","pf3abh3rob2","mus","otter","21","female","no","no","0","5","null","stimuli/sounds/flute_sound_B.wav","null","","","","","","",""
"","","","","","html-keyboard-response","374","2.0.0","300320","pf3abh3rob2","mus","otter","21","female","no","no","0","5","null","","null","","","","","","",""
"","","","","","image-keyboard-response","375","2.0.0","301037","pf3abh3rob2","mus","otter","21","female","no","no","0","5","716","stimuli/pictures/bird_song_2.jpg","0","0","","true","no","sound","stimuli/sounds/flute_sound_B.wav",""
"","","","","","audio-keyboard-response","376","2.0.0","302038","pf3abh3rob2","mus","otter","21","female","no","no","0","5","null","stimuli/sounds/bleep.wav","null","","","","","","",""
"","","","","","html-keyboard-response","377","2.0.0","302753","pf3abh3rob2","mus","otter","21","female","no","no","0","5","614","<div style=""font-size:30px;"">Press space to start the trial</div>"," ","","","","","","",""
"","","","","","html-keyboard-response","378","2.0.0","303004","pf3abh3rob2","mus","otter","21","female","no","no","0","5","null","<div style=""font-size:60px;"">+</div>","null","","","","","","",""
"","","","","","audio-keyboard-response","379","2.0.0","303594","pf3abh3rob2","mus","otter","21","female","no","no","0","5","null","stimuli/sounds/phone_sound_B.wav","null","","","","","","",""
"","","","","","html-keyboard-response","380","2.0.0","304595","pf3abh3rob2","mus","otter","21","female","no","no","0","5","null","","null","","","","","","",""
"","","","","","image-keyboard-response","381","2.0.0","305302","pf3abh3rob2","mus","otter","21","female","no","no","0","5","707","stimuli/pictures/piano_electric_2.jpg","0","0","","true","no","sound","stimuli/sounds/phone_sound_B.wav",""
"","","","","","audio-keyboard-response","382","2.0.0","306304","pf3abh3rob2","mus","otter","21","female","no","no","0","5","null","stimuli/sounds/bleep.wav","null","","","","","","",""
"","","","","","html-keyboard-response","383","2.0.0","306643","pf3abh3rob2","mus","otter","21","female","no","no","0","5","238","<div style=""font-size:30px;"">Press space to start the trial</div>"," ","","","","","","",""
"","","","","","html-keyboard-response","384","2.0.0","306895","pf3abh3rob2","mus","otter","21","female","no","no","0","5","null","<div style=""font-size:60px;"">+</div>","null","","","","","","",""
"","","","","","audio-keyboard-response","385","2.0.0","307509","pf3abh3rob2","mus","otter","21","female","no","no","0","5","null","stimuli/sounds/flute_label_B.wav","null","","","","","","",""
"","","","","","html-keyboard-response","386","2.0.0","308511","pf3abh3rob2","mus","otter","21","female","no","no","0","5","null","","null","","","","","","",""
"","","","","","image-keyboard-response","387","2.0.0","309038","pf3abh3rob2","mus","otter","21","female","no","no","0","5","527","stimuli/pictures/drum_kit_2.jpg","0","0","","true","no","sound","stimuli/sounds/flute_label_B.wav",""
"","","","","","audio-keyboard-response","388","2.0.0","310040","pf3abh3rob2","mus","otter","21","female","no","no","0","5","null","stimuli/sounds/bleep.wav","null","","","","","","",""
"","","","","","html-keyboard-response","389","2.0.0","311482","pf3abh3rob2","mus","otter","21","female","no","no","0","5","1341","<p>You have completed a block. Press R when you are ready to continue</p>","r","","","","","","",""
"","","","","","html-keyboard-response","390","2.0.0","312046","pf3abh3rob2","mus","otter","21","female","no","no","0","5","564","<div style=""font-size:30px;"">Press space to start the trial</div>"," ","","","","","","",""
"","","","","","html-keyboard-response","391","2.0.0","312297","pf3abh3rob2","mus","otter","21","female","no","no","0","5","null","<div style=""font-size:60px;"">+</div>","null","","","","","","",""
"","","","","","audio-keyboard-response","392","2.0.0","312909","pf3abh3rob2","mus","otter","21","female","no","no","0","5","null","stimuli/sounds/flute_label_A.wav","null","","","","","","",""
"","","","","","html-keyboard-response","393","2.0.0","313910","pf3abh3rob2","mus","otter","21","female","no","no","0","5","null","","null","","","","","","",""
"","","","","","image-keyboard-response","394","2.0.0","314276","pf3abh3rob2","mus","otter","21","female","no","no","0","5","365","stimuli/pictures/flute_metal_1.jpg","1","1","","true","yes","sound","stimuli/sounds/flute_label_A.wav",""
"","","","","","audio-keyboard-response","395","2.0.0","315279","pf3abh3rob2","mus","otter","21","female","no","no","0","5","null","stimuli/sounds/bleep.wav","null","","","","","","",""
"","","","","","html-keyboard-response","396","2.0.0","315842","pf3abh3rob2","mus","otter","21","female","no","no","0","5","462","<div style=""font-size:30px;"">Press space to start the trial</div>"," ","","","","","","",""
"","","","","","html-keyboard-response","397","2.0.0","316094","pf3abh3rob2","mus","otter","21","female","no","no","0","5","null","<div style=""font-size:60px;"">+</div>","null","","","","","","",""
"","","","","","audio-keyboard-response","398","2.0.0","316689","pf3abh3rob2","mus","otter","21","female","no","no","0","5","null","stimuli/sounds/drum_sound_A.wav","null","","","","","","",""
"","","","","","html-keyboard-response","399","2.0.0","317690","pf3abh3rob2","mus","otter","21","female","no","no","0","5","null","","null","","","","","","",""
"","","","","","image-keyboard-response","400","2.0.0","318191","pf3abh3rob2","mus","otter","21","female","no","no","0","5","501","stimuli/pictures/flute_wooden_2.jpg","0","0","","true","no","sound","stimuli/sounds/drum_sound_A.wav",""
"","","","","","audio-keyboard-response","401","2.0.0","319193","pf3abh3rob2","mus","otter","21","female","no","no","0","5","null","stimuli/sounds/bleep.wav","null","","","","","","",""
"","","","","","html-keyboard-response","402","2.0.0","319701","pf3abh3rob2","mus","otter","21","female","no","no","0","5","407","<div style=""font-size:30px;"">Press space to start the trial</div>"," ","","","","","","",""
"","","","","","html-keyboard-response","403","2.0.0","319952","pf3abh3rob2","mus","otter","21","female","no","no","0","5","null","<div style=""font-size:60px;"">+</div>","null","","","","","","",""
"","","","","","audio-keyboard-response","404","2.0.0","320544","pf3abh3rob2","mus","otter","21","female","no","no","0","5","null","stimuli/sounds/drum_label_B.wav","null","","","","","","",""
"","","","","","html-keyboard-response","405","2.0.0","321546","pf3abh3rob2","mus","otter","21","female","no","no","0","5","null","","null","","","","","","",""
"","","","","","image-keyboard-response","406","2.0.0","321941","pf3abh3rob2","mus","otter","21","female","no","no","0","5","394","stimuli/pictures/drum_bongo_2.jpg","1","1","","true","yes","sound","stimuli/sounds/drum_label_B.wav",""
"","","","","","audio-keyboard-response","407","2.0.0","322943","pf3abh3rob2","mus","otter","21","female","no","no","0","5","null","stimuli/sounds/bleep.wav","null","","","","","","",""
"","","","","","html-keyboard-response","408","2.0.0","323488","pf3abh3rob2","mus","otter","21","female","no","no","0","5","444","<div style=""font-size:30px;"">Press space to start the trial</div>"," ","","","","","","",""
"","","","","","html-keyboard-response","409","2.0.0","323740","pf3abh3rob2","mus","otter","21","female","no","no","0","5","null","<div style=""font-size:60px;"">+</div>","null","","","","","","",""
"","","","","","audio-keyboard-response","410","2.0.0","324339","pf3abh3rob2","mus","otter","21","female","no","no","0","5","null","stimuli/sounds/bird_sound_B.wav","null","","","","","","",""
"","","","","","html-keyboard-response","411","2.0.0","325340","pf3abh3rob2","mus","otter","21","female","no","no","0","5","null","","null","","","","","","",""
"","","","","","image-keyboard-response","412","2.0.0","325976","pf3abh3rob2","mus","otter","21","female","no","no","0","5","635","stimuli/pictures/drum_kit_1.jpg","0","0","","true","no","sound","stimuli/sounds/bird_sound_B.wav",""
"","","","","","audio-keyboard-response","413","2.0.0","326977","pf3abh3rob2","mus","otter","21","female","no","no","0","5","null","stimuli/sounds/bleep.wav","null","","","","","","",""
"","","","","","html-keyboard-response","414","2.0.0","327354","pf3abh3rob2","mus","otter","21","female","no","no","0","5","276","<div style=""font-size:30px;"">Press space to start the trial</div>"," ","","","","","","",""
"","","","","","html-keyboard-response","415","2.0.0","327606","pf3abh3rob2","mus","otter","21","female","no","no","0","5","null","<div style=""font-size:60px;"">+</div>","null","","","","","","",""
"","","","","","audio-keyboard-response","416","2.0.0","328209","pf3abh3rob2","mus","otter","21","female","no","no","0","5","null","stimuli/sounds/flute_label_B.wav","null","","","","","","",""
"","","","","","html-keyboard-response","417","2.0.0","329211","pf3abh3rob2","mus","otter","21","female","no","no","0","5","null","","null","","","","","","",""
"","","","","","image-keyboard-response","418","2.0.0","329688","pf3abh3rob2","mus","otter","21","female","no","no","0","5","477","stimuli/pictures/drum_bongo_2.jpg","0","0","","true","no","sound","stimuli/sounds/flute_label_B.wav",""
"","","","","","audio-keyboard-response","419","2.0.0","330690","pf3abh3rob2","mus","otter","21","female","no","no","0","5","null","stimuli/sounds/bleep.wav","null","","","","","","",""
"","","","","","html-keyboard-response","420","2.0.0","331022","pf3abh3rob2","mus","otter","21","female","no","no","0","5","231","<div style=""font-size:30px;"">Press space to start the trial</div>"," ","","","","","","",""
"","","","","","html-keyboard-response","421","2.0.0","331274","pf3abh3rob2","mus","otter","21","female","no","no","0","5","null","<div style=""font-size:60px;"">+</div>","null","","","","","","",""
"","","","","","audio-keyboard-response","422","2.0.0","331869","pf3abh3rob2","mus","otter","21","female","no","no","0","5","null","stimuli/sounds/phone_sound_A.wav","null","","","","","","",""
"","","","","","html-keyboard-response","423","2.0.0","332870","pf3abh3rob2","mus","otter","21","female","no","no","0","5","null","","null","","","","","","",""
"","","","","","image-keyboard-response","424","2.0.0","333673","pf3abh3rob2","mus","otter","21","female","no","no","0","5","803","stimuli/pictures/phone_rotary_2.jpg","1","1","","true","no","sound","stimuli/sounds/phone_sound_A.wav",""
"","","","","","audio-keyboard-response","425","2.0.0","334674","pf3abh3rob2","mus","otter","21","female","no","no","0","5","null","stimuli/sounds/bleep.wav","null","","","","","","",""
"","","","","","html-keyboard-response","426","2.0.0","335241","pf3abh3rob2","mus","otter","21","female","no","no","0","5","465","<div style=""font-size:30px;"">Press space to start the trial</div>"," ","","","","","","",""
"","","","","","html-keyboard-response","427","2.0.0","335492","pf3abh3rob2","mus","otter","21","female","no","no","0","5","null","<div style=""font-size:60px;"">+</div>","null","","","","","","",""
"","","","","","audio-keyboard-response","428","2.0.0","336099","pf3abh3rob2","mus","otter","21","female","no","no","0","5","null","stimuli/sounds/flute_sound_A.wav","null","","","","","","",""
"","","","","","html-keyboard-response","429","2.0.0","337101","pf3abh3rob2","mus","otter","21","female","no","no","0","5","null","","null","","","","","","",""
"","","","","","image-keyboard-response","430","2.0.0","337689","pf3abh3rob2","mus","otter","21","female","no","no","0","5","588","stimuli/pictures/flute_metal_1.jpg","1","1","","true","yes","sound","stimuli/sounds/flute_sound_A.wav",""
"","","","","","audio-keyboard-response","431","2.0.0","338691","pf3abh3rob2","mus","otter","21","female","no","no","0","5","null","stimuli/sounds/bleep.wav","null","","","","","","",""
"","","","","","html-keyboard-response","432","2.0.0","339225","pf3abh3rob2","mus","otter","21","female","no","no","0","5","433","<div style=""font-size:30px;"">Press space to start the trial</div>"," ","","","","","","",""
"","","","","","html-keyboard-response","433","2.0.0","339476","pf3abh3rob2","mus","otter","21","female","no","no","0","5","null","<div style=""font-size:60px;"">+</div>","null","","","","","","",""
"","","","","","audio-keyboard-response","434","2.0.0","340104","pf3abh3rob2","mus","otter","21","female","no","no","0","5","null","stimuli/sounds/piano_label_A.wav","null","","","","","","",""
"","","","","","html-keyboard-response","435","2.0.0","341105","pf3abh3rob2","mus","otter","21","female","no","no","0","5","null","","null","","","","","","",""
"","","","","","image-keyboard-response","436","2.0.0","341445","pf3abh3rob2","mus","otter","21","female","no","no","0","5","339","stimuli/pictures/piano_electric_1.jpg","1","1","","true","yes","sound","stimuli/sounds/piano_label_A.wav",""
"","","","","","audio-keyboard-response","437","2.0.0","342446","pf3abh3rob2","mus","otter","21","female","no","no","0","5","null","stimuli/sounds/bleep.wav","null","","","","","","",""
"","","","","","html-keyboard-response","438","2.0.0","342911","pf3abh3rob2","mus","otter","21","female","no","no","0","5","362","<div style=""font-size:30px;"">Press space to start the trial</div>"," ","","","","","","",""
"","","","","","html-keyboard-response","439","2.0.0","343163","pf3abh3rob2","mus","otter","21","female","no","no","0","5","null","<div style=""font-size:60px;"">+</div>","null","","","","","","",""
"","","","","","audio-keyboard-response","440","2.0.0","343779","pf3abh3rob2","mus","otter","21","female","no","no","0","5","null","stimuli/sounds/flute_sound_B.wav","null","","","","","","",""
"","","","","","html-keyboard-response","441","2.0.0","344780","pf3abh3rob2","mus","otter","21","female","no","no","0","5","null","","null","","","","","","",""
"","","","","","image-keyboard-response","442","2.0.0","345636","pf3abh3rob2","mus","otter","21","female","no","no","0","5","855","stimuli/pictures/bird_hawk_1.jpg","0","0","","true","no","sound","stimuli/sounds/flute_sound_B.wav",""
"","","","","","audio-keyboard-response","443","2.0.0","346637","pf3abh3rob2","mus","otter","21","female","no","no","0","5","null","stimuli/sounds/bleep.wav","null","","","","","","",""
"","","","","","html-keyboard-response","444","2.0.0","347182","pf3abh3rob2","mus","otter","21","female","no","no","0","5","444","<div style=""font-size:30px;"">Press space to start the trial</div>"," ","","","","","","",""
"","","","","","html-keyboard-response","445","2.0.0","347435","pf3abh3rob2","mus","otter","21","female","no","no","0","5","null","<div style=""font-size:60px;"">+</div>","null","","","","","","",""
"","","","","","audio-keyboard-response","446","2.0.0","348024","pf3abh3rob2","mus","otter","21","female","no","no","0","5","null","stimuli/sounds/drum_label_A.wav","null","","","","","","",""
"","","","","","html-keyboard-response","447","2.0.0","349024","pf3abh3rob2","mus","otter","21","female","no","no","0","5","null","","null","","","","","","",""
"","","","","","image-keyboard-response","448","2.0.0","349451","pf3abh3rob2","mus","otter","21","female","no","no","0","5","426","stimuli/pictures/bird_hawk_1.jpg","0","0","","true","no","sound","stimuli/sounds/drum_label_A.wav",""
"","","","","","audio-keyboard-response","449","2.0.0","350452","pf3abh3rob2","mus","otter","21","female","no","no","0","5","null","stimuli/sounds/bleep.wav","null","","","","","","",""
"","","","","","html-keyboard-response","450","2.0.0","350889","pf3abh3rob2","mus","otter","21","female","no","no","0","5","335","<div style=""font-size:30px;"">Press space to start the trial</div>"," ","","","","","","",""
"","","","","","html-keyboard-response","451","2.0.0","351140","pf3abh3rob2","mus","otter","21","female","no","no","0","5","null","<div style=""font-size:60px;"">+</div>","null","","","","","","",""
"","","","","","audio-keyboard-response","452","2.0.0","351744","pf3abh3rob2","mus","otter","21","female","no","no","0","5","null","stimuli/sounds/flute_sound_A.wav","null","","","","","","",""
"","","","","","html-keyboard-response","453","2.0.0","352745","pf3abh3rob2","mus","otter","21","female","no","no","0","5","null","","null","","","","","","",""
"","","","","","image-keyboard-response","454","2.0.0","353438","pf3abh3rob2","mus","otter","21","female","no","no","0","5","693","stimuli/pictures/phone_rotary_2.jpg","0","0","","true","no","sound","stimuli/sounds/flute_sound_A.wav",""
"","","","","","audio-keyboard-response","455","2.0.0","354439","pf3abh3rob2","mus","otter","21","female","no","no","0","5","null","stimuli/sounds/bleep.wav","null","","","","","","",""
"","","","","","html-keyboard-response","456","2.0.0","354815","pf3abh3rob2","mus","otter","21","female","no","no","0","5","274","<div style=""font-size:30px;"">Press space to start the trial</div>"," ","","","","","","",""
"","","","","","html-keyboard-response","457","2.0.0","355066","pf3abh3rob2","mus","otter","21","female","no","no","0","5","null","<div style=""font-size:60px;"">+</div>","null","","","","","","",""
"","","","","","audio-keyboard-response","458","2.0.0","355668","pf3abh3rob2","mus","otter","21","female","no","no","0","5","null","stimuli/sounds/flute_sound_A.wav","null","","","","","","",""
"","","","","","html-keyboard-response","459","2.0.0","356669","pf3abh3rob2","mus","otter","21","female","no","no","0","5","null","","null","","","","","","",""
"","","","","","image-keyboard-response","460","2.0.0","357204","pf3abh3rob2","mus","otter","21","female","no","no","0","5","534","stimuli/pictures/phone_cell_2.jpg","0","0","","true","no","sound","stimuli/sounds/flute_sound_A.wav",""
"","","","","","audio-keyboard-response","461","2.0.0","358205","pf3abh3rob2","mus","otter","21","female","no","no","0","5","null","stimuli/sounds/bleep.wav","null","","","","","","",""
"","","","","","html-keyboard-response","462","2.0.0","358811","pf3abh3rob2","mus","otter","21","female","no","no","0","5","504","<div style=""font-size:30px;"">Press space to start the trial</div>"," ","","","","","","",""
"","","","","","html-keyboard-response","463","2.0.0","359063","pf3abh3rob2","mus","otter","21","female","no","no","0","5","null","<div style=""font-size:60px;"">+</div>","null","","","","","","",""
"","","","","","audio-keyboard-response","464","2.0.0","359664","pf3abh3rob2","mus","otter","21","female","no","no","0","5","null","stimuli/sounds/piano_sound_A.wav","null","","","","","","",""
"","","","","","html-keyboard-response","465","2.0.0","360665","pf3abh3rob2","mus","otter","21","female","no","no","0","5","null","","null","","","","","","",""
"","","","","","image-keyboard-response","466","2.0.0","361244","pf3abh3rob2","mus","otter","21","female","no","no","0","5","579","stimuli/pictures/piano_grand_1.jpg","1","1","","true","yes","sound","stimuli/sounds/piano_sound_A.wav",""
"","","","","","audio-keyboard-response","467","2.0.0","362246","pf3abh3rob2","mus","otter","21","female","no","no","0","5","null","stimuli/sounds/bleep.wav","null","","","","","","",""
"","","","","","html-keyboard-response","468","2.0.0","362852","pf3abh3rob2","mus","otter","21","female","no","no","0","5","505","<div style=""font-size:30px;"">Press space to start the trial</div>"," ","","","","","","",""
"","","","","","html-keyboard-response","469","2.0.0","363105","pf3abh3rob2","mus","otter","21","female","no","no","0","5","null","<div style=""font-size:60px;"">+</div>","null","","","","","","",""
"","","","","","audio-keyboard-response","470","2.0.0","363708","pf3abh3rob2","mus","otter","21","female","no","no","0","5","null","stimuli/sounds/piano_sound_B.wav","null","","","","","","",""
"","","","","","html-keyboard-response","471","2.0.0","364709","pf3abh3rob2","mus","otter","21","female","no","no","0","5","null","","null","","","","","","",""
"","","","","","image-keyboard-response","472","2.0.0","365119","pf3abh3rob2","mus","otter","21","female","no","no","0","5","410","stimuli/pictures/flute_metal_2.jpg","0","0","","true","no","sound","stimuli/sounds/piano_sound_B.wav",""
"","","","","","audio-keyboard-response","473","2.0.0","366120","pf3abh3rob2","mus","otter","21","female","no","no","0","5","null","stimuli/sounds/bleep.wav","null","","","","","","",""
"","","","","","html-keyboard-response","474","2.0.0","366662","pf3abh3rob2","mus","otter","21","female","no","no","0","5","439","<div style=""font-size:30px;"">Press space to start the trial</div>"," ","","","","","","",""
"","","","","","html-keyboard-response","475","2.0.0","366913","pf3abh3rob2","mus","otter","21","female","no","no","0","5","null","<div style=""font-size:60px;"">+</div>","null","","","","","","",""
"","","","","","audio-keyboard-response","476","2.0.0","367509","pf3abh3rob2","mus","otter","21","female","no","no","0","5","null","stimuli/sounds/phone_label_B.wav","null","","","","","","",""
"","","","","","html-keyboard-response","477","2.0.0","368510","pf3abh3rob2","mus","otter","21","female","no","no","0","5","null","","null","","","","","","",""
"","","","","","image-keyboard-response","478","2.0.0","369046","pf3abh3rob2","mus","otter","21","female","no","no","0","5","536","stimuli/pictures/flute_metal_2.jpg","0","0","","true","no","sound","stimuli/sounds/phone_label_B.wav",""
"","","","","","audio-keyboard-response","479","2.0.0","370048","pf3abh3rob2","mus","otter","21","female","no","no","0","5","null","stimuli/sounds/bleep.wav","null","","","","","","",""
"","","","","","html-keyboard-response","480","2.0.0","370542","pf3abh3rob2","mus","otter","21","female","no","no","0","5","393","<div style=""font-size:30px;"">Press space to start the trial</div>"," ","","","","","","",""
"","","","","","html-keyboard-response","481","2.0.0","370793","pf3abh3rob2","mus","otter","21","female","no","no","0","5","null","<div style=""font-size:60px;"">+</div>","null","","","","","","",""
"","","","","","audio-keyboard-response","482","2.0.0","371388","pf3abh3rob2","mus","otter","21","female","no","no","0","5","null","stimuli/sounds/phone_label_B.wav","null","","","","","","",""
"","","","","","html-keyboard-response","483","2.0.0","372389","pf3abh3rob2","mus","otter","21","female","no","no","0","5","null","","null","","","","","","",""
"","","","","","image-keyboard-response","484","2.0.0","372796","pf3abh3rob2","mus","otter","21","female","no","no","0","5","406","stimuli/pictures/flute_wooden_2.jpg","0","0","","true","no","sound","stimuli/sounds/phone_label_B.wav",""
"","","","","","audio-keyboard-response","485","2.0.0","373798","pf3abh3rob2","mus","otter","21","female","no","no","0","5","null","stimuli/sounds/bleep.wav","null","","","","","","",""
"","","","","","html-keyboard-response","486","2.0.0","374353","pf3abh3rob2","mus","otter","21","female","no","no","0","5","453","<div style=""font-size:30px;"">Press space to start the trial</div>"," ","","","","","","",""
"","","","","","html-keyboard-response","487","2.0.0","374605","pf3abh3rob2","mus","otter","21","female","no","no","0","5","null","<div style=""font-size:60px;"">+</div>","null","","","","","","",""
"","","","","","audio-keyboard-response","488","2.0.0","375204","pf3abh3rob2","mus","otter","21","female","no","no","0","5","null","stimuli/sounds/bird_sound_B.wav","null","","","","","","",""
"","","","","","html-keyboard-response","489","2.0.0","376206","pf3abh3rob2","mus","otter","21","female","no","no","0","5","null","","null","","","","","","",""
"","","","","","image-keyboard-response","490","2.0.0","376800","pf3abh3rob2","mus","otter","21","female","no","no","0","5","594","stimuli/pictures/drum_kit_2.jpg","0","0","","true","no","sound","stimuli/sounds/bird_sound_B.wav",""
"","","","","","audio-keyboard-response","491","2.0.0","377802","pf3abh3rob2","mus","otter","21","female","no","no","0","5","null","stimuli/sounds/bleep.wav","null","","","","","","",""
"","","","","","html-keyboard-response","492","2.0.0","378149","pf3abh3rob2","mus","otter","21","female","no","no","0","5","244","<div style=""font-size:30px;"">Press space to start the trial</div>"," ","","","","","","",""
"","","","","","html-keyboard-response","493","2.0.0","378399","pf3abh3rob2","mus","otter","21","female","no","no","0","5","null","<div style=""font-size:60px;"">+</div>","null","","","","","","",""
