"success","timeout","failed_images","failed_audio","failed_video","trial_type","trial_index","plugin_version","time_elapsed","random_id","condition","participant","age","gender_id","mus_exp","inst_exp","years_exp","mus_listening","rt","stimulus","response","correct_response","practice","correct","congruent","sound_type","audio","question_order"
"true","false","[]","[]","[]","preload","0","2.0.0","332","pfusyzqztru","mus","meerkat","21","female","yes","yes","12","3","","","","","","","","","",""
"","","","","","html-keyboard-response","1","2.0.0","1142","pfusyzqztru","mus","meerkat","21","female","yes","yes","12","3","809","Welcome to the experiment! Press any key to begin."," ","","","","","","",""
"true","","","","","fullscreen","2","null","3380","pfusyzqztru","mus","meerkat","21","female","yes","yes","12","3","1232","","","","","","","","",""
"","","","","","survey-text","3","2.0.0","5994","pfusyzqztru","mus","meerkat","21","female","yes","yes","12","3","2611","","{""participant_id"":""meerkat""}","","","","","","",""
"","","","","","html-keyboard-response","4","2.0.0","102952","pfusyzqztru","mus","meerkat","21","female","yes","yes","12","3","96957","
    <p> Please use headphones for the duration of the study.</p>
    <p> Within each trial, you will hear a sound and then be presented with an image in the center of your screen.</p>
    <p>Press the <b>'1'</b> key if what you hear <u>matches</u> what you see.</p>
    <p>Press the <b>'0'</b> key if what you hear <u>does not match</u> what you see.</p>
    <p>Try to respond as quickly and accurately as you can.</p>
    <p> Press any key to begin.</p>
    "," ","","","","","","",""
"","","","","","html-keyboard-response","5","2.0.0","104324","pfusyzqztru","mus","meerkat","21","female","yes","yes","12","3","1370","
    <div style=""font-size:28px;"">
      <p>You will now complete 4 short practice trials.</p>
      <p>This is just to help you get familiar with the task.</p>
      <p>Press any key to begin.</p>
    </div>
  "," ","","","","","","",""
"","","","","","html-keyboard-response","6","2.0.0","104826","pfusyzqztru","mus","meerkat","21","female","yes","yes","12","3","null","<div style=""font-size:60px;"">+</div>","null","","","","","","",""
"","","","","","audio-keyboard-response","7","2.0.0","105847","pfusyzqztru","mus","meerkat","21","female","yes","yes","12","3","null","stimuli/sounds/guitar_label_A.wav","null","","","","","","",""
"","","","","","image-keyboard-response","8","2.0.0","106788","pfusyzqztru","mus","meerkat","21","female","yes","yes","12","3","937","stimuli/pictures/guitar_acoustic_1.jpg","1","1","true","true","","","",""
"","","","","","audio-keyboard-response","9","2.0.0","107593","pfusyzqztru","mus","meerkat","21","female","yes","yes","12","3","null","stimuli/sounds/bleep.wav","null","","","","","","",""
"","","","","","html-keyboard-response","10","2.0.0","108296","pfusyzqztru","mus","meerkat","21","female","yes","yes","12","3","null","<p style='color:green; font-size:30px;'>Correct!</p>","null","","","","","","",""
"","","","","","html-keyboard-response","11","2.0.0","108798","pfusyzqztru","mus","meerkat","21","female","yes","yes","12","3","null","<div style=""font-size:60px;"">+</div>","null","","","","","","",""
"","","","","","audio-keyboard-response","12","2.0.0","109398","pfusyzqztru","mus","meerkat","21","female","yes","yes","12","3","null","stimuli/sounds/guitar_sound_B.wav","null","","","","","","",""
"","","","","","image-keyboard-response","13","2.0.0","110138","pfusyzqztru","mus","meerkat","21","female","yes","yes","12","3","739","stimuli/pictures/guitar_acoustic_2.jpg","1","1","true","true","","","",""
"","","","","","audio-keyboard-response","14","2.0.0","110940","pfusyzqztru","mus","meerkat","21","female","yes","yes","12","3","null","stimuli/sounds/bleep.wav","null","","","","","","",""
"","","","","","html-keyboard-response","15","2.0.0","111643","pfusyzqztru","mus","meerkat","21","female","yes","yes","12","3","null","<p style='color:green; font-size:30px;'>Correct!</p>","null","","","","","","",""
"","","","","","html-keyboard-response","16","2.0.0","112145","pfusyzqztru","mus","meerkat","21","female","yes","yes","12","3","null","<div style=""font-size:60px;"">+</div>","null","","","","","","",""
"","","","","","audio-keyboard-response","17","2.0.0","112747","pfusyzqztru","mus","meerkat","21","female","yes","yes","12","3","null","stimuli/sounds/flute_sound_A.wav","null","","","","","","",""
"","","","","","image-keyboard-response","18","2.0.0","113907","pfusyzqztru","mus","meerkat","21","female","yes","yes","12","3","1158","stimuli/pictures/guitar_electric_1.jpg","0","0","true","true","","","",""
"","","","","","audio-keyboard-response","19","2.0.0","114709","pfusyzqztru","mus","meerkat","21","female","yes","yes","12","3","null","stimuli/sounds/bleep.wav","null","","","","","","",""
"","","","","","html-keyboard-response","20","2.0.0","115411","pfusyzqztru","mus","meerkat","21","female","yes","yes","12","3","null","<p style='color:green; font-size:30px;'>Correct!</p>","null","","","","","","",""
"","","","","","html-keyboard-response","21","2.0.0","115913","pfusyzqztru","mus","meerkat","21","female","yes","yes","12","3","null","<div style=""font-size:60px;"">+</div>","null","","","","","","",""
"","","","","","audio-keyboard-response","22","2.0.0","116513","pfusyzqztru","mus","meerkat","21","female","yes","yes","12","3","null","stimuli/sounds/guitar_sound_A.wav","null","","","","","","",""
"","","","","","image-keyboard-response","23","2.0.0","117365","pfusyzqztru","mus","meerkat","21","female","yes","yes","12","3","850","stimuli/pictures/guitar_acoustic_1.jpg","0","1","true","false","","","",""
"","","","","","audio-keyboard-response","24","2.0.0","118167","pfusyzqztru","mus","meerkat","21","female","yes","yes","12","3","null","stimuli/sounds/buzz.wav","null","","","","","","",""
"","","","","","html-keyboard-response","25","2.0.0","118870","pfusyzqztru","mus","meerkat","21","female","yes","yes","12","3","null","<p style='color:red; font-size:30px;'>Incorrect</p>","null","","","","","","",""
"","","","","","html-keyboard-response","26","2.0.0","135689","pfusyzqztru","mus","meerkat","21","female","yes","yes","12","3","16818","<p>Practice complete. Press any key to begin the real experiment.</p>"," ","","","","","","",""
"","","","","","html-keyboard-response","27","2.0.0","137219","pfusyzqztru","mus","meerkat","21","female","yes","yes","12","3","1529","<div style=""font-size:30px;"">Press space to start the trial</div>"," ","","","","","","",""
"","","","","","html-keyboard-response","28","2.0.0","137472","pfusyzqztru","mus","meerkat","21","female","yes","yes","12","3","null","<div style=""font-size:60px;"">+</div>","null","","","","","","",""
"","","","","","audio-keyboard-response","29","2.0.0","138075","pfusyzqztru","mus","meerkat","21","female","yes","yes","12","3","null","stimuli/sounds/phone_label_A.wav","null","","","","","","",""
"","","","","","html-keyboard-response","30","2.0.0","139078","pfusyzqztru","mus","meerkat","21","female","yes","yes","12","3","null","","null","","","","","","",""
"","","","","","image-keyboard-response","31","2.0.0","139754","pfusyzqztru","mus","meerkat","21","female","yes","yes","12","3","675","stimuli/pictures/drum_bongo_1.jpg","0","0","","true","no","sound","stimuli/sounds/phone_label_A.wav",""
"","","","","","audio-keyboard-response","32","2.0.0","140757","pfusyzqztru","mus","meerkat","21","female","yes","yes","12","3","null","stimuli/sounds/bleep.wav","null","","","","","","",""
"","","","","","html-keyboard-response","33","2.0.0","144204","pfusyzqztru","mus","meerkat","21","female","yes","yes","12","3","3345","<div style=""font-size:30px;"">Press space to start the trial</div>"," ","","","","","","",""
"","","","","","html-keyboard-response","34","2.0.0","144456","pfusyzqztru","mus","meerkat","21","female","yes","yes","12","3","null","<div style=""font-size:60px;"">+</div>","null","","","","","","",""
"","","","","","audio-keyboard-response","35","2.0.0","145062","pfusyzqztru","mus","meerkat","21","female","yes","yes","12","3","null","stimuli/sounds/flute_sound_B.wav","null","","","","","","",""
"","","","","","html-keyboard-response","36","2.0.0","146064","pfusyzqztru","mus","meerkat","21","female","yes","yes","12","3","null","","null","","","","","","",""
"","","","","","image-keyboard-response","37","2.0.0","147079","pfusyzqztru","mus","meerkat","21","female","yes","yes","12","3","1013","stimuli/pictures/flute_metal_1.jpg","1","1","","true","no","sound","stimuli/sounds/flute_sound_B.wav",""
"","","","","","audio-keyboard-response","38","2.0.0","148082","pfusyzqztru","mus","meerkat","21","female","yes","yes","12","3","null","stimuli/sounds/bleep.wav","null","","","","","","",""
"","","","","","html-keyboard-response","39","2.0.0","148881","pfusyzqztru","mus","meerkat","21","female","yes","yes","12","3","697","<div style=""font-size:30px;"">Press space to start the trial</div>"," ","","","","","","",""
"","","","","","html-keyboard-response","40","2.0.0","149134","pfusyzqztru","mus","meerkat","21","female","yes","yes","12","3","null","<div style=""font-size:60px;"">+</div>","null","","","","","","",""
"","","","","","audio-keyboard-response","41","2.0.0","149734","pfusyzqztru","mus","meerkat","21","female","yes","yes","12","3","null","stimuli/sounds/drum_label_B.wav","null","","","","","","",""
"","","","","","html-keyboard-response","42","2.0.0","150736","pfusyzqztru","mus","meerkat","21","female","yes","yes","12","3","null","","null","","","","","","",""
"","","","","","image-keyboard-response","43","2.0.0","151329","pfusyzqztru","mus","meerkat","21","female","yes","yes","12","3","592","stimuli/pictures/piano_grand_2.jpg","0","0","","true","no","sound","stimuli/sounds/drum_label_B.wav",""
"","","","","","audio-keyboard-response","44","2.0.0","152333","pfusyzqztru","mus","meerkat","21","female","yes","yes","12","3","null","stimuli/sounds/bleep.wav","null","","","","","","",""
"","","","","","html-keyboard-response","45","2.0.0","152892","pfusyzqztru","mus","meerkat","21","female","yes","yes","12","3","456","<div style=""font-size:30px;"">Press space to start the trial</div>"," ","","","","","","",""
"","","","","","html-keyboard-response","46","2.0.0","153145","pfusyzqztru","mus","meerkat","21","female","yes","yes","12","3","null","<div style=""font-size:60px;"">+</div>","null","","","","","","",""
"","","","","","audio-keyboard-response","47","2.0.0","153749","pfusyzqztru","mus","meerkat","21","female","yes","yes","12","3","null","stimuli/sounds/flute_label_B.wav","null","","","","","","",""
"","","","","","html-keyboard-response","48","2.0.0","154751","pfusyzqztru","mus","meerkat","21","female","yes","yes","12","3","null","","null","","","","","","",""
"","","","","","image-keyboard-response","49","2.0.0","155395","pfusyzqztru","mus","meerkat","21","female","yes","yes","12","3","644","stimuli/pictures/drum_kit_2.jpg","0","0","","true","no","sound","stimuli/sounds/flute_label_B.wav",""
"","","","","","audio-keyboard-response","50","2.0.0","156398","pfusyzqztru","mus","meerkat","21","female","yes","yes","12","3","null","stimuli/sounds/bleep.wav","null","","","","","","",""
"","","","","","html-keyboard-response","51","2.0.0","156972","pfusyzqztru","mus","meerkat","21","female","yes","yes","12","3","472","<div style=""font-size:30px;"">Press space to start the trial</div>"," ","","","","","","",""
"","","","","","html-keyboard-response","52","2.0.0","157224","pfusyzqztru","mus","meerkat","21","female","yes","yes","12","3","null","<div style=""font-size:60px;"">+</div>","null","","","","","","",""
"","","","","","audio-keyboard-response","53","2.0.0","157824","pfusyzqztru","mus","meerkat","21","female","yes","yes","12","3","null","stimuli/sounds/drum_sound_B.wav","null","","","","","","",""
"","","","","","html-keyboard-response","54","2.0.0","158827","pfusyzqztru","mus","meerkat","21","female","yes","yes","12","3","null","","null","","","","","","",""
"","","","","","image-keyboard-response","55","2.0.0","159481","pfusyzqztru","mus","meerkat","21","female","yes","yes","12","3","652","stimuli/pictures/phone_cell_2.jpg","0","0","","true","no","sound","stimuli/sounds/drum_sound_B.wav",""
"","","","","","audio-keyboard-response","56","2.0.0","160484","pfusyzqztru","mus","meerkat","21","female","yes","yes","12","3","null","stimuli/sounds/bleep.wav","null","","","","","","",""
"","","","","","html-keyboard-response","57","2.0.0","161038","pfusyzqztru","mus","meerkat","21","female","yes","yes","12","3","452","<div style=""font-size:30px;"">Press space to start the trial</div>"," ","","","","","","",""
"","","","","","html-keyboard-response","58","2.0.0","161291","pfusyzqztru","mus","meerkat","21","female","yes","yes","12","3","null","<div style=""font-size:60px;"">+</div>","null","","","","","","",""
"","","","","","audio-keyboard-response","59","2.0.0","161893","pfusyzqztru","mus","meerkat","21","female","yes","yes","12","3","null","stimuli/sounds/drum_label_B.wav","null","","","","","","",""
"","","","","","html-keyboard-response","60","2.0.0","162896","pfusyzqztru","mus","meerkat","21","female","yes","yes","12","3","null","","null","","","","","","",""
"","","","","","image-keyboard-response","61","2.0.0","163457","pfusyzqztru","mus","meerkat","21","female","yes","yes","12","3","559","stimuli/pictures/piano_electric_1.jpg","0","0","","true","no","sound","stimuli/sounds/drum_label_B.wav",""
"","","","","","audio-keyboard-response","62","2.0.0","164460","pfusyzqztru","mus","meerkat","21","female","yes","yes","12","3","null","stimuli/sounds/bleep.wav","null","","","","","","",""
"","","","","","html-keyboard-response","63","2.0.0","165100","pfusyzqztru","mus","meerkat","21","female","yes","yes","12","3","538","<div style=""font-size:30px;"">Press space to start the trial</div>"," ","","","","","","",""
"","","","","","html-keyboard-response","64","2.0.0","165353","pfusyzqztru","mus","meerkat","21","female","yes","yes","12","3","null","<div style=""font-size:60px;"">+</div>","null","","","","","","",""
"","","","","","audio-keyboard-response","65","2.0.0","165952","pfusyzqztru","mus","meerkat","21","female","yes","yes","12","3","null","stimuli/sounds/piano_label_B.wav","null","","","","","","",""
"","","","","","html-keyboard-response","66","2.0.0","166954","pfusyzqztru","mus","meerkat","21","female","yes","yes","12","3","null","","null","","","","","","",""
"","","","","","image-keyboard-response","67","2.0.0","167508","pfusyzqztru","mus","meerkat","21","female","yes","yes","12","3","553","stimuli/pictures/bird_hawk_1.jpg","0","0","","true","no","sound","stimuli/sounds/piano_label_B.wav",""
"","","","","","audio-keyboard-response","68","2.0.0","168511","pfusyzqztru","mus","meerkat","21","female","yes","yes","12","3","null","stimuli/sounds/bleep.wav","null","","","","","","",""
"","","","","","html-keyboard-response","69","2.0.0","169072","pfusyzqztru","mus","meerkat","21","female","yes","yes","12","3","460","<div style=""font-size:30px;"">Press space to start the trial</div>"," ","","","","","","",""
"","","","","","html-keyboard-response","70","2.0.0","169324","pfusyzqztru","mus","meerkat","21","female","yes","yes","12","3","null","<div style=""font-size:60px;"">+</div>","null","","","","","","",""
"","","","","","audio-keyboard-response","71","2.0.0","169925","pfusyzqztru","mus","meerkat","21","female","yes","yes","12","3","null","stimuli/sounds/phone_sound_B.wav","null","","","","","","",""
"","","","","","html-keyboard-response","72","2.0.0","170928","pfusyzqztru","mus","meerkat","21","female","yes","yes","12","3","null","","null","","","","","","",""
"","","","","","image-keyboard-response","73","2.0.0","171565","pfusyzqztru","mus","meerkat","21","female","yes","yes","12","3","636","stimuli/pictures/piano_electric_1.jpg","0","0","","true","no","sound","stimuli/sounds/phone_sound_B.wav",""
"","","","","","audio-keyboard-response","74","2.0.0","172567","pfusyzqztru","mus","meerkat","21","female","yes","yes","12","3","null","stimuli/sounds/bleep.wav","null","","","","","","",""
"","","","","","html-keyboard-response","75","2.0.0","173079","pfusyzqztru","mus","meerkat","21","female","yes","yes","12","3","411","<div style=""font-size:30px;"">Press space to start the trial</div>"," ","","","","","","",""
"","","","","","html-keyboard-response","76","2.0.0","173332","pfusyzqztru","mus","meerkat","21","female","yes","yes","12","3","null","<div style=""font-size:60px;"">+</div>","null","","","","","","",""
"","","","","","audio-keyboard-response","77","2.0.0","173930","pfusyzqztru","mus","meerkat","21","female","yes","yes","12","3","null","stimuli/sounds/bird_sound_B.wav","null","","","","","","",""
"","","","","","html-keyboard-response","78","2.0.0","174932","pfusyzqztru","mus","meerkat","21","female","yes","yes","12","3","null","","null","","","","","","",""
"","","","","","image-keyboard-response","79","2.0.0","175438","pfusyzqztru","mus","meerkat","21","female","yes","yes","12","3","505","stimuli/pictures/drum_bongo_1.jpg","0","0","","true","no","sound","stimuli/sounds/bird_sound_B.wav",""
"","","","","","audio-keyboard-response","80","2.0.0","176441","pfusyzqztru","mus","meerkat","21","female","yes","yes","12","3","null","stimuli/sounds/bleep.wav","null","","","","","","",""
"","","","","","html-keyboard-response","81","2.0.0","177034","pfusyzqztru","mus","meerkat","21","female","yes","yes","12","3","491","<div style=""font-size:30px;"">Press space to start the trial</div>"," ","","","","","","",""
"","","","","","html-keyboard-response","82","2.0.0","177286","pfusyzqztru","mus","meerkat","21","female","yes","yes","12","3","null","<div style=""font-size:60px;"">+</div>","null","","","","","","",""
"","","","","","audio-keyboard-response","83","2.0.0","177888","pfusyzqztru","mus","meerkat","21","female","yes","yes","12","3","null","stimuli/sounds/piano_label_B.wav","null","","","","","","",""
"","","","","","html-keyboard-response","84","2.0.0","178890","pfusyzqztru","mus","meerkat","21","female","yes","yes","12","3","null","","null","","","","","","",""
"","","","","","image-keyboard-response","85","2.0.0","180544","pfusyzqztru","mus","meerkat","21","female","yes","yes","12","3","1653","stimuli/pictures/piano_electric_2.jpg","1","1","","true","yes","sound","stimuli/sounds/piano_label_B.wav",""
"","","","","","audio-keyboard-response","86","2.0.0","181547","pfusyzqztru","mus","meerkat","21","female","yes","yes","12","3","null","stimuli/sounds/bleep.wav","null","","","","","","",""
"","","","","","html-keyboard-response","87","2.0.0","182117","pfusyzqztru","mus","meerkat","21","female","yes","yes","12","3","467","<div style=""font-size:30px;"">Press space to start the trial</div>"," ","","","","","","",""
"","","","","","html-keyboard-response","88","2.0.0","182369","pfusyzqztru","mus","meerkat","21","female","yes","yes","12","3","null","<div style=""font-size:60px;"">+</div>","null","","","","","","",""
"","","","","","audio-keyboard-response","89","2.0.0","182971","pfusyzqztru","mus","meerkat","21","female","yes","yes","12","3","null","stimuli/sounds/flute_sound_A.wav","null","","","","","","",""
"","","","","","html-keyboard-response","90","2.0.0","183973","pfusyzqztru","mus","meerkat","21","female","yes","yes","12","3","null","","null","","","","","","",""
"","","","","","image-keyboard-response","91","2.0.0","184654","pfusyzqztru","mus","meerkat","21","female","yes","yes","12","3","680","stimuli/pictures/phone_cell_1.jpg","0","0","","true","no","sound","stimuli/sounds/flute_sound_A.wav",""
"","","","","","audio-keyboard-response","92","2.0.0","185657","pfusyzqztru","mus","meerkat","21","female","yes","yes","12","3","null","stimuli/sounds/bleep.wav","null","","","","","","",""
"","","","","","html-keyboard-response","93","2.0.0","186204","pfusyzqztru","mus","meerkat","21","female","yes","yes","12","3","445","<div style=""font-size:30px;"">Press space to start the trial</div>"," ","","","","","","",""
"","","","","","html-keyboard-response","94","2.0.0","186456","pfusyzqztru","mus","meerkat","21","female","yes","yes","12","3","null","<div style=""font-size:60px;"">+</div>","null","","","","","","",""
"","","","","","audio-keyboard-response","95","2.0.0","187056","pfusyzqztru","mus","meerkat","21","female","yes","yes","12","3","null","stimuli/sounds/bird_sound_B.wav","null","","","","","","",""
"","","","","","html-keyboard-response","96","2.0.0","188058","pfusyzqztru","mus","meerkat","21","female","yes","yes","12","3","null","","null","","","","","","",""
"","","","","","image-keyboard-response","97","2.0.0","188737","pfusyzqztru","mus","meerkat","21","female","yes","yes","12","3","677","stimuli/pictures/bird_hawk_1.jpg","1","1","","true","no","sound","stimuli/sounds/bird_sound_B.wav",""
"","","","","","audio-keyboard-response","98","2.0.0","189739","pfusyzqztru","mus","meerkat","21","female","yes","yes","12","3","null","stimuli/sounds/bleep.wav","null","","","","","","",""
"","","","","","html-keyboard-response","99","2.0.0","190795","pfusyzqztru","mus","meerkat","21","female","yes","yes","12","3","954","<div style=""font-size:30px;"">Press space to start the trial</div>"," ","","","","","","",""
"","","","","","html-keyboard-response","100","2.0.0","191047","pfusyzqztru","mus","meerkat","21","female","yes","yes","12","3","null","<div style=""font-size:60px;"">+</div>","null","","","","","","",""
"","","","","","audio-keyboard-response","101","2.0.0","191647","pfusyzqztru","mus","meerkat","21","female","yes","yes","12","3","null","stimuli/sounds/drum_label_B.wav","null","","","","","","",""
"","","","","","html-keyboard-response","102","2.0.0","192650","pfusyzqztru","mus","meerkat","21","female","yes","yes","12","3","null","","null","","","","","","",""
"","","","","","image-keyboard-response","103","2.0.0","193249","pfusyzqztru","mus","meerkat","21","female","yes","yes","12","3","598","stimuli/pictures/drum_kit_2.jpg","1","1","","true","yes","sound","stimuli/sounds/drum_label_B.wav",""
"","","","","","audio-keyboard-response","104","2.0.0","194252","pfusyzqztru","mus","meerkat","21","female","yes","yes","12","3","null","stimuli/sounds/bleep.wav","null","","","","","","",""
"","","","","","html-keyboard-response","105","2.0.0","194750","pfusyzqztru","mus","meerkat","21","female","yes","yes","12","3","396","<div style=""font-size:30px;"">Press space to start the trial</div>"," ","","","","","","",""
"","","","","","html-keyboard-response","106","2.0.0","195002","pfusyzqztru","mus","meerkat","21","female","yes","yes","12","3","null","<div style=""font-size:60px;"">+</div>","null","","","","","","",""
"","","","","","audio-keyboard-response","107","2.0.0","195605","pfusyzqztru","mus","meerkat","21","female","yes","yes","12","3","null","stimuli/sounds/phone_label_B.wav","null","","","","","","",""
"","","","","","html-keyboard-response","108","2.0.0","196607","pfusyzqztru","mus","meerkat","21","female","yes","yes","12","3","null","","null","","","","","","",""
"","","","","","image-keyboard-response","109","2.0.0","197387","pfusyzqztru","mus","meerkat","21","female","yes","yes","12","3","779","stimuli/pictures/flute_wooden_2.jpg","0","0","","true","no","sound","stimuli/sounds/phone_label_B.wav",""
"","","","","","audio-keyboard-response","110","2.0.0","198390","pfusyzqztru","mus","meerkat","21","female","yes","yes","12","3","null","stimuli/sounds/bleep.wav","null","","","","","","",""
"","","","","","html-keyboard-response","111","2.0.0","198912","pfusyzqztru","mus","meerkat","21","female","yes","yes","12","3","420","<div style=""font-size:30px;"">Press space to start the trial</div>"," ","","","","","","",""
"","","","","","html-keyboard-response","112","2.0.0","199164","pfusyzqztru","mus","meerkat","21","female","yes","yes","12","3","null","<div style=""font-size:60px;"">+</div>","null","","","","","","",""
"","","","","","audio-keyboard-response","113","2.0.0","199765","pfusyzqztru","mus","meerkat","21","female","yes","yes","12","3","null","stimuli/sounds/piano_label_B.wav","null","","","","","","",""
"","","","","","html-keyboard-response","114","2.0.0","200768","pfusyzqztru","mus","meerkat","21","female","yes","yes","12","3","null","","null","","","","","","",""
"","","","","","image-keyboard-response","115","2.0.0","201629","pfusyzqztru","mus","meerkat","21","female","yes","yes","12","3","860","stimuli/pictures/bird_song_2.jpg","0","0","","true","no","sound","stimuli/sounds/piano_label_B.wav",""
"","","","","","audio-keyboard-response","116","2.0.0","202631","pfusyzqztru","mus","meerkat","21","female","yes","yes","12","3","null","stimuli/sounds/bleep.wav","null","","","","","","",""
"","","","","","html-keyboard-response","117","2.0.0","203131","pfusyzqztru","mus","meerkat","21","female","yes","yes","12","3","398","<div style=""font-size:30px;"">Press space to start the trial</div>"," ","","","","","","",""
"","","","","","html-keyboard-response","118","2.0.0","203383","pfusyzqztru","mus","meerkat","21","female","yes","yes","12","3","null","<div style=""font-size:60px;"">+</div>","null","","","","","","",""
"","","","","","audio-keyboard-response","119","2.0.0","203983","pfusyzqztru","mus","meerkat","21","female","yes","yes","12","3","null","stimuli/sounds/phone_sound_A.wav","null","","","","","","",""
"","","","","","html-keyboard-response","120","2.0.0","204986","pfusyzqztru","mus","meerkat","21","female","yes","yes","12","3","null","","null","","","","","","",""
"","","","","","image-keyboard-response","121","2.0.0","205793","pfusyzqztru","mus","meerkat","21","female","yes","yes","12","3","806","stimuli/pictures/bird_song_1.jpg","0","0","","true","no","sound","stimuli/sounds/phone_sound_A.wav",""
"","","","","","audio-keyboard-response","122","2.0.0","206796","pfusyzqztru","mus","meerkat","21","female","yes","yes","12","3","null","stimuli/sounds/bleep.wav","null","","","","","","",""
"","","","","","html-keyboard-response","123","2.0.0","207338","pfusyzqztru","mus","meerkat","21","female","yes","yes","12","3","439","<div style=""font-size:30px;"">Press space to start the trial</div>"," ","","","","","","",""
"","","","","","html-keyboard-response","124","2.0.0","207590","pfusyzqztru","mus","meerkat","21","female","yes","yes","12","3","null","<div style=""font-size:60px;"">+</div>","null","","","","","","",""
"","","","","","audio-keyboard-response","125","2.0.0","208192","pfusyzqztru","mus","meerkat","21","female","yes","yes","12","3","null","stimuli/sounds/phone_label_B.wav","null","","","","","","",""
"","","","","","html-keyboard-response","126","2.0.0","209195","pfusyzqztru","mus","meerkat","21","female","yes","yes","12","3","null","","null","","","","","","",""
"","","","","","image-keyboard-response","127","2.0.0","209763","pfusyzqztru","mus","meerkat","21","female","yes","yes","12","3","567","stimuli/pictures/flute_wooden_1.jpg","0","0","","true","no","sound","stimuli/sounds/phone_label_B.wav",""
"","","","","","audio-keyboard-response","128","2.0.0","210765","pfusyzqztru","mus","meerkat","21","female","yes","yes","12","3","null","stimuli/sounds/bleep.wav","null","","","","","","",""
"","","","","","html-keyboard-response","129","2.0.0","211332","pfusyzqztru","mus","meerkat","21","female","yes","yes","12","3","464","<div style=""font-size:30px;"">Press space to start the trial</div>"," ","","","","","","",""
"","","","","","html-keyboard-response","130","2.0.0","211584","pfusyzqztru","mus","meerkat","21","female","yes","yes","12","3","null","<div style=""font-size:60px;"">+</div>","null","","","","","","",""
"","","","","","audio-keyboard-response","131","2.0.0","212186","pfusyzqztru","mus","meerkat","21","female","yes","yes","12","3","null","stimuli/sounds/drum_label_B.wav","null","","","","","","",""
"","","","","","html-keyboard-response","132","2.0.0","213189","pfusyzqztru","mus","meerkat","21","female","yes","yes","12","3","null","","null","","","","","","",""
"","","","","","image-keyboard-response","133","2.0.0","213750","pfusyzqztru","mus","meerkat","21","female","yes","yes","12","3","560","stimuli/pictures/drum_kit_1.jpg","1","1","","true","yes","sound","stimuli/sounds/drum_label_B.wav",""
"","","","","","audio-keyboard-response","134","2.0.0","214754","pfusyzqztru","mus","meerkat","21","female","yes","yes","12","3","null","stimuli/sounds/bleep.wav","null","","","","","","",""
"","","","","","html-keyboard-response","135","2.0.0","215570","pfusyzqztru","mus","meerkat","21","female","yes","yes","12","3","715","<div style=""font-size:30px;"">Press space to start the trial</div>"," ","","","","","","",""
"","","","","","html-keyboard-response","136","2.0.0","215823","pfusyzqztru","mus","meerkat","21","female","yes","yes","12","3","null","<div style=""font-size:60px;"">+</div>","null","","","","","","",""
"","","","","","audio-keyboard-response","137","2.0.0","216426","pfusyzqztru","mus","meerkat","21","female","yes","yes","12","3","null","stimuli/sounds/flute_label_A.wav","null","","","","","","",""
"","","","","","html-keyboard-response","138","2.0.0","217428","pfusyzqztru","mus","meerkat","21","female","yes","yes","12","3","null","","null","","","","","","",""
"","","","","","image-keyboard-response","139","2.0.0","218041","pfusyzqztru","mus","meerkat","21","female","yes","yes","12","3","611","stimuli/pictures/piano_grand_1.jpg","0","0","","true","no","sound","stimuli/sounds/flute_label_A.wav",""
"","","","","","audio-keyboard-response","140","2.0.0","219044","pfusyzqztru","mus","meerkat","21","female","yes","yes","12","3","null","stimuli/sounds/bleep.wav","null","","","","","","",""
"","","","","","html-keyboard-response","141","2.0.0","219598","pfusyzqztru","mus","meerkat","21","female","yes","yes","12","3","451","<div style=""font-size:30px;"">Press space to start the trial</div>"," ","","","","","","",""
"","","","","","html-keyboard-response","142","2.0.0","219850","pfusyzqztru","mus","meerkat","21","female","yes","yes","12","3","null","<div style=""font-size:60px;"">+</div>","null","","","","","","",""
"","","","","","audio-keyboard-response","143","2.0.0","220453","pfusyzqztru","mus","meerkat","21","female","yes","yes","12","3","null","stimuli/sounds/phone_label_A.wav","null","","","","","","",""
"","","","","","html-keyboard-response","144","2.0.0","221455","pfusyzqztru","mus","meerkat","21","female","yes","yes","12","3","null","","null","","","","","","",""
"","","","","","image-keyboard-response","145","2.0.0","222162","pfusyzqztru","mus","meerkat","21","female","yes","yes","12","3","705","stimuli/pictures/phone_rotary_2.jpg","1","1","","true","yes","sound","stimuli/sounds/phone_label_A.wav",""
"","","","","","audio-keyboard-response","146","2.0.0","223165","pfusyzqztru","mus","meerkat","21","female","yes","yes","12","3","null","stimuli/sounds/bleep.wav","null","","","","","","",""
"","","","","","html-keyboard-response","147","2.0.0","225359","pfusyzqztru","mus","meerkat","21","female","yes","yes","12","3","2092","<p>You have completed a block. Press R when you are ready to continue</p>","r","","","","","","",""
"","","","","","html-keyboard-response","148","2.0.0","226418","pfusyzqztru","mus","meerkat","21","female","yes","yes","12","3","1059","<div style=""font-size:30px;"">Press space to start the trial</div>"," ","","","","","","",""
"","","","","","html-keyboard-response","149","2.0.0","226670","pfusyzqztru","mus","meerkat","21","female","yes","yes","12","3","null","<div style=""font-size:60px;"">+</div>","null","","","","","","",""
"","","","","","audio-keyboard-response","150","2.0.0","227274","pfusyzqztru","mus","meerkat","21","female","yes","yes","12","3","null","stimuli/sounds/piano_sound_B.wav","null","","","","","","",""
"","","","","","html-keyboard-response","151","2.0.0","228276","pfusyzqztru","mus","meerkat","21","female","yes","yes","12","3","null","","null","","","","","","",""
"","","","","","image-keyboard-response","152","2.0.0","229744","pfusyzqztru","mus","meerkat","21","female","yes","yes","12","3","1467","stimuli/pictures/piano_electric_2.jpg","1","1","","true","yes","sound","stimuli/sounds/piano_sound_B.wav",""
"","","","","","audio-keyboard-response","153","2.0.0","230747","pfusyzqztru","mus","meerkat","21","female","yes","yes","12","3","null","stimuli/sounds/bleep.wav","null","","","","","","",""
"","","","","","html-keyboard-response","154","2.0.0","231224","pfusyzqztru","mus","meerkat","21","female","yes","yes","12","3","375","<div style=""font-size:30px;"">Press space to start the trial</div>"," ","","","","","","",""
"","","","","","html-keyboard-response","155","2.0.0","231476","pfusyzqztru","mus","meerkat","21","female","yes","yes","12","3","null","<div style=""font-size:60px;"">+</div>","null","","","","","","",""
"","","","","","audio-keyboard-response","156","2.0.0","232079","pfusyzqztru","mus","meerkat","21","female","yes","yes","12","3","null","stimuli/sounds/flute_label_A.wav","null","","","","","","",""
"","","","","","html-keyboard-response","157","2.0.0","233081","pfusyzqztru","mus","meerkat","21","female","yes","yes","12","3","null","","null","","","","","","",""
"","","","","","image-keyboard-response","158","2.0.0","233531","pfusyzqztru","mus","meerkat","21","female","yes","yes","12","3","448","stimuli/pictures/flute_metal_1.jpg","1","1","","true","yes","sound","stimuli/sounds/flute_label_A.wav",""
"","","","","","audio-keyboard-response","159","2.0.0","234534","pfusyzqztru","mus","meerkat","21","female","yes","yes","12","3","null","stimuli/sounds/bleep.wav","null","","","","","","",""
"","","","","","html-keyboard-response","160","2.0.0","235042","pfusyzqztru","mus","meerkat","21","female","yes","yes","12","3","405","<div style=""font-size:30px;"">Press space to start the trial</div>"," ","","","","","","",""
"","","","","","html-keyboard-response","161","2.0.0","235294","pfusyzqztru","mus","meerkat","21","female","yes","yes","12","3","null","<div style=""font-size:60px;"">+</div>","null","","","","","","",""
"","","","","","audio-keyboard-response","162","2.0.0","235898","pfusyzqztru","mus","meerkat","21","female","yes","yes","12","3","null","stimuli/sounds/phone_sound_A.wav","null","","","","","","",""
"","","","","","html-keyboard-response","163","2.0.0","236901","pfusyzqztru","mus","meerkat","21","female","yes","yes","12","3","null","","null","","","","","","",""
"","","","","","image-keyboard-response","164","2.0.0","237410","pfusyzqztru","mus","meerkat","21","female","yes","yes","12","3","509","stimuli/pictures/phone_rotary_1.jpg","1","1","","true","no","sound","stimuli/sounds/phone_sound_A.wav",""
"","","","","","audio-keyboard-response","165","2.0.0","238414","pfusyzqztru","mus","meerkat","21","female","yes","yes","12","3","null","stimuli/sounds/bleep.wav","null","","","","","","",""
"","","","","","html-keyboard-response","166","2.0.0","239009","pfusyzqztru","mus","meerkat","21","female","yes","yes","12","3","493","<div style=""font-size:30px;"">Press space to start the trial</div>"," ","","","","","","",""
"","","","","","html-keyboard-response","167","2.0.0","239262","pfusyzqztru","mus","meerkat","21","female","yes","yes","12","3","null","<div style=""font-size:60px;"">+</div>","null","","","","","","",""
"","","","","","audio-keyboard-response","168","2.0.0","239861","pfusyzqztru","mus","meerkat","21","female","yes","yes","12","3","null","stimuli/sounds/bird_label_B.wav","null","","","","","","",""
"","","","","","html-keyboard-response","169","2.0.0","240864","pfusyzqztru","mus","meerkat","21","female","yes","yes","12","3","null","","null","","","","","","",""
"","","","","","image-keyboard-response","170","2.0.0","241551","pfusyzqztru","mus","meerkat","21","female","yes","yes","12","3","686","stimuli/pictures/bird_song_1.jpg","1","1","","true","yes","sound","stimuli/sounds/bird_label_B.wav",""
"","","","","","audio-keyboard-response","171","2.0.0","242554","pfusyzqztru","mus","meerkat","21","female","yes","yes","12","3","null","stimuli/sounds/bleep.wav","null","","","","","","",""
"","","","","","html-keyboard-response","172","2.0.0","243181","pfusyzqztru","mus","meerkat","21","female","yes","yes","12","3","525","<div style=""font-size:30px;"">Press space to start the trial</div>"," ","","","","","","",""
"","","","","","html-keyboard-response","173","2.0.0","243433","pfusyzqztru","mus","meerkat","21","female","yes","yes","12","3","null","<div style=""font-size:60px;"">+</div>","null","","","","","","",""
"","","","","","audio-keyboard-response","174","2.0.0","244037","pfusyzqztru","mus","meerkat","21","female","yes","yes","12","3","null","stimuli/sounds/phone_sound_B.wav","null","","","","","","",""
"","","","","","html-keyboard-response","175","2.0.0","245039","pfusyzqztru","mus","meerkat","21","female","yes","yes","12","3","null","","null","","","","","","",""
"","","","","","image-keyboard-response","176","2.0.0","245507","pfusyzqztru","mus","meerkat","21","female","yes","yes","12","3","467","stimuli/pictures/phone_rotary_1.jpg","1","1","","true","yes","sound","stimuli/sounds/phone_sound_B.wav",""
"","","","","","audio-keyboard-response","177","2.0.0","246509","pfusyzqztru","mus","meerkat","21","female","yes","yes","12","3","null","stimuli/sounds/bleep.wav","null","","","","","","",""
"","","","","","html-keyboard-response","178","2.0.0","247100","pfusyzqztru","mus","meerkat","21","female","yes","yes","12","3","489","<div style=""font-size:30px;"">Press space to start the trial</div>"," ","","","","","","",""
"","","","","","html-keyboard-response","179","2.0.0","247352","pfusyzqztru","mus","meerkat","21","female","yes","yes","12","3","null","<div style=""font-size:60px;"">+</div>","null","","","","","","",""
"","","","","","audio-keyboard-response","180","2.0.0","247957","pfusyzqztru","mus","meerkat","21","female","yes","yes","12","3","null","stimuli/sounds/piano_sound_A.wav","null","","","","","","",""
"","","","","","html-keyboard-response","181","2.0.0","248959","pfusyzqztru","mus","meerkat","21","female","yes","yes","12","3","null","","null","","","","","","",""
"","","","","","image-keyboard-response","182","2.0.0","249756","pfusyzqztru","mus","meerkat","21","female","yes","yes","12","3","795","stimuli/pictures/piano_electric_2.jpg","1","1","","true","no","sound","stimuli/sounds/piano_sound_A.wav",""
"","","","","","audio-keyboard-response","183","2.0.0","250758","pfusyzqztru","mus","meerkat","21","female","yes","yes","12","3","null","stimuli/sounds/bleep.wav","null","","","","","","",""
"","","","","","html-keyboard-response","184","2.0.0","251600","pfusyzqztru","mus","meerkat","21","female","yes","yes","12","3","740","<div style=""font-size:30px;"">Press space to start the trial</div>"," ","","","","","","",""
"","","","","","html-keyboard-response","185","2.0.0","251852","pfusyzqztru","mus","meerkat","21","female","yes","yes","12","3","null","<div style=""font-size:60px;"">+</div>","null","","","","","","",""
"","","","","","audio-keyboard-response","186","2.0.0","252479","pfusyzqztru","mus","meerkat","21","female","yes","yes","12","3","null","stimuli/sounds/piano_label_A.wav","null","","","","","","",""
"","","","","","html-keyboard-response","187","2.0.0","253482","pfusyzqztru","mus","meerkat","21","female","yes","yes","12","3","null","","null","","","","","","",""
"","","","","","image-keyboard-response","188","2.0.0","253999","pfusyzqztru","mus","meerkat","21","female","yes","yes","12","3","515","stimuli/pictures/phone_cell_1.jpg","0","0","","true","no","sound","stimuli/sounds/piano_label_A.wav",""
"","","","","","audio-keyboard-response","189","2.0.0","255002","pfusyzqztru","mus","meerkat","21","female","yes","yes","12","3","null","stimuli/sounds/bleep.wav","null","","","","","","",""
"","","","","","html-keyboard-response","190","2.0.0","255478","pfusyzqztru","mus","meerkat","21","female","yes","yes","12","3","373","<div style=""font-size:30px;"">Press space to start the trial</div>"," ","","","","","","",""
"","","","","","html-keyboard-response","191","2.0.0","255730","pfusyzqztru","mus","meerkat","21","female","yes","yes","12","3","null","<div style=""font-size:60px;"">+</div>","null","","","","","","",""
"","","","","","audio-keyboard-response","192","2.0.0","256330","pfusyzqztru","mus","meerkat","21","female","yes","yes","12","3","null","stimuli/sounds/drum_sound_B.wav","null","","","","","","",""
"","","","","","html-keyboard-response","193","2.0.0","257333","pfusyzqztru","mus","meerkat","21","female","yes","yes","12","3","null","","null","","","","","","",""
"","","","","","image-keyboard-response","194","2.0.0","258236","pfusyzqztru","mus","meerkat","21","female","yes","yes","12","3","901","stimuli/pictures/phone_rotary_1.jpg","0","0","","true","no","sound","stimuli/sounds/drum_sound_B.wav",""
"","","","","","audio-keyboard-response","195","2.0.0","259239","pfusyzqztru","mus","meerkat","21","female","yes","yes","12","3","null","stimuli/sounds/bleep.wav","null","","","","","","",""
"","","","","","html-keyboard-response","196","2.0.0","259746","pfusyzqztru","mus","meerkat","21","female","yes","yes","12","3","404","<div style=""font-size:30px;"">Press space to start the trial</div>"," ","","","","","","",""
"","","","","","html-keyboard-response","197","2.0.0","259999","pfusyzqztru","mus","meerkat","21","female","yes","yes","12","3","null","<div style=""font-size:60px;"">+</div>","null","","","","","","",""
"","","","","","audio-keyboard-response","198","2.0.0","260602","pfusyzqztru","mus","meerkat","21","female","yes","yes","12","3","null","stimuli/sounds/phone_sound_B.wav","null","","","","","","",""
"","","","","","html-keyboard-response","199","2.0.0","261604","pfusyzqztru","mus","meerkat","21","female","yes","yes","12","3","null","","null","","","","","","",""
"","","","","","image-keyboard-response","200","2.0.0","262485","pfusyzqztru","mus","meerkat","21","female","yes","yes","12","3","879","stimuli/pictures/piano_grand_1.jpg","0","0","","true","no","sound","stimuli/sounds/phone_sound_B.wav",""
"","","","","","audio-keyboard-response","201","2.0.0","263488","pfusyzqztru","mus","meerkat","21","female","yes","yes","12","3","null","stimuli/sounds/bleep.wav","null","","","","","","",""
"","","","","","html-keyboard-response","202","2.0.0","264030","pfusyzqztru","mus","meerkat","21","female","yes","yes","12","3","439","<div style=""font-size:30px;"">Press space to start the trial</div>"," ","","","","","","",""
"","","","","","html-keyboard-response","203","2.0.0","264282","pfusyzqztru","mus","meerkat","21","female","yes","yes","12","3","null","<div style=""font-size:60px;"">+</div>","null","","","","","","",""
"","","","","","audio-keyboard-response","204","2.0.0","264885","pfusyzqztru","mus","meerkat","21","female","yes","yes","12","3","null","stimuli/sounds/drum_label_B.wav","null","","","","","","",""
"","","","","","html-keyboard-response","205","2.0.0","265888","pfusyzqztru","mus","meerkat","21","female","yes","yes","12","3","null","","null","","","","","","",""
"","","","","","image-keyboard-response","206","2.0.0","266400","pfusyzqztru","mus","meerkat","21","female","yes","yes","12","3","511","stimuli/pictures/drum_bongo_2.jpg","1","1","","true","yes","sound","stimuli/sounds/drum_label_B.wav",""
"","","","","","audio-keyboard-response","207","2.0.0","267403","pfusyzqztru","mus","meerkat","21","female","yes","yes","12","3","null","stimuli/sounds/bleep.wav","null","","","","","","",""
"","","","","","html-keyboard-response","208","2.0.0","267894","pfusyzqztru","mus","meerkat","21","female","yes","yes","12","3","389","<div style=""font-size:30px;"">Press space to start the trial</div>"," ","","","","","","",""
"","","","","","html-keyboard-response","209","2.0.0","268147","pfusyzqztru","mus","meerkat","21","female","yes","yes","12","3","null","<div style=""font-size:60px;"">+</div>","null","","","","","","",""
"","","","","","audio-keyboard-response","210","2.0.0","268751","pfusyzqztru","mus","meerkat","21","female","yes","yes","12","3","null","stimuli/sounds/drum_sound_B.wav","null","","","","","","",""
"","","","","","html-keyboard-response","211","2.0.0","269754","pfusyzqztru","mus","meerkat","21","female","yes","yes","12","3","null","","null","","","","","","",""
"","","","","","image-keyboard-response","212","2.0.0","270224","pfusyzqztru","mus","meerkat","21","female","yes","yes","12","3","468","stimuli/pictures/drum_bongo_2.jpg","1","1","","true","yes","sound","stimuli/sounds/drum_sound_B.wav",""
"","","","","","audio-keyboard-response","213","2.0.0","271227","pfusyzqztru","mus","meerkat","21","female","yes","yes","12","3","null","stimuli/sounds/bleep.wav","null","","","","","","",""
"","","","","","html-keyboard-response","214","2.0.0","271935","pfusyzqztru","mus","meerkat","21","female","yes","yes","12","3","606","<div style=""font-size:30px;"">Press space to start the trial</div>"," ","","","","","","",""
"","","","","","html-keyboard-response","215","2.0.0","272187","pfusyzqztru","mus","meerkat","21","female","yes","yes","12","3","null","<div style=""font-size:60px;"">+</div>","null","","","","","","",""
"","","","","","audio-keyboard-response","216","2.0.0","272788","pfusyzqztru","mus","meerkat","21","female","yes","yes","12","3","null","stimuli/sounds/bird_label_A.wav","null","","","","","","",""
"","","","","","html-keyboard-response","217","2.0.0","273790","pfusyzqztru","mus","meerkat","21","female","yes","yes","12","3","null","","null","","","","","","",""
"","","","","","image-keyboard-response","218","2.0.0","274360","pfusyzqztru","mus","meerkat","21","female","yes","yes","12","3","568","stimuli/pictures/flute_metal_2.jpg","0","0","","true","no","sound","stimuli/sounds/bird_label_A.wav",""
"","","","","","audio-keyboard-response","219","2.0.0","275363","pfusyzqztru","mus","meerkat","21","female","yes","yes","12","3","null","stimuli/sounds/bleep.wav","null","","","","","","",""
"","","","","","html-keyboard-response","220","2.0.0","275809","pfusyzqztru","mus","meerkat","21","female","yes","yes","12","3","345","<div style=""font-size:30px;"">Press space to start the trial</div>"," ","","","","","","",""
"","","","","","html-keyboard-response","221","2.0.0","276062","pfusyzqztru","mus","meerkat","21","female","yes","yes","12","3","null","<div style=""font-size:60px;"">+</div>","null","","","","","","",""
"","","","","","audio-keyboard-response","222","2.0.0","276666","pfusyzqztru","mus","meerkat","21","female","yes","yes","12","3","null","stimuli/sounds/flute_sound_B.wav","null","","","","","","",""
"","","","","","html-keyboard-response","223","2.0.0","277669","pfusyzqztru","mus","meerkat","21","female","yes","yes","12","3","null","","null","","","","","","",""
"","","","","","image-keyboard-response","224","2.0.0","278107","pfusyzqztru","mus","meerkat","21","female","yes","yes","12","3","437","stimuli/pictures/bird_hawk_1.jpg","0","0","","true","no","sound","stimuli/sounds/flute_sound_B.wav",""
"","","","","","audio-keyboard-response","225","2.0.0","279110","pfusyzqztru","mus","meerkat","21","female","yes","yes","12","3","null","stimuli/sounds/bleep.wav","null","","","","","","",""
"","","","","","html-keyboard-response","226","2.0.0","279661","pfusyzqztru","mus","meerkat","21","female","yes","yes","12","3","449","<div style=""font-size:30px;"">Press space to start the trial</div>"," ","","","","","","",""
"","","","","","html-keyboard-response","227","2.0.0","279913","pfusyzqztru","mus","meerkat","21","female","yes","yes","12","3","null","<div style=""font-size:60px;"">+</div>","null","","","","","","",""
"","","","","","audio-keyboard-response","228","2.0.0","280516","pfusyzqztru","mus","meerkat","21","female","yes","yes","12","3","null","stimuli/sounds/bird_label_A.wav","null","","","","","","",""
"","","","","","html-keyboard-response","229","2.0.0","281518","pfusyzqztru","mus","meerkat","21","female","yes","yes","12","3","null","","null","","","","","","",""
"","","","","","image-keyboard-response","230","2.0.0","281950","pfusyzqztru","mus","meerkat","21","female","yes","yes","12","3","430","stimuli/pictures/bird_hawk_1.jpg","1","1","","true","yes","sound","stimuli/sounds/bird_label_A.wav",""
"","","","","","audio-keyboard-response","231","2.0.0","282953","pfusyzqztru","mus","meerkat","21","female","yes","yes","12","3","null","stimuli/sounds/bleep.wav","null","","","","","","",""
"","","","","","html-keyboard-response","232","2.0.0","283575","pfusyzqztru","mus","meerkat","21","female","yes","yes","12","3","518","<div style=""font-size:30px;"">Press space to start the trial</div>"," ","","","","","","",""
"","","","","","html-keyboard-response","233","2.0.0","283827","pfusyzqztru","mus","meerkat","21","female","yes","yes","12","3","null","<div style=""font-size:60px;"">+</div>","null","","","","","","",""
"","","","","","audio-keyboard-response","234","2.0.0","284431","pfusyzqztru","mus","meerkat","21","female","yes","yes","12","3","null","stimuli/sounds/piano_sound_A.wav","null","","","","","","",""
"","","","","","html-keyboard-response","235","2.0.0","285434","pfusyzqztru","mus","meerkat","21","female","yes","yes","12","3","null","","null","","","","","","",""
"","","","","","image-keyboard-response","236","2.0.0","286006","pfusyzqztru","mus","meerkat","21","female","yes","yes","12","3","571","stimuli/pictures/drum_bongo_2.jpg","0","0","","true","no","sound","stimuli/sounds/piano_sound_A.wav",""
"","","","","","audio-keyboard-response","237","2.0.0","287009","pfusyzqztru","mus","meerkat","21","female","yes","yes","12","3","null","stimuli/sounds/bleep.wav","null","","","","","","",""
"","","","","","html-keyboard-response","238","2.0.0","287534","pfusyzqztru","mus","meerkat","21","female","yes","yes","12","3","422","<div style=""font-size:30px;"">Press space to start the trial</div>"," ","","","","","","",""
"","","","","","html-keyboard-response","239","2.0.0","287787","pfusyzqztru","mus","meerkat","21","female","yes","yes","12","3","null","<div style=""font-size:60px;"">+</div>","null","","","","","","",""
"","","","","","audio-keyboard-response","240","2.0.0","288394","pfusyzqztru","mus","meerkat","21","female","yes","yes","12","3","null","stimuli/sounds/piano_sound_B.wav","null","","","","","","",""
"","","","","","html-keyboard-response","241","2.0.0","289396","pfusyzqztru","mus","meerkat","21","female","yes","yes","12","3","null","","null","","","","","","",""
"","","","","","image-keyboard-response","242","2.0.0","290159","pfusyzqztru","mus","meerkat","21","female","yes","yes","12","3","762","stimuli/pictures/flute_wooden_1.jpg","0","0","","true","no","sound","stimuli/sounds/piano_sound_B.wav",""
"","","","","","audio-keyboard-response","243","2.0.0","291162","pfusyzqztru","mus","meerkat","21","female","yes","yes","12","3","null","stimuli/sounds/bleep.wav","null","","","","","","",""
"","","","","","html-keyboard-response","244","2.0.0","292365","pfusyzqztru","mus","meerkat","21","female","yes","yes","12","3","1101","<div style=""font-size:30px;"">Press space to start the trial</div>"," ","","","","","","",""
"","","","","","html-keyboard-response","245","2.0.0","292618","pfusyzqztru","mus","meerkat","21","female","yes","yes","12","3","null","<div style=""font-size:60px;"">+</div>","null","","","","","","",""
"","","","","","audio-keyboard-response","246","2.0.0","293247","pfusyzqztru","mus","meerkat","21","female","yes","yes","12","3","null","stimuli/sounds/piano_label_A.wav","null","","","","","","",""
"","","","","","html-keyboard-response","247","2.0.0","294249","pfusyzqztru","mus","meerkat","21","female","yes","yes","12","3","null","","null","","","","","","",""
"","","","","","image-keyboard-response","248","2.0.0","294768","pfusyzqztru","mus","meerkat","21","female","yes","yes","12","3","518","stimuli/pictures/phone_cell_2.jpg","0","0","","true","no","sound","stimuli/sounds/piano_label_A.wav",""
"","","","","","audio-keyboard-response","249","2.0.0","295771","pfusyzqztru","mus","meerkat","21","female","yes","yes","12","3","null","stimuli/sounds/bleep.wav","null","","","","","","",""
"","","","","","html-keyboard-response","250","2.0.0","296342","pfusyzqztru","mus","meerkat","21","female","yes","yes","12","3","469","<div style=""font-size:30px;"">Press space to start the trial</div>"," ","","","","","","",""
"","","","","","html-keyboard-response","251","2.0.0","296594","pfusyzqztru","mus","meerkat","21","female","yes","yes","12","3","null","<div style=""font-size:60px;"">+</div>","null","","","","","","",""
"","","","","","audio-keyboard-response","252","2.0.0","297194","pfusyzqztru","mus","meerkat","21","female","yes","yes","12","3","null","stimuli/sounds/bird_sound_A.wav","null","","","","","","",""
"","","","","","html-keyboard-response","253","2.0.0","298196","pfusyzqztru","mus","meerkat","21","female","yes","yes","12","3","null","","null","","","","","","",""
"","","","","","image-keyboard-response","254","2.0.0","298780","pfusyzqztru","mus","meerkat","21","female","yes","yes","12","3","583","stimuli/pictures/piano_electric_2.jpg","0","0","","true","no","sound","stimuli/sounds/bird_sound_A.wav",""
"","","","","","audio-keyboard-response","255","2.0.0","299782","pfusyzqztru","mus","meerkat","21","female","yes","yes","12","3","null","stimuli/sounds/bleep.wav","null","","","","","","",""
"","","","","","html-keyboard-response","256","2.0.0","303396","pfusyzqztru","mus","meerkat","21","female","yes","yes","12","3","3511","<div style=""font-size:30px;"">Press space to start the trial</div>"," ","","","","","","",""
"","","","","","html-keyboard-response","257","2.0.0","303648","pfusyzqztru","mus","meerkat","21","female","yes","yes","12","3","null","<div style=""font-size:60px;"">+</div>","null","","","","","","",""
"","","","","","audio-keyboard-response","258","2.0.0","304249","pfusyzqztru","mus","meerkat","21","female","yes","yes","12","3","null","stimuli/sounds/drum_sound_B.wav","null","","","","","","",""
"","","","","","html-keyboard-response","259","2.0.0","305252","pfusyzqztru","mus","meerkat","21","female","yes","yes","12","3","null","","null","","","","","","",""
"","","","","","image-keyboard-response","260","2.0.0","305913","pfusyzqztru","mus","meerkat","21","female","yes","yes","12","3","660","stimuli/pictures/drum_bongo_1.jpg","1","1","","true","yes","sound","stimuli/sounds/drum_sound_B.wav",""
"","","","","","audio-keyboard-response","261","2.0.0","306916","pfusyzqztru","mus","meerkat","21","female","yes","yes","12","3","null","stimuli/sounds/bleep.wav","null","","","","","","",""
"","","","","","html-keyboard-response","262","2.0.0","307669","pfusyzqztru","mus","meerkat","21","female","yes","yes","12","3","651","<div style=""font-size:30px;"">Press space to start the trial</div>"," ","","","","","","",""
"","","","","","html-keyboard-response","263","2.0.0","307922","pfusyzqztru","mus","meerkat","21","female","yes","yes","12","3","null","<div style=""font-size:60px;"">+</div>","null","","","","","","",""
"","","","","","audio-keyboard-response","264","2.0.0","308521","pfusyzqztru","mus","meerkat","21","female","yes","yes","12","3","null","stimuli/sounds/phone_sound_B.wav","null","","","","","","",""
"","","","","","html-keyboard-response","265","2.0.0","309524","pfusyzqztru","mus","meerkat","21","female","yes","yes","12","3","null","","null","","","","","","",""
"","","","","","image-keyboard-response","266","2.0.0","310273","pfusyzqztru","mus","meerkat","21","female","yes","yes","12","3","748","stimuli/pictures/phone_cell_1.jpg","0","1","","false","no","sound","stimuli/sounds/phone_sound_B.wav",""
"","","","","","audio-keyboard-response","267","2.0.0","311277","pfusyzqztru","mus","meerkat","21","female","yes","yes","12","3","null","stimuli/sounds/buzz.wav","null","","","","","","",""
"","","","","","html-keyboard-response","268","2.0.0","313174","pfusyzqztru","mus","meerkat","21","female","yes","yes","12","3","1794","<p>You have completed a block. Press R when you are ready to continue</p>","r","","","","","","",""
"","","","","","html-keyboard-response","269","2.0.0","314033","pfusyzqztru","mus","meerkat","21","female","yes","yes","12","3","858","<div style=""font-size:30px;"">Press space to start the trial</div>"," ","","","","","","",""
"","","","","","html-keyboard-response","270","2.0.0","314285","pfusyzqztru","mus","meerkat","21","female","yes","yes","12","3","null","<div style=""font-size:60px;"">+</div>","null","","","","","","",""
"","","","","","audio-keyboard-response","271","2.0.0","314890","pfusyzqztru","mus","meerkat","21","female","yes","yes","12","3","null","stimuli/sounds/piano_sound_B.wav","null","","","","","","",""
"","","","","","html-keyboard-response","272","2.0.0","315892","pfusyzqztru","mus","meerkat","21","female","yes","yes","12","3","null","","null","","","","","","",""
"","","","","","image-keyboard-response","273","2.0.0","316673","pfusyzqztru","mus","meerkat","21","female","yes","yes","12","3","780","stimuli/pictures/piano_grand_1.jpg","1","1","","true","no","sound","stimuli/sounds/piano_sound_B.wav",""
"","","","","","audio-keyboard-response","274","2.0.0","317677","pfusyzqztru","mus","meerkat","21","female","yes","yes","12","3","null","stimuli/sounds/bleep.wav","null","","","","","","",""
"","","","","","html-keyboard-response","275","2.0.0","318364","pfusyzqztru","mus","meerkat","21","female","yes","yes","12","3","585","<div style=""font-size:30px;"">Press space to start the trial</div>"," ","","","","","","",""
"","","","","","html-keyboard-response","276","2.0.0","318616","pfusyzqztru","mus","meerkat","21","female","yes","yes","12","3","null","<div style=""font-size:60px;"">+</div>","null","","","","","","",""
"","","","","","audio-keyboard-response","277","2.0.0","319220","pfusyzqztru","mus","meerkat","21","female","yes","yes","12","3","null","stimuli/sounds/drum_label_B.wav","null","","","","","","",""
"","","","","","html-keyboard-response","278","2.0.0","320223","pfusyzqztru","mus","meerkat","21","female","yes","yes","12","3","null","","null","","","","","","",""
"","","","","","image-keyboard-response","279","2.0.0","320643","pfusyzqztru","mus","meerkat","21","female","yes","yes","12","3","419","stimuli/pictures/drum_bongo_1.jpg","1","1","","true","yes","sound","stimuli/sounds/drum_label_B.wav",""
"","","","","","audio-keyboard-response","280","2.0.0","321646","pfusyzqztru","mus","meerkat","21","female","yes","yes","12","3","null","stimuli/sounds/bleep.wav","null","","","","","","",""
"","","","","","html-keyboard-response","281","2.0.0","322230","pfusyzqztru","mus","meerkat","21","female","yes","yes","12","3","482","<div style=""font-size:30px;"">Press space to start the trial</div>"," ","","","","","","",""
"","","","","","html-keyboard-response","282","2.0.0","322482","pfusyzqztru","mus","meerkat","21","female","yes","yes","12","3","null","<div style=""font-size:60px;"">+</div>","null","","","","","","",""
"","","","","","audio-keyboard-response","283","2.0.0","323081","pfusyzqztru","mus","meerkat","21","female","yes","yes","12","3","null","stimuli/sounds/phone_label_B.wav","null","","","","","","",""
"","","","","","html-keyboard-response","284","2.0.0","324083","pfusyzqztru","mus","meerkat","21","female","yes","yes","12","3","null","","null","","","","","","",""
"","","","","","image-keyboard-response","285","2.0.0","325330","pfusyzqztru","mus","meerkat","21","female","yes","yes","12","3","1245","stimuli/pictures/phone_cell_2.jpg","1","1","","true","yes","sound","stimuli/sounds/phone_label_B.wav",""
"","","","","","audio-keyboard-response","286","2.0.0","326333","pfusyzqztru","mus","meerkat","21","female","yes","yes","12","3","null","stimuli/sounds/bleep.wav","null","","","","","","",""
"","","","","","html-keyboard-response","287","2.0.0","327047","pfusyzqztru","mus","meerkat","21","female","yes","yes","12","3","611","<div style=""font-size:30px;"">Press space to start the trial</div>"," ","","","","","","",""
"","","","","","html-keyboard-response","288","2.0.0","327300","pfusyzqztru","mus","meerkat","21","female","yes","yes","12","3","null","<div style=""font-size:60px;"">+</div>","null","","","","","","",""
"","","","","","audio-keyboard-response","289","2.0.0","327903","pfusyzqztru","mus","meerkat","21","female","yes","yes","12","3","null","stimuli/sounds/bird_sound_B.wav","null","","","","","","",""
"","","","","","html-keyboard-response","290","2.0.0","328905","pfusyzqztru","mus","meerkat","21","female","yes","yes","12","3","null","","null","","","","","","",""
"","","","","","image-keyboard-response","291","2.0.0","329371","pfusyzqztru","mus","meerkat","21","female","yes","yes","12","3","464","stimuli/pictures/drum_bongo_2.jpg","0","0","","true","no","sound","stimuli/sounds/bird_sound_B.wav",""
"","","","","","audio-keyboard-response","292","2.0.0","330373","pfusyzqztru","mus","meerkat","21","female","yes","yes","12","3","null","stimuli/sounds/bleep.wav","null","","","","","","",""
"","","","","","html-keyboard-response","293","2.0.0","330940","pfusyzqztru","mus","meerkat","21","female","yes","yes","12","3","464","<div style=""font-size:30px;"">Press space to start the trial</div>"," ","","","","","","",""
"","","","","","html-keyboard-response","294","2.0.0","331192","pfusyzqztru","mus","meerkat","21","female","yes","yes","12","3","null","<div style=""font-size:60px;"">+</div>","null","","","","","","",""
"","","","","","audio-keyboard-response","295","2.0.0","331796","pfusyzqztru","mus","meerkat","21","female","yes","yes","12","3","null","stimuli/sounds/piano_label_B.wav","null","","","","","","",""
"","","","","","html-keyboard-response","296","2.0.0","332798","pfusyzqztru","mus","meerkat","21","female","yes","yes","12","3","null","","null","","","","","","",""
"","","","","","image-keyboard-response","297","2.0.0","333220","pfusyzqztru","mus","meerkat","21","female","yes","yes","12","3","420","stimuli/pictures/piano_grand_2.jpg","1","1","","true","yes","sound","stimuli/sounds/piano_label_B.wav",""
"","","","","","audio-keyboard-response","298","2.0.0","334223","pfusyzqztru","mus","meerkat","21","female","yes","yes","12","3","null","stimuli/sounds/bleep.wav","null","","","","","","",""
"","","","","","html-keyboard-response","299","2.0.0","334701","pfusyzqztru","mus","meerkat","21","female","yes","yes","12","3","375","<div style=""font-size:30px;"">Press space to start the trial</div>"," ","","","","","","",""
"","","","","","html-keyboard-response","300","2.0.0","334953","pfusyzqztru","mus","meerkat","21","female","yes","yes","12","3","null","<div style=""font-size:60px;"">+</div>","null","","","","","","",""
"","","","","","audio-keyboard-response","301","2.0.0","335556","pfusyzqztru","mus","meerkat","21","female","yes","yes","12","3","null","stimuli/sounds/bird_sound_A.wav","null","","","","","","",""
"","","","","","html-keyboard-response","302","2.0.0","336558","pfusyzqztru","mus","meerkat","21","female","yes","yes","12","3","null","","null","","","","","","",""
"","","","","","image-keyboard-response","303","2.0.0","337402","pfusyzqztru","mus","meerkat","21","female","yes","yes","12","3","841","stimuli/pictures/bird_song_1.jpg","1","1","","true","no","sound","stimuli/sounds/bird_sound_A.wav",""
"","","","","","audio-keyboard-response","304","2.0.0","338405","pfusyzqztru","mus","meerkat","21","female","yes","yes","12","3","null","stimuli/sounds/bleep.wav","null","","","","","","",""
"","","","","","html-keyboard-response","305","2.0.0","338901","pfusyzqztru","mus","meerkat","21","female","yes","yes","12","3","393","<div style=""font-size:30px;"">Press space to start the trial</div>"," ","","","","","","",""
"","","","","","html-keyboard-response","306","2.0.0","339153","pfusyzqztru","mus","meerkat","21","female","yes","yes","12","3","null","<div style=""font-size:60px;"">+</div>","null","","","","","","",""
"","","","","","audio-keyboard-response","307","2.0.0","339753","pfusyzqztru","mus","meerkat","21","female","yes","yes","12","3","null","stimuli/sounds/phone_sound_A.wav","null","","","","","","",""
"","","","","","html-keyboard-response","308","2.0.0","340755","pfusyzqztru","mus","meerkat","21","female","yes","yes","12","3","null","","null","","","","","","",""
"","","","","","image-keyboard-response","309","2.0.0","343536","pfusyzqztru","mus","meerkat","21","female","yes","yes","12","3","2779","stimuli/pictures/bird_hawk_1.jpg","0","0","","true","no","sound","stimuli/sounds/phone_sound_A.wav",""
"","","","","","audio-keyboard-response","310","2.0.0","344539","pfusyzqztru","mus","meerkat","21","female","yes","yes","12","3","null","stimuli/sounds/bleep.wav","null","","","","","","",""
"","","","","","html-keyboard-response","311","2.0.0","345103","pfusyzqztru","mus","meerkat","21","female","yes","yes","12","3","462","<div style=""font-size:30px;"">Press space to start the trial</div>"," ","","","","","","",""
"","","","","","html-keyboard-response","312","2.0.0","345356","pfusyzqztru","mus","meerkat","21","female","yes","yes","12","3","null","<div style=""font-size:60px;"">+</div>","null","","","","","","",""
"","","","","","audio-keyboard-response","313","2.0.0","345956","pfusyzqztru","mus","meerkat","21","female","yes","yes","12","3","null","stimuli/sounds/drum_sound_B.wav","null","","","","","","",""
"","","","","","html-keyboard-response","314","2.0.0","346958","pfusyzqztru","mus","meerkat","21","female","yes","yes","12","3","null","","null","","","","","","",""
"","","","","","image-keyboard-response","315","2.0.0","347500","pfusyzqztru","mus","meerkat","21","female","yes","yes","12","3","541","stimuli/pictures/drum_kit_2.jpg","1","1","","true","no","sound","stimuli/sounds/drum_sound_B.wav",""
"","","","","","audio-keyboard-response","316","2.0.0","348503","pfusyzqztru","mus","meerkat","21","female","yes","yes","12","3","null","stimuli/sounds/bleep.wav","null","","","","","","",""
"","","","","","html-keyboard-response","317","2.0.0","349082","pfusyzqztru","mus","meerkat","21","female","yes","yes","12","3","477","<div style=""font-size:30px;"">Press space to start the trial</div>"," ","","","","","","",""
"","","","","","html-keyboard-response","318","2.0.0","349335","pfusyzqztru","mus","meerkat","21","female","yes","yes","12","3","null","<div style=""font-size:60px;"">+</div>","null","","","","","","",""
"","","","","","audio-keyboard-response","319","2.0.0","349940","pfusyzqztru","mus","meerkat","21","female","yes","yes","12","3","null","stimuli/sounds/piano_sound_A.wav","null","","","","","","",""
"","","","","","html-keyboard-response","320","2.0.0","350942","pfusyzqztru","mus","meerkat","21","female","yes","yes","12","3","null","","null","","","","","","",""
"","","","","","image-keyboard-response","321","2.0.0","351518","pfusyzqztru","mus","meerkat","21","female","yes","yes","12","3","574","stimuli/pictures/drum_kit_2.jpg","0","0","","true","no","sound","stimuli/sounds/piano_sound_A.wav",""
"","","","","","audio-keyboard-response","322","2.0.0","352521","pfusyzqztru","mus","meerkat","21","female","yes","yes","12","3","null","stimuli/sounds/bleep.wav","null","","","","","","",""
"","","","","","html-keyboard-response","323","2.0.0","353116","pfusyzqztru","mus","meerkat","21","female","yes","yes","12","3","493","<div style=""font-size:30px;"">Press space to start the trial</div>"," ","","","","","","",""
"","","","","","html-keyboard-response","324","2.0.0","353368","pfusyzqztru","mus","meerkat","21","female","yes","yes","12","3","null","<div style=""font-size:60px;"">+</div>","null","","","","","","",""
"","","","","","audio-keyboard-response","325","2.0.0","353977","pfusyzqztru","mus","meerkat","21","female","yes","yes","12","3","null","stimuli/sounds/flute_label_B.wav","null","","","","","","",""
"","","","","","html-keyboard-response","326","2.0.0","354980","pfusyzqztru","mus","meerkat","21","female","yes","yes","12","3","null","","null","","","","","","",""
"","","","","","image-keyboard-response","327","2.0.0","355528","pfusyzqztru","mus","meerkat","21","female","yes","yes","12","3","547","stimuli/pictures/flute_metal_1.jpg","1","1","","true","yes","sound","stimuli/sounds/flute_label_B.wav",""
"","","","","","audio-keyboard-response","328","2.0.0","356531","pfusyzqztru","mus","meerkat","21","female","yes","yes","12","3","null","stimuli/sounds/bleep.wav","null","","","","","","",""
"","","","","","html-keyboard-response","329","2.0.0","357596","pfusyzqztru","mus","meerkat","21","female","yes","yes","12","3","964","<div style=""font-size:30px;"">Press space to start the trial</div>"," ","","","","","","",""
"","","","","","html-keyboard-response","330","2.0.0","357848","pfusyzqztru","mus","meerkat","21","female","yes","yes","12","3","null","<div style=""font-size:60px;"">+</div>","null","","","","","","",""
"","","","","","audio-keyboard-response","331","2.0.0","358452","pfusyzqztru","mus","meerkat","21","female","yes","yes","12","3","null","stimuli/sounds/bird_label_A.wav","null","","","","","","",""
"","","","","","html-keyboard-response","332","2.0.0","359454","pfusyzqztru","mus","meerkat","21","female","yes","yes","12","3","null","","null","","","","","","",""
"","","","","","image-keyboard-response","333","2.0.0","359959","pfusyzqztru","mus","meerkat","21","female","yes","yes","12","3","503","stimuli/pictures/flute_wooden_1.jpg","0","0","","true","no","sound","stimuli/sounds/bird_label_A.wav",""
"","","","","","audio-keyboard-response","334","2.0.0","360962","pfusyzqztru","mus","meerkat","21","female","yes","yes","12","3","null","stimuli/sounds/bleep.wav","null","","","","","","",""
"","","","","","html-keyboard-response","335","2.0.0","361609","pfusyzqztru","mus","meerkat","21","female","yes","yes","12","3","544","<div style=""font-size:30px;"">Press space to start the trial</div>"," ","","","","","","",""
"","","","","","html-keyboard-response","336","2.0.0","361861","pfusyzqztru","mus","meerkat","21","female","yes","yes","12","3","null","<div style=""font-size:60px;"">+</div>","null","","","","","","",""
"","","","","","audio-keyboard-response","337","2.0.0","362462","pfusyzqztru","mus","meerkat","21","female","yes","yes","12","3","null","stimuli/sounds/phone_sound_A.wav","null","","","","","","",""
"","","","","","html-keyboard-response","338","2.0.0","363465","pfusyzqztru","mus","meerkat","21","female","yes","yes","12","3","null","","null","","","","","","",""
"","","","","","image-keyboard-response","339","2.0.0","364392","pfusyzqztru","mus","meerkat","21","female","yes","yes","12","3","926","stimuli/pictures/phone_cell_1.jpg","1","1","","true","yes","sound","stimuli/sounds/phone_sound_A.wav",""
"","","","","","audio-keyboard-response","340","2.0.0","365395","pfusyzqztru","mus","meerkat","21","female","yes","yes","12","3","null","stimuli/sounds/bleep.wav","null","","","","","","",""
"","","","","","html-keyboard-response","341","2.0.0","366005","pfusyzqztru","mus","meerkat","21","female","yes","yes","12","3","508","<div style=""font-size:30px;"">Press space to start the trial</div>"," ","","","","","","",""
"","","","","","html-keyboard-response","342","2.0.0","366258","pfusyzqztru","mus","meerkat","21","female","yes","yes","12","3","null","<div style=""font-size:60px;"">+</div>","null","","","","","","",""
"","","","","","audio-keyboard-response","343","2.0.0","366862","pfusyzqztru","mus","meerkat","21","female","yes","yes","12","3","null","stimuli/sounds/drum_label_A.wav","null","","","","","","",""
"","","","","","html-keyboard-response","344","2.0.0","367865","pfusyzqztru","mus","meerkat","21","female","yes","yes","12","3","null","","null","","","","","","",""
"","","","","","image-keyboard-response","345","2.0.0","368472","pfusyzqztru","mus","meerkat","21","female","yes","yes","12","3","605","stimuli/pictures/bird_song_1.jpg","0","0","","true","no","sound","stimuli/sounds/drum_label_A.wav",""
"","","","","","audio-keyboard-response","346","2.0.0","369475","pfusyzqztru","mus","meerkat","21","female","yes","yes","12","3","null","stimuli/sounds/bleep.wav","null","","","","","","",""
"","","","","","html-keyboard-response","347","2.0.0","370034","pfusyzqztru","mus","meerkat","21","female","yes","yes","12","3","456","<div style=""font-size:30px;"">Press space to start the trial</div>"," ","","","","","","",""
"","","","","","html-keyboard-response","348","2.0.0","370286","pfusyzqztru","mus","meerkat","21","female","yes","yes","12","3","null","<div style=""font-size:60px;"">+</div>","null","","","","","","",""
"","","","","","audio-keyboard-response","349","2.0.0","370889","pfusyzqztru","mus","meerkat","21","female","yes","yes","12","3","null","stimuli/sounds/piano_label_B.wav","null","","","","","","",""
"","","","","","html-keyboard-response","350","2.0.0","371891","pfusyzqztru","mus","meerkat","21","female","yes","yes","12","3","null","","null","","","","","","",""
"","","","","","image-keyboard-response","351","2.0.0","372478","pfusyzqztru","mus","meerkat","21","female","yes","yes","12","3","585","stimuli/pictures/piano_electric_1.jpg","1","1","","true","yes","sound","stimuli/sounds/piano_label_B.wav",""
"","","","","","audio-keyboard-response","352","2.0.0","373480","pfusyzqztru","mus","meerkat","21","female","yes","yes","12","3","null","stimuli/sounds/bleep.wav","null","","","","","","",""
"","","","","","html-keyboard-response","353","2.0.0","374009","pfusyzqztru","mus","meerkat","21","female","yes","yes","12","3","426","<div style=""font-size:30px;"">Press space to start the trial</div>"," ","","","","","","",""
"","","","","","html-keyboard-response","354","2.0.0","374261","pfusyzqztru","mus","meerkat","21","female","yes","yes","12","3","null","<div style=""font-size:60px;"">+</div>","null","","","","","","",""
"","","","","","audio-keyboard-response","355","2.0.0","374862","pfusyzqztru","mus","meerkat","21","female","yes","yes","12","3","null","stimuli/sounds/bird_label_A.wav","null","","","","","","",""
"","","","","","html-keyboard-response","356","2.0.0","375864","pfusyzqztru","mus","meerkat","21","female","yes","yes","12","3","null","","null","","","","","","",""
"","","","","","image-keyboard-response","357","2.0.0","376527","pfusyzqztru","mus","meerkat","21","female","yes","yes","12","3","660","stimuli/pictures/flute_metal_1.jpg","0","0","","true","no","sound","stimuli/sounds/bird_label_A.wav",""
"","","","","","audio-keyboard-response","358","2.0.0","377530","pfusyzqztru","mus","meerkat","21","female","yes","yes","12","3","null","stimuli/sounds/bleep.wav","null","","","","","","",""
"","","","","","html-keyboard-response","359","2.0.0","378073","pfusyzqztru","mus","meerkat","21","female","yes","yes","12","3","440","<div style=""font-size:30px;"">Press space to start the trial</div>"," ","","","","","","",""
"","","","","","html-keyboard-response","360","2.0.0","378326","pfusyzqztru","mus","meerkat","21","female","yes","yes","12","3","null","<div style=""font-size:60px;"">+</div>","null","","","","","","",""
"","","","","","audio-keyboard-response","361","2.0.0","378926","pfusyzqztru","mus","meerkat","21","female","yes","yes","12","3","null","stimuli/sounds/drum_sound_B.wav","null","","","","","","",""
"","","","","","html-keyboard-response","362","2.0.0","379928","pfusyzqztru","mus","meerkat","21","female","yes","yes","12","3","null","","null","","","","","","",""
"","","","","","image-keyboard-response","363","2.0.0","380415","pfusyzqztru","mus","meerkat","21","female","yes","yes","12","3","485","stimuli/pictures/drum_kit_1.jpg","1","1","","true","no","sound","stimuli/sounds/drum_sound_B.wav",""
"","","","","","audio-keyboard-response","364","2.0.0","381418","pfusyzqztru","mus","meerkat","21","female","yes","yes","12","3","null","stimuli/sounds/bleep.wav","null","","","","","","",""
"","","","","","html-keyboard-response","365","2.0.0","381950","pfusyzqztru","mus","meerkat","21","female","yes","yes","12","3","430","<div style=""font-size:30px;"">Press space to start the trial</div>"," ","","","","","","",""
"","","","","","html-keyboard-response","366","2.0.0","382202","pfusyzqztru","mus","meerkat","21","female","yes","yes","12","3","null","<div style=""font-size:60px;"">+</div>","null","","","","","","",""
"","","","","","audio-keyboard-response","367","2.0.0","382809","pfusyzqztru","mus","meerkat","21","female","yes","yes","12","3","null","stimuli/sounds/flute_sound_B.wav","null","","","","","","",""
"","","","","","html-keyboard-response","368","2.0.0","383811","pfusyzqztru","mus","meerkat","21","female","yes","yes","12","3","null","","null","","","","","","",""
"","","","","","image-keyboard-response","369","2.0.0","384425","pfusyzqztru","mus","meerkat","21","female","yes","yes","12","3","613","stimuli/pictures/flute_wooden_2.jpg","1","1","","true","yes","sound","stimuli/sounds/flute_sound_B.wav",""
"","","","","","audio-keyboard-response","370","2.0.0","385427","pfusyzqztru","mus","meerkat","21","female","yes","yes","12","3","null","stimuli/sounds/bleep.wav","null","","","","","","",""
"","","","","","html-keyboard-response","371","2.0.0","385964","pfusyzqztru","mus","meerkat","21","female","yes","yes","12","3","435","<div style=""font-size:30px;"">Press space to start the trial</div>"," ","","","","","","",""
"","","","","","html-keyboard-response","372","2.0.0","386216","pfusyzqztru","mus","meerkat","21","female","yes","yes","12","3","null","<div style=""font-size:60px;"">+</div>","null","","","","","","",""
"","","","","","audio-keyboard-response","373","2.0.0","386820","pfusyzqztru","mus","meerkat","21","female","yes","yes","12","3","null","stimuli/sounds/drum_sound_A.wav","null","","","","","","",""
"","","","","","html-keyboard-response","374","2.0.0","387822","pfusyzqztru","mus","meerkat","21","female","yes","yes","12","3","null","","null","","","","","","",""
"","","","","","image-keyboard-response","375","2.0.0","388274","pfusyzqztru","mus","meerkat","21","female","yes","yes","12","3","450","stimuli/pictures/drum_bongo_2.jpg","1","1","","true","no","sound","stimuli/sounds/drum_sound_A.wav",""
"","","","","","audio-keyboard-response","376","2.0.0","389277","pfusyzqztru","mus","meerkat","21","female","yes","yes","12","3","null","stimuli/sounds/bleep.wav","null","","","","","","",""
"","","","","","html-keyboard-response","377","2.0.0","389837","pfusyzqztru","mus","meerkat","21","female","yes","yes","12","3","458","<div style=""font-size:30px;"">Press space to start the trial</div>"," ","","","","","","",""
"","","","","","html-keyboard-response","378","2.0.0","390089","pfusyzqztru","mus","meerkat","21","female","yes","yes","12","3","null","<div style=""font-size:60px;"">+</div>","null","","","","","","",""
"","","","","","audio-keyboard-response","379","2.0.0","390691","pfusyzqztru","mus","meerkat","21","female","yes","yes","12","3","null","stimuli/sounds/drum_label_A.wav","null","","","","","","",""
"","","","","","html-keyboard-response","380","2.0.0","391694","pfusyzqztru","mus","meerkat","21","female","yes","yes","12","3","null","","null","","","","","","",""
"","","","","","image-keyboard-response","381","2.0.0","392100","pfusyzqztru","mus","meerkat","21","female","yes","yes","12","3","404","stimuli/pictures/drum_bongo_1.jpg","1","1","","true","yes","sound","stimuli/sounds/drum_label_A.wav",""
"","","","","","audio-keyboard-response","382","2.0.0","393102","pfusyzqztru","mus","meerkat","21","female","yes","yes","12","3","null","stimuli/sounds/bleep.wav","null","","","","","","",""
"","","","","","html-keyboard-response","383","2.0.0","393513","pfusyzqztru","mus","meerkat","21","female","yes","yes","12","3","309","<div style=""font-size:30px;"">Press space to start the trial</div>"," ","","","","","","",""
"","","","","","html-keyboard-response","384","2.0.0","393765","pfusyzqztru","mus","meerkat","21","female","yes","yes","12","3","null","<div style=""font-size:60px;"">+</div>","null","","","","","","",""
"","","","","","audio-keyboard-response","385","2.0.0","394366","pfusyzqztru","mus","meerkat","21","female","yes","yes","12","3","null","stimuli/sounds/drum_sound_A.wav","null","","","","","","",""
"","","","","","html-keyboard-response","386","2.0.0","395368","pfusyzqztru","mus","meerkat","21","female","yes","yes","12","3","null","","null","","","","","","",""
"","","","","","image-keyboard-response","387","2.0.0","395939","pfusyzqztru","mus","meerkat","21","female","yes","yes","12","3","570","stimuli/pictures/flute_wooden_1.jpg","0","0","","true","no","sound","stimuli/sounds/drum_sound_A.wav",""
"","","","","","audio-keyboard-response","388","2.0.0","396941","pfusyzqztru","mus","meerkat","21","female","yes","yes","12","3","null","stimuli/sounds/bleep.wav","null","","","","","","",""
"","","","","","html-keyboard-response","389","2.0.0","398863","pfusyzqztru","mus","meerkat","21","female","yes","yes","12","3","1820","<p>You have completed a block. Press R when you are ready to continue</p>","r","","","","","","",""
"","","","","","html-keyboard-response","390","2.0.0","399742","pfusyzqztru","mus","meerkat","21","female","yes","yes","12","3","878","<div style=""font-size:30px;"">Press space to start the trial</div>"," ","","","","","","",""
"","","","","","html-keyboard-response","391","2.0.0","399995","pfusyzqztru","mus","meerkat","21","female","yes","yes","12","3","null","<div style=""font-size:60px;"">+</div>","null","","","","","","",""
"","","","","","audio-keyboard-response","392","2.0.0","400622","pfusyzqztru","mus","meerkat","21","female","yes","yes","12","3","null","stimuli/sounds/piano_label_A.wav","null","","","","","","",""
"","","","","","html-keyboard-response","393","2.0.0","401625","pfusyzqztru","mus","meerkat","21","female","yes","yes","12","3","null","","null","","","","","","",""
"","","","","","image-keyboard-response","394","2.0.0","402032","pfusyzqztru","mus","meerkat","21","female","yes","yes","12","3","406","stimuli/pictures/piano_electric_2.jpg","1","1","","true","yes","sound","stimuli/sounds/piano_label_A.wav",""
"","","","","","audio-keyboard-response","395","2.0.0","403035","pfusyzqztru","mus","meerkat","21","female","yes","yes","12","3","null","stimuli/sounds/bleep.wav","null","","","","","","",""
"","","","","","html-keyboard-response","396","2.0.0","403830","pfusyzqztru","mus","meerkat","21","female","yes","yes","12","3","693","<div style=""font-size:30px;"">Press space to start the trial</div>"," ","","","","","","",""
"","","","","","html-keyboard-response","397","2.0.0","404082","pfusyzqztru","mus","meerkat","21","female","yes","yes","12","3","null","<div style=""font-size:60px;"">+</div>","null","","","","","","",""
"","","","","","audio-keyboard-response","398","2.0.0","404686","pfusyzqztru","mus","meerkat","21","female","yes","yes","12","3","null","stimuli/sounds/bird_label_B.wav","null","","","","","","",""
"","","","","","html-keyboard-response","399","2.0.0","405688","pfusyzqztru","mus","meerkat","21","female","yes","yes","12","3","null","","null","","","","","","",""
"","","","","","image-keyboard-response","400","2.0.0","406269","pfusyzqztru","mus","meerkat","21","female","yes","yes","12","3","580","stimuli/pictures/bird_hawk_1.jpg","1","1","","true","yes","sound","stimuli/sounds/bird_label_B.wav",""
"","","","","","audio-keyboard-response","401","2.0.0","407271","pfusyzqztru","mus","meerkat","21","female","yes","yes","12","3","null","stimuli/sounds/bleep.wav","null","","","","","","",""
"","","","","","html-keyboard-response","402","2.0.0","407921","pfusyzqztru","mus","meerkat","21","female","yes","yes","12","3","548","<div style=""font-size:30px;"">Press space to start the trial</div>"," ","","","","","","",""
"","","","","","html-keyboard-response","403","2.0.0","408173","pfusyzqztru","mus","meerkat","21","female","yes","yes","12","3","null","<div style=""font-size:60px;"">+</div>","null","","","","","","",""
"","","","","","audio-keyboard-response","404","2.0.0","408782","pfusyzqztru","mus","meerkat","21","female","yes","yes","12","3","null","stimuli/sounds/piano_sound_B.wav","null","","","","","","",""
"","","","","","html-keyboard-response","405","2.0.0","409784","pfusyzqztru","mus","meerkat","21","female","yes","yes","12","3","null","","null","","","","","","",""
"","","","","","image-keyboard-response","406","2.0.0","410966","pfusyzqztru","mus","meerkat","21","female","yes","yes","12","3","1180","stimuli/pictures/flute_metal_1.jpg","0","0","","true","no","sound","stimuli/sounds/piano_sound_B.wav",""
"","","","","","audio-keyboard-response","407","2.0.0","411969","pfusyzqztru","mus","meerkat","21","female","yes","yes","12","3","null","stimuli/sounds/bleep.wav","null","","","","","","",""
"","","","","","html-keyboard-response","408","2.0.0","412778","pfusyzqztru","mus","meerkat","21","female","yes","yes","12","3","707","<div style=""font-size:30px;"">Press space to start the trial</div>"," ","","","","","","",""
"","","","","","html-keyboard-response","409","2.0.0","413031","pfusyzqztru","mus","meerkat","21","female","yes","yes","12","3","null","<div style=""font-size:60px;"">+</div>","null","","","","","","",""
"","","","","","audio-keyboard-response","410","2.0.0","413635","pfusyzqztru","mus","meerkat","21","female","yes","yes","12","3","null","stimuli/sounds/phone_label_A.wav","null","","","","","","",""
"","","","","","html-keyboard-response","411","2.0.0","414638","pfusyzqztru","mus","meerkat","21","female","yes","yes","12","3","null","","null","","","","","","",""
"","","","","","image-keyboard-response","412","2.0.0","415264","pfusyzqztru","mus","meerkat","21","female","yes","yes","12","3","626","stimuli/pictures/drum_kit_1.jpg","0","0","","true","no","sound","stimuli/sounds/phone_label_A.wav",""
"","","","","","audio-keyboard-response","413","2.0.0","416267","pfusyzqztru","mus","meerkat","21","female","yes","yes","12","3","null","stimuli/sounds/bleep.wav","null","","","","","","",""
"","","","","","html-keyboard-response","414","2.0.0","416950","pfusyzqztru","mus","meerkat","21","female","yes","yes","12","3","582","<div style=""font-size:30px;"">Press space to start the trial</div>"," ","","","","","","",""
"","","","","","html-keyboard-response","415","2.0.0","417203","pfusyzqztru","mus","meerkat","21","female","yes","yes","12","3","null","<div style=""font-size:60px;"">+</div>","null","","","","","","",""
"","","","","","audio-keyboard-response","416","2.0.0","417806","pfusyzqztru","mus","meerkat","21","female","yes","yes","12","3","null","stimuli/sounds/bird_label_A.wav","null","","","","","","",""
"","","","","","html-keyboard-response","417","2.0.0","418808","pfusyzqztru","mus","meerkat","21","female","yes","yes","12","3","null","","null","","","","","","",""
"","","","","","image-keyboard-response","418","2.0.0","419277","pfusyzqztru","mus","meerkat","21","female","yes","yes","12","3","466","stimuli/pictures/bird_hawk_1.jpg","1","1","","true","yes","sound","stimuli/sounds/bird_label_A.wav",""
"","","","","","audio-keyboard-response","419","2.0.0","420279","pfusyzqztru","mus","meerkat","21","female","yes","yes","12","3","null","stimuli/sounds/bleep.wav","null","","","","","","",""
"","","","","","html-keyboard-response","420","2.0.0","421071","pfusyzqztru","mus","meerkat","21","female","yes","yes","12","3","690","<div style=""font-size:30px;"">Press space to start the trial</div>"," ","","","","","","",""
"","","","","","html-keyboard-response","421","2.0.0","421323","pfusyzqztru","mus","meerkat","21","female","yes","yes","12","3","null","<div style=""font-size:60px;"">+</div>","null","","","","","","",""
"","","","","","audio-keyboard-response","422","2.0.0","421923","pfusyzqztru","mus","meerkat","21","female","yes","yes","12","3","null","stimuli/sounds/flute_label_A.wav","null","","","","","","",""
"","","","","","html-keyboard-response","423","2.0.0","422925","pfusyzqztru","mus","meerkat","21","female","yes","yes","12","3","null","","null","","","","","","",""
"","","","","","image-keyboard-response","424","2.0.0","424046","pfusyzqztru","mus","meerkat","21","female","yes","yes","12","3","1119","stimuli/pictures/flute_wooden_2.jpg","1","1","","true","yes","sound","stimuli/sounds/flute_label_A.wav",""
"","","","","","audio-keyboard-response","425","2.0.0","425049","pfusyzqztru","mus","meerkat","21","female","yes","yes","12","3","null","stimuli/sounds/bleep.wav","null","","","","","","",""
"","","","","","html-keyboard-response","426","2.0.0","425858","pfusyzqztru","mus","meerkat","21","female","yes","yes","12","3","706","<div style=""font-size:30px;"">Press space to start the trial</div>"," ","","","","","","",""
"","","","","","html-keyboard-response","427","2.0.0","426110","pfusyzqztru","mus","meerkat","21","female","yes","yes","12","3","null","<div style=""font-size:60px;"">+</div>","null","","","","","","",""
"","","","","","audio-keyboard-response","428","2.0.0","426739","pfusyzqztru","mus","meerkat","21","female","yes","yes","12","3","null","stimuli/sounds/piano_label_A.wav","null","","","","","","",""
"","","","","","html-keyboard-response","429","2.0.0","427741","pfusyzqztru","mus","meerkat","21","female","yes","yes","12","3","null","","null","","","","","","",""
"","","","","","image-keyboard-response","430","2.0.0","428626","pfusyzqztru","mus","meerkat","21","female","yes","yes","12","3","883","stimuli/pictures/piano_electric_1.jpg","1","1","","true","yes","sound","stimuli/sounds/piano_label_A.wav",""
"","","","","","audio-keyboard-response","431","2.0.0","429631","pfusyzqztru","mus","meerkat","21","female","yes","yes","12","3","null","stimuli/sounds/bleep.wav","null","","","","","","",""
"","","","","","html-keyboard-response","432","2.0.0","430209","pfusyzqztru","mus","meerkat","21","female","yes","yes","12","3","475","<div style=""font-size:30px;"">Press space to start the trial</div>"," ","","","","","","",""
"","","","","","html-keyboard-response","433","2.0.0","430461","pfusyzqztru","mus","meerkat","21","female","yes","yes","12","3","null","<div style=""font-size:60px;"">+</div>","null","","","","","","",""
"","","","","","audio-keyboard-response","434","2.0.0","431064","pfusyzqztru","mus","meerkat","21","female","yes","yes","12","3","null","stimuli/sounds/drum_sound_A.wav","null","","","","","","",""
"","","","","","html-keyboard-response","435","2.0.0","432067","pfusyzqztru","mus","meerkat","21","female","yes","yes","12","3","null","","null","","","","","","",""
"","","","","","image-keyboard-response","436","2.0.0","432462","pfusyzqztru","mus","meerkat","21","female","yes","yes","12","3","395","stimuli/pictures/drum_kit_2.jpg","1","1","","true","yes","sound","stimuli/sounds/drum_sound_A.wav",""
"","","","","","audio-keyboard-response","437","2.0.0","433464","pfusyzqztru","mus","meerkat","21","female","yes","yes","12","3","null","stimuli/sounds/bleep.wav","null","","","","","","",""
"","","","","","html-keyboard-response","438","2.0.0","434027","pfusyzqztru","mus","meerkat","21","female","yes","yes","12","3","462","<div style=""font-size:30px;"">Press space to start the trial</div>"," ","","","","","","",""
"","","","","","html-keyboard-response","439","2.0.0","434279","pfusyzqztru","mus","meerkat","21","female","yes","yes","12","3","null","<div style=""font-size:60px;"">+</div>","null","","","","","","",""
"","","","","","audio-keyboard-response","440","2.0.0","434877","pfusyzqztru","mus","meerkat","21","female","yes","yes","12","3","null","stimuli/sounds/flute_sound_A.wav","null","","","","","","",""
"","","","","","html-keyboard-response","441","2.0.0","435879","pfusyzqztru","mus","meerkat","21","female","yes","yes","12","3","null","","null","","","","","","",""
"","","","","","image-keyboard-response","442","2.0.0","436685","pfusyzqztru","mus","meerkat","21","female","yes","yes","12","3","804","stimuli/pictures/flute_wooden_1.jpg","1","1","","true","no","sound","stimuli/sounds/flute_sound_A.wav",""
"","","","","","audio-keyboard-response","443","2.0.0","437688","pfusyzqztru","mus","meerkat","21","female","yes","yes","12","3","null","stimuli/sounds/bleep.wav","null","","","","","","",""
"","","","","","html-keyboard-response","444","2.0.0","438169","pfusyzqztru","mus","meerkat","21","female","yes","yes","12","3","378","<div style=""font-size:30px;"">Press space to start the trial</div>"," ","","","","","","",""
"","","","","","html-keyboard-response","445","2.0.0","438421","pfusyzqztru","mus","meerkat","21","female","yes","yes","12","3","null","<div style=""font-size:60px;"">+</div>","null","","","","","","",""
"","","","","","audio-keyboard-response","446","2.0.0","439027","pfusyzqztru","mus","meerkat","21","female","yes","yes","12","3","null","stimuli/sounds/flute_sound_B.wav","null","","","","","","",""
"","","","","","html-keyboard-response","447","2.0.0","440029","pfusyzqztru","mus","meerkat","21","female","yes","yes","12","3","null","","null","","","","","","",""
"","","","","","image-keyboard-response","448","2.0.0","440471","pfusyzqztru","mus","meerkat","21","female","yes","yes","12","3","441","stimuli/pictures/bird_song_1.jpg","0","0","","true","no","sound","stimuli/sounds/flute_sound_B.wav",""
"","","","","","audio-keyboard-response","449","2.0.0","441474","pfusyzqztru","mus","meerkat","21","female","yes","yes","12","3","null","stimuli/sounds/bleep.wav","null","","","","","","",""
"","","","","","html-keyboard-response","450","2.0.0","441916","pfusyzqztru","mus","meerkat","21","female","yes","yes","12","3","341","<div style=""font-size:30px;"">Press space to start the trial</div>"," ","","","","","","",""
"","","","","","html-keyboard-response","451","2.0.0","442168","pfusyzqztru","mus","meerkat","21","female","yes","yes","12","3","null","<div style=""font-size:60px;"">+</div>","null","","","","","","",""
"","","","","","audio-keyboard-response","452","2.0.0","442771","pfusyzqztru","mus","meerkat","21","female","yes","yes","12","3","null","stimuli/sounds/drum_sound_A.wav","null","","","","","","",""
"","","","","","html-keyboard-response","453","2.0.0","443773","pfusyzqztru","mus","meerkat","21","female","yes","yes","12","3","null","","null","","","","","","",""
"","","","","","image-keyboard-response","454","2.0.0","444361","pfusyzqztru","mus","meerkat","21","female","yes","yes","12","3","586","stimuli/pictures/flute_wooden_2.jpg","0","0","","true","no","sound","stimuli/sounds/drum_sound_A.wav",""
"","","","","","audio-keyboard-response","455","2.0.0","445363","pfusyzqztru","mus","meerkat","21","female","yes","yes","12","3","null","stimuli/sounds/bleep.wav","null","","","","","","",""
"","","","","","html-keyboard-response","456","2.0.0","445845","pfusyzqztru","mus","meerkat","21","female","yes","yes","12","3","379","<div style=""font-size:30px;"">Press space to start the trial</div>"," ","","","","","","",""
"","","","","","html-keyboard-response","457","2.0.0","446097","pfusyzqztru","mus","meerkat","21","female","yes","yes","12","3","null","<div style=""font-size:60px;"">+</div>","null","","","","","","",""
"","","","","","audio-keyboard-response","458","2.0.0","446696","pfusyzqztru","mus","meerkat","21","female","yes","yes","12","3","null","stimuli/sounds/phone_label_A.wav","null","","","","","","",""
"","","","","","html-keyboard-response","459","2.0.0","447698","pfusyzqztru","mus","meerkat","21","female","yes","yes","12","3","null","","null","","","","","","",""
"","","","","","image-keyboard-response","460","2.0.0","448125","pfusyzqztru","mus","meerkat","21","female","yes","yes","12","3","426","stimuli/pictures/phone_cell_1.jpg","1","1","","true","yes","sound","stimuli/sounds/phone_label_A.wav",""
"","","","","","audio-keyboard-response","461","2.0.0","449128","pfusyzqztru","mus","meerkat","21","female","yes","yes","12","3","null","stimuli/sounds/bleep.wav","null","","","","","","",""
"","","","","","html-keyboard-response","462","2.0.0","449764","pfusyzqztru","mus","meerkat","21","female","yes","yes","12","3","534","<div style=""font-size:30px;"">Press space to start the trial</div>"," ","","","","","","",""
"","","","","","html-keyboard-response","463","2.0.0","450017","pfusyzqztru","mus","meerkat","21","female","yes","yes","12","3","null","<div style=""font-size:60px;"">+</div>","null","","","","","","",""
"","","","","","audio-keyboard-response","464","2.0.0","450616","pfusyzqztru","mus","meerkat","21","female","yes","yes","12","3","null","stimuli/sounds/drum_sound_B.wav","null","","","","","","",""
"","","","","","html-keyboard-response","465","2.0.0","451618","pfusyzqztru","mus","meerkat","21","female","yes","yes","12","3","null","","null","","","","","","",""
"","","","","","image-keyboard-response","466","2.0.0","452156","pfusyzqztru","mus","meerkat","21","female","yes","yes","12","3","537","stimuli/pictures/phone_rotary_2.jpg","0","0","","true","no","sound","stimuli/sounds/drum_sound_B.wav",""
"","","","","","audio-keyboard-response","467","2.0.0","453160","pfusyzqztru","mus","meerkat","21","female","yes","yes","12","3","null","stimuli/sounds/bleep.wav","null","","","","","","",""
"","","","","","html-keyboard-response","468","2.0.0","453715","pfusyzqztru","mus","meerkat","21","female","yes","yes","12","3","454","<div style=""font-size:30px;"">Press space to start the trial</div>"," ","","","","","","",""
"","","","","","html-keyboard-response","469","2.0.0","453968","pfusyzqztru","mus","meerkat","21","female","yes","yes","12","3","null","<div style=""font-size:60px;"">+</div>","null","","","","","","",""
"","","","","","audio-keyboard-response","470","2.0.0","454568","pfusyzqztru","mus","meerkat","21","female","yes","yes","12","3","null","stimuli/sounds/bird_sound_B.wav","null","","","","","","",""
"","","","","","html-keyboard-response","471","2.0.0","455570","pfusyzqztru","mus","meerkat","21","female","yes","yes","12","3","null","","null","","","","","","",""
"","","","","","image-keyboard-response","472","2.0.0","456097","pfusyzqztru","mus","meerkat","21","female","yes","yes","12","3","526","stimuli/pictures/drum_kit_2.jpg","0","0","","true","no","sound","stimuli/sounds/bird_sound_B.wav",""
"","","","","","audio-keyboard-response","473","2.0.0","457099","pfusyzqztru","mus","meerkat","21","female","yes","yes","12","3","null","stimuli/sounds/bleep.wav","null","","","","","","",""
"","","","","","html-keyboard-response","474","2.0.0","457594","pfusyzqztru","mus","meerkat","21","female","yes","yes","12","3","392","<div style=""font-size:30px;"">Press space to start the trial</div>"," ","","","","","","",""
"","","","","","html-keyboard-response","475","2.0.0","457846","pfusyzqztru","mus","meerkat","21","female","yes","yes","12","3","null","<div style=""font-size:60px;"">+</div>","null","","","","","","",""
"","","","","","audio-keyboard-response","476","2.0.0","458446","pfusyzqztru","mus","meerkat","21","female","yes","yes","12","3","null","stimuli/sounds/flute_label_A.wav","null","","","","","","",""
"","","","","","html-keyboard-response","477","2.0.0","459448","pfusyzqztru","mus","meerkat","21","female","yes","yes","12","3","null","","null","","","","","","",""
"","","","","","image-keyboard-response","478","2.0.0","460107","pfusyzqztru","mus","meerkat","21","female","yes","yes","12","3","658","stimuli/pictures/piano_electric_1.jpg","0","0","","true","no","sound","stimuli/sounds/flute_label_A.wav",""
"","","","","","audio-keyboard-response","479","2.0.0","461109","pfusyzqztru","mus","meerkat","21","female","yes","yes","12","3","null","stimuli/sounds/bleep.wav","null","","","","","","",""
"","","","","","html-keyboard-response","480","2.0.0","461728","pfusyzqztru","mus","meerkat","21","female","yes","yes","12","3","516","<div style=""font-size:30px;"">Press space to start the trial</div>"," ","","","","","","",""
