"success","timeout","failed_images","failed_audio","failed_video","trial_type","trial_index","plugin_version","time_elapsed","random_id","condition","participant","age","gender_id","mus_exp","inst_exp","years_exp","mus_listening","rt","stimulus","response","correct_response","practice","correct","congruent","sound_type","audio","question_order"
"true","false","[]","[]","[]","preload","0","2.0.0","1772","pgzvut51vf0","mus","gazelle","21","female","yes","yes","11","5-6 hours","","","","","","","","","",""
"","","","","","html-keyboard-response","1","2.0.0","2722","pgzvut51vf0","mus","gazelle","21","female","yes","yes","11","5-6 hours","949","Welcome to the experiment! Press any key to begin."," ","","","","","","",""
"true","","","","","fullscreen","2","null","6142","pgzvut51vf0","mus","gazelle","21","female","yes","yes","11","5-6 hours","2419","","","","","","","","",""
"","","","","","survey-text","3","2.0.0","21154","pgzvut51vf0","mus","gazelle","21","female","yes","yes","11","5-6 hours","14988","","{""participant_id"":""gazelle""}","","","","","","",""
"","","","","","html-keyboard-response","4","2.0.0","49631","pgzvut51vf0","mus","gazelle","21","female","yes","yes","11","5-6 hours","28476","
    <p> Please use headphones for the duration of the study.</p>
    <p> Within each trial, you will hear a sound and then be presented with an image in the center of your screen.</p>
    <p>Press the <b>'1'</b> key if what you hear <u>matches</u> what you see.</p>
    <p>Press the <b>'0'</b> key if what you hear <u>does not match</u> what you see.</p>
    <p>Try to respond as quickly and accurately as you can.</p>
    <p> Press any key to begin.</p>
    "," ","","","","","","",""
"","","","","","html-keyboard-response","5","2.0.0","51730","pgzvut51vf0","mus","gazelle","21","female","yes","yes","11","5-6 hours","2098","
    <div style=""font-size:28px;"">
      <p>You will now complete 4 short practice trials.</p>
      <p>This is just to help you get familiar with the task.</p>
      <p>Press any key to begin.</p>
    </div>
  "," ","","","","","","",""
"","","","","","html-keyboard-response","6","2.0.0","52233","pgzvut51vf0","mus","gazelle","21","female","yes","yes","11","5-6 hours","null","<div style=""font-size:60px;"">+</div>","null","","","","","","",""
"","","","","","audio-keyboard-response","7","2.0.0","53351","pgzvut51vf0","mus","gazelle","21","female","yes","yes","11","5-6 hours","null","stimuli/sounds/guitar_label_A.wav","null","","","","","","",""
"","","","","","image-keyboard-response","8","2.0.0","53956","pgzvut51vf0","mus","gazelle","21","female","yes","yes","11","5-6 hours","600","stimuli/pictures/guitar_acoustic_1.jpg","1","1","true","true","","","",""
"","","","","","audio-keyboard-response","9","2.0.0","54759","pgzvut51vf0","mus","gazelle","21","female","yes","yes","11","5-6 hours","null","stimuli/sounds/bleep.wav","null","","","","","","",""
"","","","","","html-keyboard-response","10","2.0.0","55461","pgzvut51vf0","mus","gazelle","21","female","yes","yes","11","5-6 hours","null","<p style='color:green; font-size:30px;'>Correct!</p>","null","","","","","","",""
"","","","","","html-keyboard-response","11","2.0.0","55964","pgzvut51vf0","mus","gazelle","21","female","yes","yes","11","5-6 hours","null","<div style=""font-size:60px;"">+</div>","null","","","","","","",""
"","","","","","audio-keyboard-response","12","2.0.0","56567","pgzvut51vf0","mus","gazelle","21","female","yes","yes","11","5-6 hours","null","stimuli/sounds/guitar_sound_B.wav","null","","","","","","",""
"","","","","","image-keyboard-response","13","2.0.0","57129","pgzvut51vf0","mus","gazelle","21","female","yes","yes","11","5-6 hours","558","stimuli/pictures/guitar_acoustic_2.jpg","1","1","true","true","","","",""
"","","","","","audio-keyboard-response","14","2.0.0","57932","pgzvut51vf0","mus","gazelle","21","female","yes","yes","11","5-6 hours","null","stimuli/sounds/bleep.wav","null","","","","","","",""
"","","","","","html-keyboard-response","15","2.0.0","58633","pgzvut51vf0","mus","gazelle","21","female","yes","yes","11","5-6 hours","null","<p style='color:green; font-size:30px;'>Correct!</p>","null","","","","","","",""
"","","","","","html-keyboard-response","16","2.0.0","59135","pgzvut51vf0","mus","gazelle","21","female","yes","yes","11","5-6 hours","null","<div style=""font-size:60px;"">+</div>","null","","","","","","",""
"","","","","","audio-keyboard-response","17","2.0.0","59734","pgzvut51vf0","mus","gazelle","21","female","yes","yes","11","5-6 hours","null","stimuli/sounds/flute_sound_A.wav","null","","","","","","",""
"","","","","","image-keyboard-response","18","2.0.0","60533","pgzvut51vf0","mus","gazelle","21","female","yes","yes","11","5-6 hours","791","stimuli/pictures/guitar_electric_1.jpg","0","0","true","true","","","",""
"","","","","","audio-keyboard-response","19","2.0.0","61334","pgzvut51vf0","mus","gazelle","21","female","yes","yes","11","5-6 hours","null","stimuli/sounds/bleep.wav","null","","","","","","",""
"","","","","","html-keyboard-response","20","2.0.0","62036","pgzvut51vf0","mus","gazelle","21","female","yes","yes","11","5-6 hours","null","<p style='color:green; font-size:30px;'>Correct!</p>","null","","","","","","",""
"","","","","","html-keyboard-response","21","2.0.0","62538","pgzvut51vf0","mus","gazelle","21","female","yes","yes","11","5-6 hours","null","<div style=""font-size:60px;"">+</div>","null","","","","","","",""
"","","","","","audio-keyboard-response","22","2.0.0","63140","pgzvut51vf0","mus","gazelle","21","female","yes","yes","11","5-6 hours","null","stimuli/sounds/guitar_sound_A.wav","null","","","","","","",""
"","","","","","image-keyboard-response","23","2.0.0","63860","pgzvut51vf0","mus","gazelle","21","female","yes","yes","11","5-6 hours","719","stimuli/pictures/guitar_acoustic_1.jpg","0","1","true","false","","","",""
"","","","","","audio-keyboard-response","24","2.0.0","64662","pgzvut51vf0","mus","gazelle","21","female","yes","yes","11","5-6 hours","null","stimuli/sounds/buzz.wav","null","","","","","","",""
"","","","","","html-keyboard-response","25","2.0.0","65363","pgzvut51vf0","mus","gazelle","21","female","yes","yes","11","5-6 hours","null","<p style='color:red; font-size:30px;'>Incorrect</p>","null","","","","","","",""
"","","","","","html-keyboard-response","26","2.0.0","67047","pgzvut51vf0","mus","gazelle","21","female","yes","yes","11","5-6 hours","1682","<p>Practice complete. Press any key to begin the real experiment.</p>"," ","","","","","","",""
"","","","","","html-keyboard-response","27","2.0.0","69283","pgzvut51vf0","mus","gazelle","21","female","yes","yes","11","5-6 hours","2234","<div style=""font-size:30px;"">Press space to start the trial</div>"," ","","","","","","",""
"","","","","","html-keyboard-response","28","2.0.0","69535","pgzvut51vf0","mus","gazelle","21","female","yes","yes","11","5-6 hours","null","<div style=""font-size:60px;"">+</div>","null","","","","","","",""
"","","","","","audio-keyboard-response","29","2.0.0","70134","pgzvut51vf0","mus","gazelle","21","female","yes","yes","11","5-6 hours","null","stimuli/sounds/drum_sound_A.wav","null","","","","","","",""
"","","","","","html-keyboard-response","30","2.0.0","71136","pgzvut51vf0","mus","gazelle","21","female","yes","yes","11","5-6 hours","null","","null","","","","","","",""
"","","","","","image-keyboard-response","31","2.0.0","71881","pgzvut51vf0","mus","gazelle","21","female","yes","yes","11","5-6 hours","741","stimuli/pictures/drum_kit_2.jpg","1","1","","true","yes","sound","stimuli/sounds/drum_sound_A.wav",""
"","","","","","audio-keyboard-response","32","2.0.0","72883","pgzvut51vf0","mus","gazelle","21","female","yes","yes","11","5-6 hours","null","stimuli/sounds/bleep.wav","null","","","","","","",""
"","","","","","html-keyboard-response","33","2.0.0","74653","pgzvut51vf0","mus","gazelle","21","female","yes","yes","11","5-6 hours","1667","<div style=""font-size:30px;"">Press space to start the trial</div>"," ","","","","","","",""
"","","","","","html-keyboard-response","34","2.0.0","74904","pgzvut51vf0","mus","gazelle","21","female","yes","yes","11","5-6 hours","null","<div style=""font-size:60px;"">+</div>","null","","","","","","",""
"","","","","","audio-keyboard-response","35","2.0.0","75505","pgzvut51vf0","mus","gazelle","21","female","yes","yes","11","5-6 hours","null","stimuli/sounds/phone_label_B.wav","null","","","","","","",""
"","","","","","html-keyboard-response","36","2.0.0","76506","pgzvut51vf0","mus","gazelle","21","female","yes","yes","11","5-6 hours","null","","null","","","","","","",""
"","","","","","image-keyboard-response","37","2.0.0","77213","pgzvut51vf0","mus","gazelle","21","female","yes","yes","11","5-6 hours","702","stimuli/pictures/phone_cell_1.jpg","1","1","","true","yes","sound","stimuli/sounds/phone_label_B.wav",""
"","","","","","audio-keyboard-response","38","2.0.0","78215","pgzvut51vf0","mus","gazelle","21","female","yes","yes","11","5-6 hours","null","stimuli/sounds/bleep.wav","null","","","","","","",""
"","","","","","html-keyboard-response","39","2.0.0","80019","pgzvut51vf0","mus","gazelle","21","female","yes","yes","11","5-6 hours","1703","<div style=""font-size:30px;"">Press space to start the trial</div>"," ","","","","","","",""
"","","","","","html-keyboard-response","40","2.0.0","80271","pgzvut51vf0","mus","gazelle","21","female","yes","yes","11","5-6 hours","null","<div style=""font-size:60px;"">+</div>","null","","","","","","",""
"","","","","","audio-keyboard-response","41","2.0.0","80878","pgzvut51vf0","mus","gazelle","21","female","yes","yes","11","5-6 hours","null","stimuli/sounds/flute_sound_B.wav","null","","","","","","",""
"","","","","","html-keyboard-response","42","2.0.0","81879","pgzvut51vf0","mus","gazelle","21","female","yes","yes","11","5-6 hours","null","","null","","","","","","",""
"","","","","","image-keyboard-response","43","2.0.0","82910","pgzvut51vf0","mus","gazelle","21","female","yes","yes","11","5-6 hours","1026","stimuli/pictures/flute_metal_1.jpg","1","1","","true","no","sound","stimuli/sounds/flute_sound_B.wav",""
"","","","","","audio-keyboard-response","44","2.0.0","83912","pgzvut51vf0","mus","gazelle","21","female","yes","yes","11","5-6 hours","null","stimuli/sounds/bleep.wav","null","","","","","","",""
"","","","","","html-keyboard-response","45","2.0.0","84607","pgzvut51vf0","mus","gazelle","21","female","yes","yes","11","5-6 hours","594","<div style=""font-size:30px;"">Press space to start the trial</div>"," ","","","","","","",""
"","","","","","html-keyboard-response","46","2.0.0","84859","pgzvut51vf0","mus","gazelle","21","female","yes","yes","11","5-6 hours","null","<div style=""font-size:60px;"">+</div>","null","","","","","","",""
"","","","","","audio-keyboard-response","47","2.0.0","85462","pgzvut51vf0","mus","gazelle","21","female","yes","yes","11","5-6 hours","null","stimuli/sounds/piano_label_B.wav","null","","","","","","",""
"","","","","","html-keyboard-response","48","2.0.0","86463","pgzvut51vf0","mus","gazelle","21","female","yes","yes","11","5-6 hours","null","","null","","","","","","",""
"","","","","","image-keyboard-response","49","2.0.0","87025","pgzvut51vf0","mus","gazelle","21","female","yes","yes","11","5-6 hours","558","stimuli/pictures/bird_hawk_1.jpg","0","0","","true","no","sound","stimuli/sounds/piano_label_B.wav",""
"","","","","","audio-keyboard-response","50","2.0.0","88027","pgzvut51vf0","mus","gazelle","21","female","yes","yes","11","5-6 hours","null","stimuli/sounds/bleep.wav","null","","","","","","",""
"","","","","","html-keyboard-response","51","2.0.0","88388","pgzvut51vf0","mus","gazelle","21","female","yes","yes","11","5-6 hours","259","<div style=""font-size:30px;"">Press space to start the trial</div>"," ","","","","","","",""
"","","","","","html-keyboard-response","52","2.0.0","88641","pgzvut51vf0","mus","gazelle","21","female","yes","yes","11","5-6 hours","null","<div style=""font-size:60px;"">+</div>","null","","","","","","",""
"","","","","","audio-keyboard-response","53","2.0.0","89251","pgzvut51vf0","mus","gazelle","21","female","yes","yes","11","5-6 hours","null","stimuli/sounds/piano_sound_A.wav","null","","","","","","",""
"","","","","","html-keyboard-response","54","2.0.0","90253","pgzvut51vf0","mus","gazelle","21","female","yes","yes","11","5-6 hours","null","","null","","","","","","",""
"","","","","","image-keyboard-response","55","2.0.0","90900","pgzvut51vf0","mus","gazelle","21","female","yes","yes","11","5-6 hours","643","stimuli/pictures/drum_bongo_1.jpg","0","0","","true","no","sound","stimuli/sounds/piano_sound_A.wav",""
"","","","","","audio-keyboard-response","56","2.0.0","91902","pgzvut51vf0","mus","gazelle","21","female","yes","yes","11","5-6 hours","null","stimuli/sounds/bleep.wav","null","","","","","","",""
"","","","","","html-keyboard-response","57","2.0.0","92267","pgzvut51vf0","mus","gazelle","21","female","yes","yes","11","5-6 hours","263","<div style=""font-size:30px;"">Press space to start the trial</div>"," ","","","","","","",""
"","","","","","html-keyboard-response","58","2.0.0","92519","pgzvut51vf0","mus","gazelle","21","female","yes","yes","11","5-6 hours","null","<div style=""font-size:60px;"">+</div>","null","","","","","","",""
"","","","","","audio-keyboard-response","59","2.0.0","93129","pgzvut51vf0","mus","gazelle","21","female","yes","yes","11","5-6 hours","null","stimuli/sounds/piano_sound_A.wav","null","","","","","","",""
"","","","","","html-keyboard-response","60","2.0.0","94130","pgzvut51vf0","mus","gazelle","21","female","yes","yes","11","5-6 hours","null","","null","","","","","","",""
"","","","","","image-keyboard-response","61","2.0.0","94820","pgzvut51vf0","mus","gazelle","21","female","yes","yes","11","5-6 hours","687","stimuli/pictures/drum_kit_2.jpg","0","0","","true","no","sound","stimuli/sounds/piano_sound_A.wav",""
"","","","","","audio-keyboard-response","62","2.0.0","95822","pgzvut51vf0","mus","gazelle","21","female","yes","yes","11","5-6 hours","null","stimuli/sounds/bleep.wav","null","","","","","","",""
"","","","","","html-keyboard-response","63","2.0.0","96615","pgzvut51vf0","mus","gazelle","21","female","yes","yes","11","5-6 hours","690","<div style=""font-size:30px;"">Press space to start the trial</div>"," ","","","","","","",""
"","","","","","html-keyboard-response","64","2.0.0","96866","pgzvut51vf0","mus","gazelle","21","female","yes","yes","11","5-6 hours","null","<div style=""font-size:60px;"">+</div>","null","","","","","","",""
"","","","","","audio-keyboard-response","65","2.0.0","97467","pgzvut51vf0","mus","gazelle","21","female","yes","yes","11","5-6 hours","null","stimuli/sounds/drum_label_B.wav","null","","","","","","",""
"","","","","","html-keyboard-response","66","2.0.0","98468","pgzvut51vf0","mus","gazelle","21","female","yes","yes","11","5-6 hours","null","","null","","","","","","",""
"","","","","","image-keyboard-response","67","2.0.0","98901","pgzvut51vf0","mus","gazelle","21","female","yes","yes","11","5-6 hours","432","stimuli/pictures/drum_kit_2.jpg","1","1","","true","yes","sound","stimuli/sounds/drum_label_B.wav",""
"","","","","","audio-keyboard-response","68","2.0.0","99903","pgzvut51vf0","mus","gazelle","21","female","yes","yes","11","5-6 hours","null","stimuli/sounds/bleep.wav","null","","","","","","",""
"","","","","","html-keyboard-response","69","2.0.0","100702","pgzvut51vf0","mus","gazelle","21","female","yes","yes","11","5-6 hours","697","<div style=""font-size:30px;"">Press space to start the trial</div>"," ","","","","","","",""
"","","","","","html-keyboard-response","70","2.0.0","100954","pgzvut51vf0","mus","gazelle","21","female","yes","yes","11","5-6 hours","null","<div style=""font-size:60px;"">+</div>","null","","","","","","",""
"","","","","","audio-keyboard-response","71","2.0.0","101558","pgzvut51vf0","mus","gazelle","21","female","yes","yes","11","5-6 hours","null","stimuli/sounds/phone_sound_A.wav","null","","","","","","",""
"","","","","","html-keyboard-response","72","2.0.0","102560","pgzvut51vf0","mus","gazelle","21","female","yes","yes","11","5-6 hours","null","","null","","","","","","",""
"","","","","","image-keyboard-response","73","2.0.0","103271","pgzvut51vf0","mus","gazelle","21","female","yes","yes","11","5-6 hours","704","stimuli/pictures/phone_rotary_2.jpg","1","1","","true","no","sound","stimuli/sounds/phone_sound_A.wav",""
"","","","","","audio-keyboard-response","74","2.0.0","104273","pgzvut51vf0","mus","gazelle","21","female","yes","yes","11","5-6 hours","null","stimuli/sounds/bleep.wav","null","","","","","","",""
"","","","","","html-keyboard-response","75","2.0.0","106022","pgzvut51vf0","mus","gazelle","21","female","yes","yes","11","5-6 hours","1647","<div style=""font-size:30px;"">Press space to start the trial</div>"," ","","","","","","",""
"","","","","","html-keyboard-response","76","2.0.0","106274","pgzvut51vf0","mus","gazelle","21","female","yes","yes","11","5-6 hours","null","<div style=""font-size:60px;"">+</div>","null","","","","","","",""
"","","","","","audio-keyboard-response","77","2.0.0","106878","pgzvut51vf0","mus","gazelle","21","female","yes","yes","11","5-6 hours","null","stimuli/sounds/phone_sound_A.wav","null","","","","","","",""
"","","","","","html-keyboard-response","78","2.0.0","107879","pgzvut51vf0","mus","gazelle","21","female","yes","yes","11","5-6 hours","null","","null","","","","","","",""
"","","","","","image-keyboard-response","79","2.0.0","108702","pgzvut51vf0","mus","gazelle","21","female","yes","yes","11","5-6 hours","820","stimuli/pictures/bird_song_1.jpg","0","0","","true","no","sound","stimuli/sounds/phone_sound_A.wav",""
"","","","","","audio-keyboard-response","80","2.0.0","109704","pgzvut51vf0","mus","gazelle","21","female","yes","yes","11","5-6 hours","null","stimuli/sounds/bleep.wav","null","","","","","","",""
"","","","","","html-keyboard-response","81","2.0.0","110453","pgzvut51vf0","mus","gazelle","21","female","yes","yes","11","5-6 hours","647","<div style=""font-size:30px;"">Press space to start the trial</div>"," ","","","","","","",""
"","","","","","html-keyboard-response","82","2.0.0","110705","pgzvut51vf0","mus","gazelle","21","female","yes","yes","11","5-6 hours","null","<div style=""font-size:60px;"">+</div>","null","","","","","","",""
"","","","","","audio-keyboard-response","83","2.0.0","111307","pgzvut51vf0","mus","gazelle","21","female","yes","yes","11","5-6 hours","null","stimuli/sounds/bird_sound_B.wav","null","","","","","","",""
"","","","","","html-keyboard-response","84","2.0.0","112308","pgzvut51vf0","mus","gazelle","21","female","yes","yes","11","5-6 hours","null","","null","","","","","","",""
"","","","","","image-keyboard-response","85","2.0.0","112766","pgzvut51vf0","mus","gazelle","21","female","yes","yes","11","5-6 hours","455","stimuli/pictures/bird_song_2.jpg","1","1","","true","yes","sound","stimuli/sounds/bird_sound_B.wav",""
"","","","","","audio-keyboard-response","86","2.0.0","113768","pgzvut51vf0","mus","gazelle","21","female","yes","yes","11","5-6 hours","null","stimuli/sounds/bleep.wav","null","","","","","","",""
"","","","","","html-keyboard-response","87","2.0.0","115528","pgzvut51vf0","mus","gazelle","21","female","yes","yes","11","5-6 hours","1658","<div style=""font-size:30px;"">Press space to start the trial</div>"," ","","","","","","",""
"","","","","","html-keyboard-response","88","2.0.0","115780","pgzvut51vf0","mus","gazelle","21","female","yes","yes","11","5-6 hours","null","<div style=""font-size:60px;"">+</div>","null","","","","","","",""
"","","","","","audio-keyboard-response","89","2.0.0","116382","pgzvut51vf0","mus","gazelle","21","female","yes","yes","11","5-6 hours","null","stimuli/sounds/piano_sound_B.wav","null","","","","","","",""
"","","","","","html-keyboard-response","90","2.0.0","117383","pgzvut51vf0","mus","gazelle","21","female","yes","yes","11","5-6 hours","null","","null","","","","","","",""
"","","","","","image-keyboard-response","91","2.0.0","118307","pgzvut51vf0","mus","gazelle","21","female","yes","yes","11","5-6 hours","919","stimuli/pictures/flute_wooden_2.jpg","0","0","","true","no","sound","stimuli/sounds/piano_sound_B.wav",""
"","","","","","audio-keyboard-response","92","2.0.0","119309","pgzvut51vf0","mus","gazelle","21","female","yes","yes","11","5-6 hours","null","stimuli/sounds/bleep.wav","null","","","","","","",""
"","","","","","html-keyboard-response","93","2.0.0","120268","pgzvut51vf0","mus","gazelle","21","female","yes","yes","11","5-6 hours","857","<div style=""font-size:30px;"">Press space to start the trial</div>"," ","","","","","","",""
"","","","","","html-keyboard-response","94","2.0.0","120520","pgzvut51vf0","mus","gazelle","21","female","yes","yes","11","5-6 hours","null","<div style=""font-size:60px;"">+</div>","null","","","","","","",""
"","","","","","audio-keyboard-response","95","2.0.0","121123","pgzvut51vf0","mus","gazelle","21","female","yes","yes","11","5-6 hours","null","stimuli/sounds/drum_sound_B.wav","null","","","","","","",""
"","","","","","html-keyboard-response","96","2.0.0","122124","pgzvut51vf0","mus","gazelle","21","female","yes","yes","11","5-6 hours","null","","null","","","","","","",""
"","","","","","image-keyboard-response","97","2.0.0","122611","pgzvut51vf0","mus","gazelle","21","female","yes","yes","11","5-6 hours","485","stimuli/pictures/drum_kit_2.jpg","1","1","","true","no","sound","stimuli/sounds/drum_sound_B.wav",""
"","","","","","audio-keyboard-response","98","2.0.0","123612","pgzvut51vf0","mus","gazelle","21","female","yes","yes","11","5-6 hours","null","stimuli/sounds/bleep.wav","null","","","","","","",""
"","","","","","html-keyboard-response","99","2.0.0","124396","pgzvut51vf0","mus","gazelle","21","female","yes","yes","11","5-6 hours","683","<div style=""font-size:30px;"">Press space to start the trial</div>"," ","","","","","","",""
"","","","","","html-keyboard-response","100","2.0.0","124649","pgzvut51vf0","mus","gazelle","21","female","yes","yes","11","5-6 hours","null","<div style=""font-size:60px;"">+</div>","null","","","","","","",""
"","","","","","audio-keyboard-response","101","2.0.0","125251","pgzvut51vf0","mus","gazelle","21","female","yes","yes","11","5-6 hours","null","stimuli/sounds/flute_sound_A.wav","null","","","","","","",""
"","","","","","html-keyboard-response","102","2.0.0","126253","pgzvut51vf0","mus","gazelle","21","female","yes","yes","11","5-6 hours","null","","null","","","","","","",""
"","","","","","image-keyboard-response","103","2.0.0","127089","pgzvut51vf0","mus","gazelle","21","female","yes","yes","11","5-6 hours","832","stimuli/pictures/phone_cell_2.jpg","0","0","","true","no","sound","stimuli/sounds/flute_sound_A.wav",""
"","","","","","audio-keyboard-response","104","2.0.0","128091","pgzvut51vf0","mus","gazelle","21","female","yes","yes","11","5-6 hours","null","stimuli/sounds/bleep.wav","null","","","","","","",""
"","","","","","html-keyboard-response","105","2.0.0","128890","pgzvut51vf0","mus","gazelle","21","female","yes","yes","11","5-6 hours","698","<div style=""font-size:30px;"">Press space to start the trial</div>"," ","","","","","","",""
"","","","","","html-keyboard-response","106","2.0.0","129142","pgzvut51vf0","mus","gazelle","21","female","yes","yes","11","5-6 hours","null","<div style=""font-size:60px;"">+</div>","null","","","","","","",""
"","","","","","audio-keyboard-response","107","2.0.0","129747","pgzvut51vf0","mus","gazelle","21","female","yes","yes","11","5-6 hours","null","stimuli/sounds/piano_sound_B.wav","null","","","","","","",""
"","","","","","html-keyboard-response","108","2.0.0","130749","pgzvut51vf0","mus","gazelle","21","female","yes","yes","11","5-6 hours","null","","null","","","","","","",""
"","","","","","image-keyboard-response","109","2.0.0","131506","pgzvut51vf0","mus","gazelle","21","female","yes","yes","11","5-6 hours","753","stimuli/pictures/piano_grand_2.jpg","0","1","","false","no","sound","stimuli/sounds/piano_sound_B.wav",""
"","","","","","audio-keyboard-response","110","2.0.0","132509","pgzvut51vf0","mus","gazelle","21","female","yes","yes","11","5-6 hours","null","stimuli/sounds/buzz.wav","null","","","","","","",""
"","","","","","html-keyboard-response","111","2.0.0","133175","pgzvut51vf0","mus","gazelle","21","female","yes","yes","11","5-6 hours","565","<div style=""font-size:30px;"">Press space to start the trial</div>"," ","","","","","","",""
"","","","","","html-keyboard-response","112","2.0.0","133427","pgzvut51vf0","mus","gazelle","21","female","yes","yes","11","5-6 hours","null","<div style=""font-size:60px;"">+</div>","null","","","","","","",""
"","","","","","audio-keyboard-response","113","2.0.0","134030","pgzvut51vf0","mus","gazelle","21","female","yes","yes","11","5-6 hours","null","stimuli/sounds/flute_label_A.wav","null","","","","","","",""
"","","","","","html-keyboard-response","114","2.0.0","135031","pgzvut51vf0","mus","gazelle","21","female","yes","yes","11","5-6 hours","null","","null","","","","","","",""
"","","","","","image-keyboard-response","115","2.0.0","136392","pgzvut51vf0","mus","gazelle","21","female","yes","yes","11","5-6 hours","1357","stimuli/pictures/flute_wooden_1.jpg","0","1","","false","yes","sound","stimuli/sounds/flute_label_A.wav",""
"","","","","","audio-keyboard-response","116","2.0.0","137394","pgzvut51vf0","mus","gazelle","21","female","yes","yes","11","5-6 hours","null","stimuli/sounds/buzz.wav","null","","","","","","",""
"","","","","","html-keyboard-response","117","2.0.0","138216","pgzvut51vf0","mus","gazelle","21","female","yes","yes","11","5-6 hours","721","<div style=""font-size:30px;"">Press space to start the trial</div>"," ","","","","","","",""
"","","","","","html-keyboard-response","118","2.0.0","138468","pgzvut51vf0","mus","gazelle","21","female","yes","yes","11","5-6 hours","null","<div style=""font-size:60px;"">+</div>","null","","","","","","",""
"","","","","","audio-keyboard-response","119","2.0.0","139072","pgzvut51vf0","mus","gazelle","21","female","yes","yes","11","5-6 hours","null","stimuli/sounds/phone_label_A.wav","null","","","","","","",""
"","","","","","html-keyboard-response","120","2.0.0","140073","pgzvut51vf0","mus","gazelle","21","female","yes","yes","11","5-6 hours","null","","null","","","","","","",""
"","","","","","image-keyboard-response","121","2.0.0","140656","pgzvut51vf0","mus","gazelle","21","female","yes","yes","11","5-6 hours","581","stimuli/pictures/drum_bongo_1.jpg","0","0","","true","no","sound","stimuli/sounds/phone_label_A.wav",""
"","","","","","audio-keyboard-response","122","2.0.0","141659","pgzvut51vf0","mus","gazelle","21","female","yes","yes","11","5-6 hours","null","stimuli/sounds/bleep.wav","null","","","","","","",""
"","","","","","html-keyboard-response","123","2.0.0","142273","pgzvut51vf0","mus","gazelle","21","female","yes","yes","11","5-6 hours","513","<div style=""font-size:30px;"">Press space to start the trial</div>"," ","","","","","","",""
"","","","","","html-keyboard-response","124","2.0.0","142525","pgzvut51vf0","mus","gazelle","21","female","yes","yes","11","5-6 hours","null","<div style=""font-size:60px;"">+</div>","null","","","","","","",""
"","","","","","audio-keyboard-response","125","2.0.0","143125","pgzvut51vf0","mus","gazelle","21","female","yes","yes","11","5-6 hours","null","stimuli/sounds/flute_sound_A.wav","null","","","","","","",""
"","","","","","html-keyboard-response","126","2.0.0","144127","pgzvut51vf0","mus","gazelle","21","female","yes","yes","11","5-6 hours","null","","null","","","","","","",""
"","","","","","image-keyboard-response","127","2.0.0","144640","pgzvut51vf0","mus","gazelle","21","female","yes","yes","11","5-6 hours","511","stimuli/pictures/flute_wooden_1.jpg","1","1","","true","no","sound","stimuli/sounds/flute_sound_A.wav",""
"","","","","","audio-keyboard-response","128","2.0.0","145641","pgzvut51vf0","mus","gazelle","21","female","yes","yes","11","5-6 hours","null","stimuli/sounds/bleep.wav","null","","","","","","",""
"","","","","","html-keyboard-response","129","2.0.0","146253","pgzvut51vf0","mus","gazelle","21","female","yes","yes","11","5-6 hours","510","<div style=""font-size:30px;"">Press space to start the trial</div>"," ","","","","","","",""
"","","","","","html-keyboard-response","130","2.0.0","146505","pgzvut51vf0","mus","gazelle","21","female","yes","yes","11","5-6 hours","null","<div style=""font-size:60px;"">+</div>","null","","","","","","",""
"","","","","","audio-keyboard-response","131","2.0.0","147112","pgzvut51vf0","mus","gazelle","21","female","yes","yes","11","5-6 hours","null","stimuli/sounds/flute_label_B.wav","null","","","","","","",""
"","","","","","html-keyboard-response","132","2.0.0","148114","pgzvut51vf0","mus","gazelle","21","female","yes","yes","11","5-6 hours","null","","null","","","","","","",""
"","","","","","image-keyboard-response","133","2.0.0","149010","pgzvut51vf0","mus","gazelle","21","female","yes","yes","11","5-6 hours","894","stimuli/pictures/flute_wooden_1.jpg","1","1","","true","yes","sound","stimuli/sounds/flute_label_B.wav",""
"","","","","","audio-keyboard-response","134","2.0.0","150012","pgzvut51vf0","mus","gazelle","21","female","yes","yes","11","5-6 hours","null","stimuli/sounds/bleep.wav","null","","","","","","",""
"","","","","","html-keyboard-response","135","2.0.0","150760","pgzvut51vf0","mus","gazelle","21","female","yes","yes","11","5-6 hours","647","<div style=""font-size:30px;"">Press space to start the trial</div>"," ","","","","","","",""
"","","","","","html-keyboard-response","136","2.0.0","151012","pgzvut51vf0","mus","gazelle","21","female","yes","yes","11","5-6 hours","null","<div style=""font-size:60px;"">+</div>","null","","","","","","",""
"","","","","","audio-keyboard-response","137","2.0.0","151616","pgzvut51vf0","mus","gazelle","21","female","yes","yes","11","5-6 hours","null","stimuli/sounds/piano_label_B.wav","null","","","","","","",""
"","","","","","html-keyboard-response","138","2.0.0","152617","pgzvut51vf0","mus","gazelle","21","female","yes","yes","11","5-6 hours","null","","null","","","","","","",""
"","","","","","image-keyboard-response","139","2.0.0","153833","pgzvut51vf0","mus","gazelle","21","female","yes","yes","11","5-6 hours","1212","stimuli/pictures/piano_electric_2.jpg","1","1","","true","yes","sound","stimuli/sounds/piano_label_B.wav",""
"","","","","","audio-keyboard-response","140","2.0.0","154835","pgzvut51vf0","mus","gazelle","21","female","yes","yes","11","5-6 hours","null","stimuli/sounds/bleep.wav","null","","","","","","",""
"","","","","","html-keyboard-response","141","2.0.0","155565","pgzvut51vf0","mus","gazelle","21","female","yes","yes","11","5-6 hours","629","<div style=""font-size:30px;"">Press space to start the trial</div>"," ","","","","","","",""
"","","","","","html-keyboard-response","142","2.0.0","155816","pgzvut51vf0","mus","gazelle","21","female","yes","yes","11","5-6 hours","null","<div style=""font-size:60px;"">+</div>","null","","","","","","",""
"","","","","","audio-keyboard-response","143","2.0.0","156419","pgzvut51vf0","mus","gazelle","21","female","yes","yes","11","5-6 hours","null","stimuli/sounds/piano_label_B.wav","null","","","","","","",""
"","","","","","html-keyboard-response","144","2.0.0","157420","pgzvut51vf0","mus","gazelle","21","female","yes","yes","11","5-6 hours","null","","null","","","","","","",""
"","","","","","image-keyboard-response","145","2.0.0","158326","pgzvut51vf0","mus","gazelle","21","female","yes","yes","11","5-6 hours","902","stimuli/pictures/piano_grand_1.jpg","1","1","","true","yes","sound","stimuli/sounds/piano_label_B.wav",""
"","","","","","audio-keyboard-response","146","2.0.0","159329","pgzvut51vf0","mus","gazelle","21","female","yes","yes","11","5-6 hours","null","stimuli/sounds/bleep.wav","null","","","","","","",""
"","","","","","html-keyboard-response","147","2.0.0","162887","pgzvut51vf0","mus","gazelle","21","female","yes","yes","11","5-6 hours","3457","<p>You have completed a block. Press R when you are ready to continue</p>","r","","","","","","",""
"","","","","","html-keyboard-response","148","2.0.0","165195","pgzvut51vf0","mus","gazelle","21","female","yes","yes","11","5-6 hours","2307","<div style=""font-size:30px;"">Press space to start the trial</div>"," ","","","","","","",""
"","","","","","html-keyboard-response","149","2.0.0","165448","pgzvut51vf0","mus","gazelle","21","female","yes","yes","11","5-6 hours","null","<div style=""font-size:60px;"">+</div>","null","","","","","","",""
"","","","","","audio-keyboard-response","150","2.0.0","166051","pgzvut51vf0","mus","gazelle","21","female","yes","yes","11","5-6 hours","null","stimuli/sounds/phone_sound_B.wav","null","","","","","","",""
"","","","","","html-keyboard-response","151","2.0.0","167052","pgzvut51vf0","mus","gazelle","21","female","yes","yes","11","5-6 hours","null","","null","","","","","","",""
"","","","","","image-keyboard-response","152","2.0.0","167715","pgzvut51vf0","mus","gazelle","21","female","yes","yes","11","5-6 hours","659","stimuli/pictures/phone_rotary_1.jpg","1","1","","true","yes","sound","stimuli/sounds/phone_sound_B.wav",""
"","","","","","audio-keyboard-response","153","2.0.0","168718","pgzvut51vf0","mus","gazelle","21","female","yes","yes","11","5-6 hours","null","stimuli/sounds/bleep.wav","null","","","","","","",""
"","","","","","html-keyboard-response","154","2.0.0","169597","pgzvut51vf0","mus","gazelle","21","female","yes","yes","11","5-6 hours","777","<div style=""font-size:30px;"">Press space to start the trial</div>"," ","","","","","","",""
"","","","","","html-keyboard-response","155","2.0.0","169849","pgzvut51vf0","mus","gazelle","21","female","yes","yes","11","5-6 hours","null","<div style=""font-size:60px;"">+</div>","null","","","","","","",""
"","","","","","audio-keyboard-response","156","2.0.0","170451","pgzvut51vf0","mus","gazelle","21","female","yes","yes","11","5-6 hours","null","stimuli/sounds/bird_sound_B.wav","null","","","","","","",""
"","","","","","html-keyboard-response","157","2.0.0","171452","pgzvut51vf0","mus","gazelle","21","female","yes","yes","11","5-6 hours","null","","null","","","","","","",""
"","","","","","image-keyboard-response","158","2.0.0","171898","pgzvut51vf0","mus","gazelle","21","female","yes","yes","11","5-6 hours","445","stimuli/pictures/bird_song_1.jpg","1","1","","true","yes","sound","stimuli/sounds/bird_sound_B.wav",""
"","","","","","audio-keyboard-response","159","2.0.0","172899","pgzvut51vf0","mus","gazelle","21","female","yes","yes","11","5-6 hours","null","stimuli/sounds/bleep.wav","null","","","","","","",""
"","","","","","html-keyboard-response","160","2.0.0","173522","pgzvut51vf0","mus","gazelle","21","female","yes","yes","11","5-6 hours","521","<div style=""font-size:30px;"">Press space to start the trial</div>"," ","","","","","","",""
"","","","","","html-keyboard-response","161","2.0.0","173774","pgzvut51vf0","mus","gazelle","21","female","yes","yes","11","5-6 hours","null","<div style=""font-size:60px;"">+</div>","null","","","","","","",""
"","","","","","audio-keyboard-response","162","2.0.0","174373","pgzvut51vf0","mus","gazelle","21","female","yes","yes","11","5-6 hours","null","stimuli/sounds/drum_label_B.wav","null","","","","","","",""
"","","","","","html-keyboard-response","163","2.0.0","175375","pgzvut51vf0","mus","gazelle","21","female","yes","yes","11","5-6 hours","null","","null","","","","","","",""
"","","","","","image-keyboard-response","164","2.0.0","176067","pgzvut51vf0","mus","gazelle","21","female","yes","yes","11","5-6 hours","691","stimuli/pictures/piano_grand_1.jpg","0","0","","true","no","sound","stimuli/sounds/drum_label_B.wav",""
"","","","","","audio-keyboard-response","165","2.0.0","177068","pgzvut51vf0","mus","gazelle","21","female","yes","yes","11","5-6 hours","null","stimuli/sounds/bleep.wav","null","","","","","","",""
"","","","","","html-keyboard-response","166","2.0.0","177613","pgzvut51vf0","mus","gazelle","21","female","yes","yes","11","5-6 hours","444","<div style=""font-size:30px;"">Press space to start the trial</div>"," ","","","","","","",""
"","","","","","html-keyboard-response","167","2.0.0","177865","pgzvut51vf0","mus","gazelle","21","female","yes","yes","11","5-6 hours","null","<div style=""font-size:60px;"">+</div>","null","","","","","","",""
"","","","","","audio-keyboard-response","168","2.0.0","178464","pgzvut51vf0","mus","gazelle","21","female","yes","yes","11","5-6 hours","null","stimuli/sounds/phone_sound_B.wav","null","","","","","","",""
"","","","","","html-keyboard-response","169","2.0.0","179466","pgzvut51vf0","mus","gazelle","21","female","yes","yes","11","5-6 hours","null","","null","","","","","","",""
"","","","","","image-keyboard-response","170","2.0.0","180538","pgzvut51vf0","mus","gazelle","21","female","yes","yes","11","5-6 hours","1070","stimuli/pictures/piano_grand_2.jpg","0","0","","true","no","sound","stimuli/sounds/phone_sound_B.wav",""
"","","","","","audio-keyboard-response","171","2.0.0","181539","pgzvut51vf0","mus","gazelle","21","female","yes","yes","11","5-6 hours","null","stimuli/sounds/bleep.wav","null","","","","","","",""
"","","","","","html-keyboard-response","172","2.0.0","182163","pgzvut51vf0","mus","gazelle","21","female","yes","yes","11","5-6 hours","521","<div style=""font-size:30px;"">Press space to start the trial</div>"," ","","","","","","",""
"","","","","","html-keyboard-response","173","2.0.0","182415","pgzvut51vf0","mus","gazelle","21","female","yes","yes","11","5-6 hours","null","<div style=""font-size:60px;"">+</div>","null","","","","","","",""
"","","","","","audio-keyboard-response","174","2.0.0","183016","pgzvut51vf0","mus","gazelle","21","female","yes","yes","11","5-6 hours","null","stimuli/sounds/flute_sound_A.wav","null","","","","","","",""
"","","","","","html-keyboard-response","175","2.0.0","184017","pgzvut51vf0","mus","gazelle","21","female","yes","yes","11","5-6 hours","null","","null","","","","","","",""
"","","","","","image-keyboard-response","176","2.0.0","184709","pgzvut51vf0","mus","gazelle","21","female","yes","yes","11","5-6 hours","690","stimuli/pictures/phone_rotary_1.jpg","0","0","","true","no","sound","stimuli/sounds/flute_sound_A.wav",""
"","","","","","audio-keyboard-response","177","2.0.0","185711","pgzvut51vf0","mus","gazelle","21","female","yes","yes","11","5-6 hours","null","stimuli/sounds/bleep.wav","null","","","","","","",""
"","","","","","html-keyboard-response","178","2.0.0","186335","pgzvut51vf0","mus","gazelle","21","female","yes","yes","11","5-6 hours","522","<div style=""font-size:30px;"">Press space to start the trial</div>"," ","","","","","","",""
"","","","","","html-keyboard-response","179","2.0.0","186587","pgzvut51vf0","mus","gazelle","21","female","yes","yes","11","5-6 hours","null","<div style=""font-size:60px;"">+</div>","null","","","","","","",""
"","","","","","audio-keyboard-response","180","2.0.0","187189","pgzvut51vf0","mus","gazelle","21","female","yes","yes","11","5-6 hours","null","stimuli/sounds/drum_label_A.wav","null","","","","","","",""
"","","","","","html-keyboard-response","181","2.0.0","188191","pgzvut51vf0","mus","gazelle","21","female","yes","yes","11","5-6 hours","null","","null","","","","","","",""
"","","","","","image-keyboard-response","182","2.0.0","188880","pgzvut51vf0","mus","gazelle","21","female","yes","yes","11","5-6 hours","685","stimuli/pictures/drum_bongo_2.jpg","1","1","","true","yes","sound","stimuli/sounds/drum_label_A.wav",""
"","","","","","audio-keyboard-response","183","2.0.0","189881","pgzvut51vf0","mus","gazelle","21","female","yes","yes","11","5-6 hours","null","stimuli/sounds/bleep.wav","null","","","","","","",""
"","","","","","html-keyboard-response","184","2.0.0","190768","pgzvut51vf0","mus","gazelle","21","female","yes","yes","11","5-6 hours","785","<div style=""font-size:30px;"">Press space to start the trial</div>"," ","","","","","","",""
"","","","","","html-keyboard-response","185","2.0.0","191020","pgzvut51vf0","mus","gazelle","21","female","yes","yes","11","5-6 hours","null","<div style=""font-size:60px;"">+</div>","null","","","","","","",""
"","","","","","audio-keyboard-response","186","2.0.0","191621","pgzvut51vf0","mus","gazelle","21","female","yes","yes","11","5-6 hours","null","stimuli/sounds/drum_sound_A.wav","null","","","","","","",""
"","","","","","html-keyboard-response","187","2.0.0","192622","pgzvut51vf0","mus","gazelle","21","female","yes","yes","11","5-6 hours","null","","null","","","","","","",""
"","","","","","image-keyboard-response","188","2.0.0","193840","pgzvut51vf0","mus","gazelle","21","female","yes","yes","11","5-6 hours","1215","stimuli/pictures/flute_metal_2.jpg","0","0","","true","no","sound","stimuli/sounds/drum_sound_A.wav",""
"","","","","","audio-keyboard-response","189","2.0.0","194842","pgzvut51vf0","mus","gazelle","21","female","yes","yes","11","5-6 hours","null","stimuli/sounds/bleep.wav","null","","","","","","",""
"","","","","","html-keyboard-response","190","2.0.0","195360","pgzvut51vf0","mus","gazelle","21","female","yes","yes","11","5-6 hours","416","<div style=""font-size:30px;"">Press space to start the trial</div>"," ","","","","","","",""
"","","","","","html-keyboard-response","191","2.0.0","195612","pgzvut51vf0","mus","gazelle","21","female","yes","yes","11","5-6 hours","null","<div style=""font-size:60px;"">+</div>","null","","","","","","",""
"","","","","","audio-keyboard-response","192","2.0.0","196213","pgzvut51vf0","mus","gazelle","21","female","yes","yes","11","5-6 hours","null","stimuli/sounds/bird_sound_B.wav","null","","","","","","",""
"","","","","","html-keyboard-response","193","2.0.0","197215","pgzvut51vf0","mus","gazelle","21","female","yes","yes","11","5-6 hours","null","","null","","","","","","",""
"","","","","","image-keyboard-response","194","2.0.0","197761","pgzvut51vf0","mus","gazelle","21","female","yes","yes","11","5-6 hours","544","stimuli/pictures/drum_kit_2.jpg","0","0","","true","no","sound","stimuli/sounds/bird_sound_B.wav",""
"","","","","","audio-keyboard-response","195","2.0.0","198763","pgzvut51vf0","mus","gazelle","21","female","yes","yes","11","5-6 hours","null","stimuli/sounds/bleep.wav","null","","","","","","",""
"","","","","","html-keyboard-response","196","2.0.0","199836","pgzvut51vf0","mus","gazelle","21","female","yes","yes","11","5-6 hours","971","<div style=""font-size:30px;"">Press space to start the trial</div>"," ","","","","","","",""
"","","","","","html-keyboard-response","197","2.0.0","200089","pgzvut51vf0","mus","gazelle","21","female","yes","yes","11","5-6 hours","null","<div style=""font-size:60px;"">+</div>","null","","","","","","",""
"","","","","","audio-keyboard-response","198","2.0.0","200688","pgzvut51vf0","mus","gazelle","21","female","yes","yes","11","5-6 hours","null","stimuli/sounds/phone_sound_A.wav","null","","","","","","",""
"","","","","","html-keyboard-response","199","2.0.0","201689","pgzvut51vf0","mus","gazelle","21","female","yes","yes","11","5-6 hours","null","","null","","","","","","",""
"","","","","","image-keyboard-response","200","2.0.0","202718","pgzvut51vf0","mus","gazelle","21","female","yes","yes","11","5-6 hours","1028","stimuli/pictures/bird_song_2.jpg","0","0","","true","no","sound","stimuli/sounds/phone_sound_A.wav",""
"","","","","","audio-keyboard-response","201","2.0.0","203720","pgzvut51vf0","mus","gazelle","21","female","yes","yes","11","5-6 hours","null","stimuli/sounds/bleep.wav","null","","","","","","",""
"","","","","","html-keyboard-response","202","2.0.0","204373","pgzvut51vf0","mus","gazelle","21","female","yes","yes","11","5-6 hours","551","<div style=""font-size:30px;"">Press space to start the trial</div>"," ","","","","","","",""
"","","","","","html-keyboard-response","203","2.0.0","204624","pgzvut51vf0","mus","gazelle","21","female","yes","yes","11","5-6 hours","null","<div style=""font-size:60px;"">+</div>","null","","","","","","",""
"","","","","","audio-keyboard-response","204","2.0.0","205224","pgzvut51vf0","mus","gazelle","21","female","yes","yes","11","5-6 hours","null","stimuli/sounds/flute_sound_A.wav","null","","","","","","",""
"","","","","","html-keyboard-response","205","2.0.0","206225","pgzvut51vf0","mus","gazelle","21","female","yes","yes","11","5-6 hours","null","","null","","","","","","",""
"","","","","","image-keyboard-response","206","2.0.0","206861","pgzvut51vf0","mus","gazelle","21","female","yes","yes","11","5-6 hours","634","stimuli/pictures/phone_cell_1.jpg","0","0","","true","no","sound","stimuli/sounds/flute_sound_A.wav",""
"","","","","","audio-keyboard-response","207","2.0.0","207864","pgzvut51vf0","mus","gazelle","21","female","yes","yes","11","5-6 hours","null","stimuli/sounds/bleep.wav","null","","","","","","",""
"","","","","","html-keyboard-response","208","2.0.0","208869","pgzvut51vf0","mus","gazelle","21","female","yes","yes","11","5-6 hours","904","<div style=""font-size:30px;"">Press space to start the trial</div>"," ","","","","","","",""
"","","","","","html-keyboard-response","209","2.0.0","209122","pgzvut51vf0","mus","gazelle","21","female","yes","yes","11","5-6 hours","null","<div style=""font-size:60px;"">+</div>","null","","","","","","",""
"","","","","","audio-keyboard-response","210","2.0.0","209731","pgzvut51vf0","mus","gazelle","21","female","yes","yes","11","5-6 hours","null","stimuli/sounds/flute_sound_B.wav","null","","","","","","",""
"","","","","","html-keyboard-response","211","2.0.0","210732","pgzvut51vf0","mus","gazelle","21","female","yes","yes","11","5-6 hours","null","","null","","","","","","",""
"","","","","","image-keyboard-response","212","2.0.0","211674","pgzvut51vf0","mus","gazelle","21","female","yes","yes","11","5-6 hours","940","stimuli/pictures/flute_wooden_2.jpg","1","1","","true","yes","sound","stimuli/sounds/flute_sound_B.wav",""
"","","","","","audio-keyboard-response","213","2.0.0","212676","pgzvut51vf0","mus","gazelle","21","female","yes","yes","11","5-6 hours","null","stimuli/sounds/bleep.wav","null","","","","","","",""
"","","","","","html-keyboard-response","214","2.0.0","213245","pgzvut51vf0","mus","gazelle","21","female","yes","yes","11","5-6 hours","467","<div style=""font-size:30px;"">Press space to start the trial</div>"," ","","","","","","",""
"","","","","","html-keyboard-response","215","2.0.0","213497","pgzvut51vf0","mus","gazelle","21","female","yes","yes","11","5-6 hours","null","<div style=""font-size:60px;"">+</div>","null","","","","","","",""
"","","","","","audio-keyboard-response","216","2.0.0","214104","pgzvut51vf0","mus","gazelle","21","female","yes","yes","11","5-6 hours","null","stimuli/sounds/flute_label_B.wav","null","","","","","","",""
"","","","","","html-keyboard-response","217","2.0.0","215105","pgzvut51vf0","mus","gazelle","21","female","yes","yes","11","5-6 hours","null","","null","","","","","","",""
"","","","","","image-keyboard-response","218","2.0.0","215548","pgzvut51vf0","mus","gazelle","21","female","yes","yes","11","5-6 hours","441","stimuli/pictures/drum_kit_2.jpg","0","0","","true","no","sound","stimuli/sounds/flute_label_B.wav",""
"","","","","","audio-keyboard-response","219","2.0.0","216550","pgzvut51vf0","mus","gazelle","21","female","yes","yes","11","5-6 hours","null","stimuli/sounds/bleep.wav","null","","","","","","",""
"","","","","","html-keyboard-response","220","2.0.0","217178","pgzvut51vf0","mus","gazelle","21","female","yes","yes","11","5-6 hours","526","<div style=""font-size:30px;"">Press space to start the trial</div>"," ","","","","","","",""
"","","","","","html-keyboard-response","221","2.0.0","217429","pgzvut51vf0","mus","gazelle","21","female","yes","yes","11","5-6 hours","null","<div style=""font-size:60px;"">+</div>","null","","","","","","",""
"","","","","","audio-keyboard-response","222","2.0.0","218029","pgzvut51vf0","mus","gazelle","21","female","yes","yes","11","5-6 hours","null","stimuli/sounds/drum_label_A.wav","null","","","","","","",""
"","","","","","html-keyboard-response","223","2.0.0","219030","pgzvut51vf0","mus","gazelle","21","female","yes","yes","11","5-6 hours","null","","null","","","","","","",""
"","","","","","image-keyboard-response","224","2.0.0","219673","pgzvut51vf0","mus","gazelle","21","female","yes","yes","11","5-6 hours","641","stimuli/pictures/drum_bongo_1.jpg","1","1","","true","yes","sound","stimuli/sounds/drum_label_A.wav",""
"","","","","","audio-keyboard-response","225","2.0.0","220675","pgzvut51vf0","mus","gazelle","21","female","yes","yes","11","5-6 hours","null","stimuli/sounds/bleep.wav","null","","","","","","",""
"","","","","","html-keyboard-response","226","2.0.0","221246","pgzvut51vf0","mus","gazelle","21","female","yes","yes","11","5-6 hours","470","<div style=""font-size:30px;"">Press space to start the trial</div>"," ","","","","","","",""
"","","","","","html-keyboard-response","227","2.0.0","221497","pgzvut51vf0","mus","gazelle","21","female","yes","yes","11","5-6 hours","null","<div style=""font-size:60px;"">+</div>","null","","","","","","",""
"","","","","","audio-keyboard-response","228","2.0.0","222096","pgzvut51vf0","mus","gazelle","21","female","yes","yes","11","5-6 hours","null","stimuli/sounds/bird_label_B.wav","null","","","","","","",""
"","","","","","html-keyboard-response","229","2.0.0","223097","pgzvut51vf0","mus","gazelle","21","female","yes","yes","11","5-6 hours","null","","null","","","","","","",""
"","","","","","image-keyboard-response","230","2.0.0","223548","pgzvut51vf0","mus","gazelle","21","female","yes","yes","11","5-6 hours","449","stimuli/pictures/bird_song_1.jpg","1","1","","true","yes","sound","stimuli/sounds/bird_label_B.wav",""
"","","","","","audio-keyboard-response","231","2.0.0","224550","pgzvut51vf0","mus","gazelle","21","female","yes","yes","11","5-6 hours","null","stimuli/sounds/bleep.wav","null","","","","","","",""
"","","","","","html-keyboard-response","232","2.0.0","225261","pgzvut51vf0","mus","gazelle","21","female","yes","yes","11","5-6 hours","609","<div style=""font-size:30px;"">Press space to start the trial</div>"," ","","","","","","",""
"","","","","","html-keyboard-response","233","2.0.0","225512","pgzvut51vf0","mus","gazelle","21","female","yes","yes","11","5-6 hours","null","<div style=""font-size:60px;"">+</div>","null","","","","","","",""
"","","","","","audio-keyboard-response","234","2.0.0","226115","pgzvut51vf0","mus","gazelle","21","female","yes","yes","11","5-6 hours","null","stimuli/sounds/bird_sound_A.wav","null","","","","","","",""
"","","","","","html-keyboard-response","235","2.0.0","227116","pgzvut51vf0","mus","gazelle","21","female","yes","yes","11","5-6 hours","null","","null","","","","","","",""
"","","","","","image-keyboard-response","236","2.0.0","227779","pgzvut51vf0","mus","gazelle","21","female","yes","yes","11","5-6 hours","661","stimuli/pictures/bird_song_2.jpg","1","1","","true","no","sound","stimuli/sounds/bird_sound_A.wav",""
"","","","","","audio-keyboard-response","237","2.0.0","228782","pgzvut51vf0","mus","gazelle","21","female","yes","yes","11","5-6 hours","null","stimuli/sounds/bleep.wav","null","","","","","","",""
"","","","","","html-keyboard-response","238","2.0.0","229282","pgzvut51vf0","mus","gazelle","21","female","yes","yes","11","5-6 hours","400","<div style=""font-size:30px;"">Press space to start the trial</div>"," ","","","","","","",""
"","","","","","html-keyboard-response","239","2.0.0","229534","pgzvut51vf0","mus","gazelle","21","female","yes","yes","11","5-6 hours","null","<div style=""font-size:60px;"">+</div>","null","","","","","","",""
"","","","","","audio-keyboard-response","240","2.0.0","230133","pgzvut51vf0","mus","gazelle","21","female","yes","yes","11","5-6 hours","null","stimuli/sounds/phone_label_B.wav","null","","","","","","",""
"","","","","","html-keyboard-response","241","2.0.0","231135","pgzvut51vf0","mus","gazelle","21","female","yes","yes","11","5-6 hours","null","","null","","","","","","",""
"","","","","","image-keyboard-response","242","2.0.0","231640","pgzvut51vf0","mus","gazelle","21","female","yes","yes","11","5-6 hours","503","stimuli/pictures/flute_wooden_1.jpg","0","0","","true","no","sound","stimuli/sounds/phone_label_B.wav",""
"","","","","","audio-keyboard-response","243","2.0.0","232642","pgzvut51vf0","mus","gazelle","21","female","yes","yes","11","5-6 hours","null","stimuli/sounds/bleep.wav","null","","","","","","",""
"","","","","","html-keyboard-response","244","2.0.0","233331","pgzvut51vf0","mus","gazelle","21","female","yes","yes","11","5-6 hours","587","<div style=""font-size:30px;"">Press space to start the trial</div>"," ","","","","","","",""
"","","","","","html-keyboard-response","245","2.0.0","233583","pgzvut51vf0","mus","gazelle","21","female","yes","yes","11","5-6 hours","null","<div style=""font-size:60px;"">+</div>","null","","","","","","",""
"","","","","","audio-keyboard-response","246","2.0.0","234189","pgzvut51vf0","mus","gazelle","21","female","yes","yes","11","5-6 hours","null","stimuli/sounds/flute_label_A.wav","null","","","","","","",""
"","","","","","html-keyboard-response","247","2.0.0","235190","pgzvut51vf0","mus","gazelle","21","female","yes","yes","11","5-6 hours","null","","null","","","","","","",""
"","","","","","image-keyboard-response","248","2.0.0","235651","pgzvut51vf0","mus","gazelle","21","female","yes","yes","11","5-6 hours","459","stimuli/pictures/flute_wooden_2.jpg","1","1","","true","yes","sound","stimuli/sounds/flute_label_A.wav",""
"","","","","","audio-keyboard-response","249","2.0.0","236653","pgzvut51vf0","mus","gazelle","21","female","yes","yes","11","5-6 hours","null","stimuli/sounds/bleep.wav","null","","","","","","",""
"","","","","","html-keyboard-response","250","2.0.0","237415","pgzvut51vf0","mus","gazelle","21","female","yes","yes","11","5-6 hours","660","<div style=""font-size:30px;"">Press space to start the trial</div>"," ","","","","","","",""
"","","","","","html-keyboard-response","251","2.0.0","237667","pgzvut51vf0","mus","gazelle","21","female","yes","yes","11","5-6 hours","null","<div style=""font-size:60px;"">+</div>","null","","","","","","",""
"","","","","","audio-keyboard-response","252","2.0.0","238266","pgzvut51vf0","mus","gazelle","21","female","yes","yes","11","5-6 hours","null","stimuli/sounds/drum_sound_A.wav","null","","","","","","",""
"","","","","","html-keyboard-response","253","2.0.0","239267","pgzvut51vf0","mus","gazelle","21","female","yes","yes","11","5-6 hours","null","","null","","","","","","",""
"","","","","","image-keyboard-response","254","2.0.0","240333","pgzvut51vf0","mus","gazelle","21","female","yes","yes","11","5-6 hours","1065","stimuli/pictures/drum_bongo_1.jpg","0","1","","false","no","sound","stimuli/sounds/drum_sound_A.wav",""
"","","","","","audio-keyboard-response","255","2.0.0","241334","pgzvut51vf0","mus","gazelle","21","female","yes","yes","11","5-6 hours","null","stimuli/sounds/buzz.wav","null","","","","","","",""
"","","","","","html-keyboard-response","256","2.0.0","241997","pgzvut51vf0","mus","gazelle","21","female","yes","yes","11","5-6 hours","562","<div style=""font-size:30px;"">Press space to start the trial</div>"," ","","","","","","",""
"","","","","","html-keyboard-response","257","2.0.0","242249","pgzvut51vf0","mus","gazelle","21","female","yes","yes","11","5-6 hours","null","<div style=""font-size:60px;"">+</div>","null","","","","","","",""
"","","","","","audio-keyboard-response","258","2.0.0","242851","pgzvut51vf0","mus","gazelle","21","female","yes","yes","11","5-6 hours","null","stimuli/sounds/phone_sound_A.wav","null","","","","","","",""
"","","","","","html-keyboard-response","259","2.0.0","243851","pgzvut51vf0","mus","gazelle","21","female","yes","yes","11","5-6 hours","null","","null","","","","","","",""
"","","","","","image-keyboard-response","260","2.0.0","244348","pgzvut51vf0","mus","gazelle","21","female","yes","yes","11","5-6 hours","495","stimuli/pictures/phone_rotary_1.jpg","1","1","","true","no","sound","stimuli/sounds/phone_sound_A.wav",""
"","","","","","audio-keyboard-response","261","2.0.0","245351","pgzvut51vf0","mus","gazelle","21","female","yes","yes","11","5-6 hours","null","stimuli/sounds/bleep.wav","null","","","","","","",""
"","","","","","html-keyboard-response","262","2.0.0","245813","pgzvut51vf0","mus","gazelle","21","female","yes","yes","11","5-6 hours","360","<div style=""font-size:30px;"">Press space to start the trial</div>"," ","","","","","","",""
"","","","","","html-keyboard-response","263","2.0.0","246065","pgzvut51vf0","mus","gazelle","21","female","yes","yes","11","5-6 hours","null","<div style=""font-size:60px;"">+</div>","null","","","","","","",""
"","","","","","audio-keyboard-response","264","2.0.0","246667","pgzvut51vf0","mus","gazelle","21","female","yes","yes","11","5-6 hours","null","stimuli/sounds/flute_label_A.wav","null","","","","","","",""
"","","","","","html-keyboard-response","265","2.0.0","247668","pgzvut51vf0","mus","gazelle","21","female","yes","yes","11","5-6 hours","null","","null","","","","","","",""
"","","","","","image-keyboard-response","266","2.0.0","248210","pgzvut51vf0","mus","gazelle","21","female","yes","yes","11","5-6 hours","541","stimuli/pictures/flute_metal_1.jpg","0","1","","false","yes","sound","stimuli/sounds/flute_label_A.wav",""
"","","","","","audio-keyboard-response","267","2.0.0","249213","pgzvut51vf0","mus","gazelle","21","female","yes","yes","11","5-6 hours","null","stimuli/sounds/buzz.wav","null","","","","","","",""
"","","","","","html-keyboard-response","268","2.0.0","251099","pgzvut51vf0","mus","gazelle","21","female","yes","yes","11","5-6 hours","1785","<p>You have completed a block. Press R when you are ready to continue</p>","r","","","","","","",""
"","","","","","html-keyboard-response","269","2.0.0","251781","pgzvut51vf0","mus","gazelle","21","female","yes","yes","11","5-6 hours","681","<div style=""font-size:30px;"">Press space to start the trial</div>"," ","","","","","","",""
"","","","","","html-keyboard-response","270","2.0.0","252033","pgzvut51vf0","mus","gazelle","21","female","yes","yes","11","5-6 hours","null","<div style=""font-size:60px;"">+</div>","null","","","","","","",""
"","","","","","audio-keyboard-response","271","2.0.0","252640","pgzvut51vf0","mus","gazelle","21","female","yes","yes","11","5-6 hours","null","stimuli/sounds/flute_label_B.wav","null","","","","","","",""
"","","","","","html-keyboard-response","272","2.0.0","253641","pgzvut51vf0","mus","gazelle","21","female","yes","yes","11","5-6 hours","null","","null","","","","","","",""
"","","","","","image-keyboard-response","273","2.0.0","254409","pgzvut51vf0","mus","gazelle","21","female","yes","yes","11","5-6 hours","766","stimuli/pictures/drum_bongo_2.jpg","0","0","","true","no","sound","stimuli/sounds/flute_label_B.wav",""
"","","","","","audio-keyboard-response","274","2.0.0","255411","pgzvut51vf0","mus","gazelle","21","female","yes","yes","11","5-6 hours","null","stimuli/sounds/bleep.wav","null","","","","","","",""
"","","","","","html-keyboard-response","275","2.0.0","256234","pgzvut51vf0","mus","gazelle","21","female","yes","yes","11","5-6 hours","721","<div style=""font-size:30px;"">Press space to start the trial</div>"," ","","","","","","",""
"","","","","","html-keyboard-response","276","2.0.0","256486","pgzvut51vf0","mus","gazelle","21","female","yes","yes","11","5-6 hours","null","<div style=""font-size:60px;"">+</div>","null","","","","","","",""
"","","","","","audio-keyboard-response","277","2.0.0","257085","pgzvut51vf0","mus","gazelle","21","female","yes","yes","11","5-6 hours","null","stimuli/sounds/drum_sound_B.wav","null","","","","","","",""
"","","","","","html-keyboard-response","278","2.0.0","258087","pgzvut51vf0","mus","gazelle","21","female","yes","yes","11","5-6 hours","null","","null","","","","","","",""
"","","","","","image-keyboard-response","279","2.0.0","258625","pgzvut51vf0","mus","gazelle","21","female","yes","yes","11","5-6 hours","537","stimuli/pictures/drum_bongo_1.jpg","1","1","","true","yes","sound","stimuli/sounds/drum_sound_B.wav",""
"","","","","","audio-keyboard-response","280","2.0.0","259628","pgzvut51vf0","mus","gazelle","21","female","yes","yes","11","5-6 hours","null","stimuli/sounds/bleep.wav","null","","","","","","",""
"","","","","","html-keyboard-response","281","2.0.0","260554","pgzvut51vf0","mus","gazelle","21","female","yes","yes","11","5-6 hours","825","<div style=""font-size:30px;"">Press space to start the trial</div>"," ","","","","","","",""
"","","","","","html-keyboard-response","282","2.0.0","260804","pgzvut51vf0","mus","gazelle","21","female","yes","yes","11","5-6 hours","null","<div style=""font-size:60px;"">+</div>","null","","","","","","",""
"","","","","","audio-keyboard-response","283","2.0.0","261432","pgzvut51vf0","mus","gazelle","21","female","yes","yes","11","5-6 hours","null","stimuli/sounds/piano_label_A.wav","null","","","","","","",""
"","","","","","html-keyboard-response","284","2.0.0","262432","pgzvut51vf0","mus","gazelle","21","female","yes","yes","11","5-6 hours","null","","null","","","","","","",""
"","","","","","image-keyboard-response","285","2.0.0","263466","pgzvut51vf0","mus","gazelle","21","female","yes","yes","11","5-6 hours","1030","stimuli/pictures/piano_electric_1.jpg","1","1","","true","yes","sound","stimuli/sounds/piano_label_A.wav",""
"","","","","","audio-keyboard-response","286","2.0.0","264468","pgzvut51vf0","mus","gazelle","21","female","yes","yes","11","5-6 hours","null","stimuli/sounds/bleep.wav","null","","","","","","",""
"","","","","","html-keyboard-response","287","2.0.0","265058","pgzvut51vf0","mus","gazelle","21","female","yes","yes","11","5-6 hours","488","<div style=""font-size:30px;"">Press space to start the trial</div>"," ","","","","","","",""
"","","","","","html-keyboard-response","288","2.0.0","265310","pgzvut51vf0","mus","gazelle","21","female","yes","yes","11","5-6 hours","null","<div style=""font-size:60px;"">+</div>","null","","","","","","",""
"","","","","","audio-keyboard-response","289","2.0.0","265909","pgzvut51vf0","mus","gazelle","21","female","yes","yes","11","5-6 hours","null","stimuli/sounds/drum_sound_B.wav","null","","","","","","",""
"","","","","","html-keyboard-response","290","2.0.0","266910","pgzvut51vf0","mus","gazelle","21","female","yes","yes","11","5-6 hours","null","","null","","","","","","",""
"","","","","","image-keyboard-response","291","2.0.0","267898","pgzvut51vf0","mus","gazelle","21","female","yes","yes","11","5-6 hours","986","stimuli/pictures/phone_rotary_1.jpg","0","0","","true","no","sound","stimuli/sounds/drum_sound_B.wav",""
"","","","","","audio-keyboard-response","292","2.0.0","268899","pgzvut51vf0","mus","gazelle","21","female","yes","yes","11","5-6 hours","null","stimuli/sounds/bleep.wav","null","","","","","","",""
"","","","","","html-keyboard-response","293","2.0.0","269466","pgzvut51vf0","mus","gazelle","21","female","yes","yes","11","5-6 hours","465","<div style=""font-size:30px;"">Press space to start the trial</div>"," ","","","","","","",""
"","","","","","html-keyboard-response","294","2.0.0","269717","pgzvut51vf0","mus","gazelle","21","female","yes","yes","11","5-6 hours","null","<div style=""font-size:60px;"">+</div>","null","","","","","","",""
"","","","","","audio-keyboard-response","295","2.0.0","270320","pgzvut51vf0","mus","gazelle","21","female","yes","yes","11","5-6 hours","null","stimuli/sounds/phone_sound_B.wav","null","","","","","","",""
"","","","","","html-keyboard-response","296","2.0.0","271321","pgzvut51vf0","mus","gazelle","21","female","yes","yes","11","5-6 hours","null","","null","","","","","","",""
"","","","","","image-keyboard-response","297","2.0.0","271968","pgzvut51vf0","mus","gazelle","21","female","yes","yes","11","5-6 hours","645","stimuli/pictures/piano_electric_2.jpg","0","0","","true","no","sound","stimuli/sounds/phone_sound_B.wav",""
"","","","","","audio-keyboard-response","298","2.0.0","272970","pgzvut51vf0","mus","gazelle","21","female","yes","yes","11","5-6 hours","null","stimuli/sounds/bleep.wav","null","","","","","","",""
"","","","","","html-keyboard-response","299","2.0.0","273439","pgzvut51vf0","mus","gazelle","21","female","yes","yes","11","5-6 hours","367","<div style=""font-size:30px;"">Press space to start the trial</div>"," ","","","","","","",""
"","","","","","html-keyboard-response","300","2.0.0","273691","pgzvut51vf0","mus","gazelle","21","female","yes","yes","11","5-6 hours","null","<div style=""font-size:60px;"">+</div>","null","","","","","","",""
"","","","","","audio-keyboard-response","301","2.0.0","274293","pgzvut51vf0","mus","gazelle","21","female","yes","yes","11","5-6 hours","null","stimuli/sounds/phone_label_B.wav","null","","","","","","",""
"","","","","","html-keyboard-response","302","2.0.0","275294","pgzvut51vf0","mus","gazelle","21","female","yes","yes","11","5-6 hours","null","","null","","","","","","",""
"","","","","","image-keyboard-response","303","2.0.0","275743","pgzvut51vf0","mus","gazelle","21","female","yes","yes","11","5-6 hours","447","stimuli/pictures/phone_cell_2.jpg","1","1","","true","yes","sound","stimuli/sounds/phone_label_B.wav",""
"","","","","","audio-keyboard-response","304","2.0.0","276744","pgzvut51vf0","mus","gazelle","21","female","yes","yes","11","5-6 hours","null","stimuli/sounds/bleep.wav","null","","","","","","",""
"","","","","","html-keyboard-response","305","2.0.0","277255","pgzvut51vf0","mus","gazelle","21","female","yes","yes","11","5-6 hours","409","<div style=""font-size:30px;"">Press space to start the trial</div>"," ","","","","","","",""
"","","","","","html-keyboard-response","306","2.0.0","277508","pgzvut51vf0","mus","gazelle","21","female","yes","yes","11","5-6 hours","null","<div style=""font-size:60px;"">+</div>","null","","","","","","",""
"","","","","","audio-keyboard-response","307","2.0.0","278109","pgzvut51vf0","mus","gazelle","21","female","yes","yes","11","5-6 hours","null","stimuli/sounds/flute_sound_A.wav","null","","","","","","",""
"","","","","","html-keyboard-response","308","2.0.0","279110","pgzvut51vf0","mus","gazelle","21","female","yes","yes","11","5-6 hours","null","","null","","","","","","",""
"","","","","","image-keyboard-response","309","2.0.0","279684","pgzvut51vf0","mus","gazelle","21","female","yes","yes","11","5-6 hours","572","stimuli/pictures/phone_rotary_2.jpg","0","0","","true","no","sound","stimuli/sounds/flute_sound_A.wav",""
"","","","","","audio-keyboard-response","310","2.0.0","280685","pgzvut51vf0","mus","gazelle","21","female","yes","yes","11","5-6 hours","null","stimuli/sounds/bleep.wav","null","","","","","","",""
"","","","","","html-keyboard-response","311","2.0.0","281271","pgzvut51vf0","mus","gazelle","21","female","yes","yes","11","5-6 hours","485","<div style=""font-size:30px;"">Press space to start the trial</div>"," ","","","","","","",""
"","","","","","html-keyboard-response","312","2.0.0","281524","pgzvut51vf0","mus","gazelle","21","female","yes","yes","11","5-6 hours","null","<div style=""font-size:60px;"">+</div>","null","","","","","","",""
"","","","","","audio-keyboard-response","313","2.0.0","282133","pgzvut51vf0","mus","gazelle","21","female","yes","yes","11","5-6 hours","null","stimuli/sounds/flute_sound_B.wav","null","","","","","","",""
"","","","","","html-keyboard-response","314","2.0.0","283134","pgzvut51vf0","mus","gazelle","21","female","yes","yes","11","5-6 hours","null","","null","","","","","","",""
"","","","","","image-keyboard-response","315","2.0.0","283670","pgzvut51vf0","mus","gazelle","21","female","yes","yes","11","5-6 hours","534","stimuli/pictures/bird_hawk_1.jpg","0","0","","true","no","sound","stimuli/sounds/flute_sound_B.wav",""
"","","","","","audio-keyboard-response","316","2.0.0","284672","pgzvut51vf0","mus","gazelle","21","female","yes","yes","11","5-6 hours","null","stimuli/sounds/bleep.wav","null","","","","","","",""
"","","","","","html-keyboard-response","317","2.0.0","285130","pgzvut51vf0","mus","gazelle","21","female","yes","yes","11","5-6 hours","357","<div style=""font-size:30px;"">Press space to start the trial</div>"," ","","","","","","",""
"","","","","","html-keyboard-response","318","2.0.0","285382","pgzvut51vf0","mus","gazelle","21","female","yes","yes","11","5-6 hours","null","<div style=""font-size:60px;"">+</div>","null","","","","","","",""
"","","","","","audio-keyboard-response","319","2.0.0","285981","pgzvut51vf0","mus","gazelle","21","female","yes","yes","11","5-6 hours","null","stimuli/sounds/phone_label_B.wav","null","","","","","","",""
"","","","","","html-keyboard-response","320","2.0.0","286983","pgzvut51vf0","mus","gazelle","21","female","yes","yes","11","5-6 hours","null","","null","","","","","","",""
"","","","","","image-keyboard-response","321","2.0.0","287671","pgzvut51vf0","mus","gazelle","21","female","yes","yes","11","5-6 hours","686","stimuli/pictures/flute_wooden_2.jpg","0","0","","true","no","sound","stimuli/sounds/phone_label_B.wav",""
"","","","","","audio-keyboard-response","322","2.0.0","288673","pgzvut51vf0","mus","gazelle","21","female","yes","yes","11","5-6 hours","null","stimuli/sounds/bleep.wav","null","","","","","","",""
"","","","","","html-keyboard-response","323","2.0.0","289159","pgzvut51vf0","mus","gazelle","21","female","yes","yes","11","5-6 hours","386","<div style=""font-size:30px;"">Press space to start the trial</div>"," ","","","","","","",""
"","","","","","html-keyboard-response","324","2.0.0","289411","pgzvut51vf0","mus","gazelle","21","female","yes","yes","11","5-6 hours","null","<div style=""font-size:60px;"">+</div>","null","","","","","","",""
"","","","","","audio-keyboard-response","325","2.0.0","290013","pgzvut51vf0","mus","gazelle","21","female","yes","yes","11","5-6 hours","null","stimuli/sounds/phone_sound_A.wav","null","","","","","","",""
"","","","","","html-keyboard-response","326","2.0.0","291014","pgzvut51vf0","mus","gazelle","21","female","yes","yes","11","5-6 hours","null","","null","","","","","","",""
"","","","","","image-keyboard-response","327","2.0.0","291434","pgzvut51vf0","mus","gazelle","21","female","yes","yes","11","5-6 hours","419","stimuli/pictures/phone_cell_2.jpg","1","1","","true","yes","sound","stimuli/sounds/phone_sound_A.wav",""
"","","","","","audio-keyboard-response","328","2.0.0","292437","pgzvut51vf0","mus","gazelle","21","female","yes","yes","11","5-6 hours","null","stimuli/sounds/bleep.wav","null","","","","","","",""
"","","","","","html-keyboard-response","329","2.0.0","292950","pgzvut51vf0","mus","gazelle","21","female","yes","yes","11","5-6 hours","411","<div style=""font-size:30px;"">Press space to start the trial</div>"," ","","","","","","",""
"","","","","","html-keyboard-response","330","2.0.0","293201","pgzvut51vf0","mus","gazelle","21","female","yes","yes","11","5-6 hours","null","<div style=""font-size:60px;"">+</div>","null","","","","","","",""
"","","","","","audio-keyboard-response","331","2.0.0","293810","pgzvut51vf0","mus","gazelle","21","female","yes","yes","11","5-6 hours","null","stimuli/sounds/piano_sound_A.wav","null","","","","","","",""
"","","","","","html-keyboard-response","332","2.0.0","294811","pgzvut51vf0","mus","gazelle","21","female","yes","yes","11","5-6 hours","null","","null","","","","","","",""
"","","","","","image-keyboard-response","333","2.0.0","295346","pgzvut51vf0","mus","gazelle","21","female","yes","yes","11","5-6 hours","533","stimuli/pictures/piano_electric_1.jpg","0","1","","false","no","sound","stimuli/sounds/piano_sound_A.wav",""
"","","","","","audio-keyboard-response","334","2.0.0","296348","pgzvut51vf0","mus","gazelle","21","female","yes","yes","11","5-6 hours","null","stimuli/sounds/buzz.wav","null","","","","","","",""
"","","","","","html-keyboard-response","335","2.0.0","297132","pgzvut51vf0","mus","gazelle","21","female","yes","yes","11","5-6 hours","683","<div style=""font-size:30px;"">Press space to start the trial</div>"," ","","","","","","",""
"","","","","","html-keyboard-response","336","2.0.0","297385","pgzvut51vf0","mus","gazelle","21","female","yes","yes","11","5-6 hours","null","<div style=""font-size:60px;"">+</div>","null","","","","","","",""
"","","","","","audio-keyboard-response","337","2.0.0","297986","pgzvut51vf0","mus","gazelle","21","female","yes","yes","11","5-6 hours","null","stimuli/sounds/phone_sound_A.wav","null","","","","","","",""
"","","","","","html-keyboard-response","338","2.0.0","298987","pgzvut51vf0","mus","gazelle","21","female","yes","yes","11","5-6 hours","null","","null","","","","","","",""
"","","","","","image-keyboard-response","339","2.0.0","299549","pgzvut51vf0","mus","gazelle","21","female","yes","yes","11","5-6 hours","560","stimuli/pictures/phone_cell_1.jpg","1","1","","true","yes","sound","stimuli/sounds/phone_sound_A.wav",""
"","","","","","audio-keyboard-response","340","2.0.0","300550","pgzvut51vf0","mus","gazelle","21","female","yes","yes","11","5-6 hours","null","stimuli/sounds/bleep.wav","null","","","","","","",""
"","","","","","html-keyboard-response","341","2.0.0","301673","pgzvut51vf0","mus","gazelle","21","female","yes","yes","11","5-6 hours","1021","<div style=""font-size:30px;"">Press space to start the trial</div>"," ","","","","","","",""
"","","","","","html-keyboard-response","342","2.0.0","301925","pgzvut51vf0","mus","gazelle","21","female","yes","yes","11","5-6 hours","null","<div style=""font-size:60px;"">+</div>","null","","","","","","",""
"","","","","","audio-keyboard-response","343","2.0.0","302525","pgzvut51vf0","mus","gazelle","21","female","yes","yes","11","5-6 hours","null","stimuli/sounds/phone_sound_B.wav","null","","","","","","",""
"","","","","","html-keyboard-response","344","2.0.0","303526","pgzvut51vf0","mus","gazelle","21","female","yes","yes","11","5-6 hours","null","","null","","","","","","",""
"","","","","","image-keyboard-response","345","2.0.0","304024","pgzvut51vf0","mus","gazelle","21","female","yes","yes","11","5-6 hours","497","stimuli/pictures/phone_cell_2.jpg","1","1","","true","no","sound","stimuli/sounds/phone_sound_B.wav",""
"","","","","","audio-keyboard-response","346","2.0.0","305025","pgzvut51vf0","mus","gazelle","21","female","yes","yes","11","5-6 hours","null","stimuli/sounds/bleep.wav","null","","","","","","",""
"","","","","","html-keyboard-response","347","2.0.0","306019","pgzvut51vf0","mus","gazelle","21","female","yes","yes","11","5-6 hours","893","<div style=""font-size:30px;"">Press space to start the trial</div>"," ","","","","","","",""
"","","","","","html-keyboard-response","348","2.0.0","306271","pgzvut51vf0","mus","gazelle","21","female","yes","yes","11","5-6 hours","null","<div style=""font-size:60px;"">+</div>","null","","","","","","",""
"","","","","","audio-keyboard-response","349","2.0.0","306872","pgzvut51vf0","mus","gazelle","21","female","yes","yes","11","5-6 hours","null","stimuli/sounds/drum_label_B.wav","null","","","","","","",""
"","","","","","html-keyboard-response","350","2.0.0","307873","pgzvut51vf0","mus","gazelle","21","female","yes","yes","11","5-6 hours","null","","null","","","","","","",""
"","","","","","image-keyboard-response","351","2.0.0","308707","pgzvut51vf0","mus","gazelle","21","female","yes","yes","11","5-6 hours","831","stimuli/pictures/piano_electric_2.jpg","0","0","","true","no","sound","stimuli/sounds/drum_label_B.wav",""
"","","","","","audio-keyboard-response","352","2.0.0","309709","pgzvut51vf0","mus","gazelle","21","female","yes","yes","11","5-6 hours","null","stimuli/sounds/bleep.wav","null","","","","","","",""
"","","","","","html-keyboard-response","353","2.0.0","310182","pgzvut51vf0","mus","gazelle","21","female","yes","yes","11","5-6 hours","371","<div style=""font-size:30px;"">Press space to start the trial</div>"," ","","","","","","",""
"","","","","","html-keyboard-response","354","2.0.0","310433","pgzvut51vf0","mus","gazelle","21","female","yes","yes","11","5-6 hours","null","<div style=""font-size:60px;"">+</div>","null","","","","","","",""
"","","","","","audio-keyboard-response","355","2.0.0","311042","pgzvut51vf0","mus","gazelle","21","female","yes","yes","11","5-6 hours","null","stimuli/sounds/piano_sound_A.wav","null","","","","","","",""
"","","","","","html-keyboard-response","356","2.0.0","312043","pgzvut51vf0","mus","gazelle","21","female","yes","yes","11","5-6 hours","null","","null","","","","","","",""
"","","","","","image-keyboard-response","357","2.0.0","312644","pgzvut51vf0","mus","gazelle","21","female","yes","yes","11","5-6 hours","597","stimuli/pictures/drum_kit_1.jpg","0","0","","true","no","sound","stimuli/sounds/piano_sound_A.wav",""
"","","","","","audio-keyboard-response","358","2.0.0","313645","pgzvut51vf0","mus","gazelle","21","female","yes","yes","11","5-6 hours","null","stimuli/sounds/bleep.wav","null","","","","","","",""
"","","","","","html-keyboard-response","359","2.0.0","314623","pgzvut51vf0","mus","gazelle","21","female","yes","yes","11","5-6 hours","877","<div style=""font-size:30px;"">Press space to start the trial</div>"," ","","","","","","",""
"","","","","","html-keyboard-response","360","2.0.0","314875","pgzvut51vf0","mus","gazelle","21","female","yes","yes","11","5-6 hours","null","<div style=""font-size:60px;"">+</div>","null","","","","","","",""
"","","","","","audio-keyboard-response","361","2.0.0","315501","pgzvut51vf0","mus","gazelle","21","female","yes","yes","11","5-6 hours","null","stimuli/sounds/piano_label_A.wav","null","","","","","","",""
"","","","","","html-keyboard-response","362","2.0.0","316502","pgzvut51vf0","mus","gazelle","21","female","yes","yes","11","5-6 hours","null","","null","","","","","","",""
"","","","","","image-keyboard-response","363","2.0.0","317783","pgzvut51vf0","mus","gazelle","21","female","yes","yes","11","5-6 hours","1279","stimuli/pictures/phone_cell_1.jpg","0","0","","true","no","sound","stimuli/sounds/piano_label_A.wav",""
"","","","","","audio-keyboard-response","364","2.0.0","318785","pgzvut51vf0","mus","gazelle","21","female","yes","yes","11","5-6 hours","null","stimuli/sounds/bleep.wav","null","","","","","","",""
"","","","","","html-keyboard-response","365","2.0.0","319746","pgzvut51vf0","mus","gazelle","21","female","yes","yes","11","5-6 hours","861","<div style=""font-size:30px;"">Press space to start the trial</div>"," ","","","","","","",""
"","","","","","html-keyboard-response","366","2.0.0","319997","pgzvut51vf0","mus","gazelle","21","female","yes","yes","11","5-6 hours","null","<div style=""font-size:60px;"">+</div>","null","","","","","","",""
"","","","","","audio-keyboard-response","367","2.0.0","320602","pgzvut51vf0","mus","gazelle","21","female","yes","yes","11","5-6 hours","null","stimuli/sounds/piano_sound_B.wav","null","","","","","","",""
"","","","","","html-keyboard-response","368","2.0.0","321603","pgzvut51vf0","mus","gazelle","21","female","yes","yes","11","5-6 hours","null","","null","","","","","","",""
"","","","","","image-keyboard-response","369","2.0.0","322379","pgzvut51vf0","mus","gazelle","21","female","yes","yes","11","5-6 hours","775","stimuli/pictures/piano_electric_2.jpg","1","1","","true","yes","sound","stimuli/sounds/piano_sound_B.wav",""
"","","","","","audio-keyboard-response","370","2.0.0","323381","pgzvut51vf0","mus","gazelle","21","female","yes","yes","11","5-6 hours","null","stimuli/sounds/bleep.wav","null","","","","","","",""
"","","","","","html-keyboard-response","371","2.0.0","323895","pgzvut51vf0","mus","gazelle","21","female","yes","yes","11","5-6 hours","412","<div style=""font-size:30px;"">Press space to start the trial</div>"," ","","","","","","",""
"","","","","","html-keyboard-response","372","2.0.0","324147","pgzvut51vf0","mus","gazelle","21","female","yes","yes","11","5-6 hours","null","<div style=""font-size:60px;"">+</div>","null","","","","","","",""
"","","","","","audio-keyboard-response","373","2.0.0","324746","pgzvut51vf0","mus","gazelle","21","female","yes","yes","11","5-6 hours","null","stimuli/sounds/bird_sound_A.wav","null","","","","","","",""
"","","","","","html-keyboard-response","374","2.0.0","325748","pgzvut51vf0","mus","gazelle","21","female","yes","yes","11","5-6 hours","null","","null","","","","","","",""
"","","","","","image-keyboard-response","375","2.0.0","326253","pgzvut51vf0","mus","gazelle","21","female","yes","yes","11","5-6 hours","503","stimuli/pictures/bird_song_1.jpg","1","1","","true","no","sound","stimuli/sounds/bird_sound_A.wav",""
"","","","","","audio-keyboard-response","376","2.0.0","327255","pgzvut51vf0","mus","gazelle","21","female","yes","yes","11","5-6 hours","null","stimuli/sounds/bleep.wav","null","","","","","","",""
"","","","","","html-keyboard-response","377","2.0.0","327923","pgzvut51vf0","mus","gazelle","21","female","yes","yes","11","5-6 hours","567","<div style=""font-size:30px;"">Press space to start the trial</div>"," ","","","","","","",""
"","","","","","html-keyboard-response","378","2.0.0","328174","pgzvut51vf0","mus","gazelle","21","female","yes","yes","11","5-6 hours","null","<div style=""font-size:60px;"">+</div>","null","","","","","","",""
"","","","","","audio-keyboard-response","379","2.0.0","328778","pgzvut51vf0","mus","gazelle","21","female","yes","yes","11","5-6 hours","null","stimuli/sounds/phone_label_A.wav","null","","","","","","",""
"","","","","","html-keyboard-response","380","2.0.0","329780","pgzvut51vf0","mus","gazelle","21","female","yes","yes","11","5-6 hours","null","","null","","","","","","",""
"","","","","","image-keyboard-response","381","2.0.0","330492","pgzvut51vf0","mus","gazelle","21","female","yes","yes","11","5-6 hours","710","stimuli/pictures/phone_rotary_2.jpg","1","1","","true","yes","sound","stimuli/sounds/phone_label_A.wav",""
"","","","","","audio-keyboard-response","382","2.0.0","331494","pgzvut51vf0","mus","gazelle","21","female","yes","yes","11","5-6 hours","null","stimuli/sounds/bleep.wav","null","","","","","","",""
"","","","","","html-keyboard-response","383","2.0.0","332279","pgzvut51vf0","mus","gazelle","21","female","yes","yes","11","5-6 hours","684","<div style=""font-size:30px;"">Press space to start the trial</div>"," ","","","","","","",""
"","","","","","html-keyboard-response","384","2.0.0","332531","pgzvut51vf0","mus","gazelle","21","female","yes","yes","11","5-6 hours","null","<div style=""font-size:60px;"">+</div>","null","","","","","","",""
"","","","","","audio-keyboard-response","385","2.0.0","333136","pgzvut51vf0","mus","gazelle","21","female","yes","yes","11","5-6 hours","null","stimuli/sounds/piano_label_B.wav","null","","","","","","",""
"","","","","","html-keyboard-response","386","2.0.0","334137","pgzvut51vf0","mus","gazelle","21","female","yes","yes","11","5-6 hours","null","","null","","","","","","",""
"","","","","","image-keyboard-response","387","2.0.0","334874","pgzvut51vf0","mus","gazelle","21","female","yes","yes","11","5-6 hours","736","stimuli/pictures/bird_hawk_1.jpg","0","0","","true","no","sound","stimuli/sounds/piano_label_B.wav",""
"","","","","","audio-keyboard-response","388","2.0.0","335876","pgzvut51vf0","mus","gazelle","21","female","yes","yes","11","5-6 hours","null","stimuli/sounds/bleep.wav","null","","","","","","",""
"","","","","","html-keyboard-response","389","2.0.0","337522","pgzvut51vf0","mus","gazelle","21","female","yes","yes","11","5-6 hours","1546","<p>You have completed a block. Press R when you are ready to continue</p>","r","","","","","","",""
"","","","","","html-keyboard-response","390","2.0.0","339375","pgzvut51vf0","mus","gazelle","21","female","yes","yes","11","5-6 hours","1851","<div style=""font-size:30px;"">Press space to start the trial</div>"," ","","","","","","",""
"","","","","","html-keyboard-response","391","2.0.0","339627","pgzvut51vf0","mus","gazelle","21","female","yes","yes","11","5-6 hours","null","<div style=""font-size:60px;"">+</div>","null","","","","","","",""
"","","","","","audio-keyboard-response","392","2.0.0","340253","pgzvut51vf0","mus","gazelle","21","female","yes","yes","11","5-6 hours","null","stimuli/sounds/piano_label_A.wav","null","","","","","","",""
"","","","","","html-keyboard-response","393","2.0.0","341253","pgzvut51vf0","mus","gazelle","21","female","yes","yes","11","5-6 hours","null","","null","","","","","","",""
"","","","","","image-keyboard-response","394","2.0.0","341827","pgzvut51vf0","mus","gazelle","21","female","yes","yes","11","5-6 hours","572","stimuli/pictures/phone_rotary_1.jpg","0","0","","true","no","sound","stimuli/sounds/piano_label_A.wav",""
"","","","","","audio-keyboard-response","395","2.0.0","342829","pgzvut51vf0","mus","gazelle","21","female","yes","yes","11","5-6 hours","null","stimuli/sounds/bleep.wav","null","","","","","","",""
"","","","","","html-keyboard-response","396","2.0.0","343828","pgzvut51vf0","mus","gazelle","21","female","yes","yes","11","5-6 hours","897","<div style=""font-size:30px;"">Press space to start the trial</div>"," ","","","","","","",""
"","","","","","html-keyboard-response","397","2.0.0","344080","pgzvut51vf0","mus","gazelle","21","female","yes","yes","11","5-6 hours","null","<div style=""font-size:60px;"">+</div>","null","","","","","","",""
"","","","","","audio-keyboard-response","398","2.0.0","344690","pgzvut51vf0","mus","gazelle","21","female","yes","yes","11","5-6 hours","null","stimuli/sounds/piano_sound_A.wav","null","","","","","","",""
"","","","","","html-keyboard-response","399","2.0.0","345691","pgzvut51vf0","mus","gazelle","21","female","yes","yes","11","5-6 hours","null","","null","","","","","","",""
"","","","","","image-keyboard-response","400","2.0.0","347024","pgzvut51vf0","mus","gazelle","21","female","yes","yes","11","5-6 hours","1331","stimuli/pictures/piano_electric_2.jpg","1","1","","true","no","sound","stimuli/sounds/piano_sound_A.wav",""
"","","","","","audio-keyboard-response","401","2.0.0","348026","pgzvut51vf0","mus","gazelle","21","female","yes","yes","11","5-6 hours","null","stimuli/sounds/bleep.wav","null","","","","","","",""
"","","","","","html-keyboard-response","402","2.0.0","348506","pgzvut51vf0","mus","gazelle","21","female","yes","yes","11","5-6 hours","379","<div style=""font-size:30px;"">Press space to start the trial</div>"," ","","","","","","",""
"","","","","","html-keyboard-response","403","2.0.0","348758","pgzvut51vf0","mus","gazelle","21","female","yes","yes","11","5-6 hours","null","<div style=""font-size:60px;"">+</div>","null","","","","","","",""
"","","","","","audio-keyboard-response","404","2.0.0","349359","pgzvut51vf0","mus","gazelle","21","female","yes","yes","11","5-6 hours","null","stimuli/sounds/drum_label_B.wav","null","","","","","","",""
"","","","","","html-keyboard-response","405","2.0.0","350361","pgzvut51vf0","mus","gazelle","21","female","yes","yes","11","5-6 hours","null","","null","","","","","","",""
"","","","","","image-keyboard-response","406","2.0.0","351034","pgzvut51vf0","mus","gazelle","21","female","yes","yes","11","5-6 hours","671","stimuli/pictures/piano_grand_2.jpg","0","0","","true","no","sound","stimuli/sounds/drum_label_B.wav",""
"","","","","","audio-keyboard-response","407","2.0.0","352036","pgzvut51vf0","mus","gazelle","21","female","yes","yes","11","5-6 hours","null","stimuli/sounds/bleep.wav","null","","","","","","",""
"","","","","","html-keyboard-response","408","2.0.0","352640","pgzvut51vf0","mus","gazelle","21","female","yes","yes","11","5-6 hours","503","<div style=""font-size:30px;"">Press space to start the trial</div>"," ","","","","","","",""
"","","","","","html-keyboard-response","409","2.0.0","352892","pgzvut51vf0","mus","gazelle","21","female","yes","yes","11","5-6 hours","null","<div style=""font-size:60px;"">+</div>","null","","","","","","",""
"","","","","","audio-keyboard-response","410","2.0.0","353519","pgzvut51vf0","mus","gazelle","21","female","yes","yes","11","5-6 hours","null","stimuli/sounds/piano_label_A.wav","null","","","","","","",""
"","","","","","html-keyboard-response","411","2.0.0","354521","pgzvut51vf0","mus","gazelle","21","female","yes","yes","11","5-6 hours","null","","null","","","","","","",""
"","","","","","image-keyboard-response","412","2.0.0","355208","pgzvut51vf0","mus","gazelle","21","female","yes","yes","11","5-6 hours","685","stimuli/pictures/piano_grand_1.jpg","1","1","","true","yes","sound","stimuli/sounds/piano_label_A.wav",""
"","","","","","audio-keyboard-response","413","2.0.0","356210","pgzvut51vf0","mus","gazelle","21","female","yes","yes","11","5-6 hours","null","stimuli/sounds/bleep.wav","null","","","","","","",""
"","","","","","html-keyboard-response","414","2.0.0","357414","pgzvut51vf0","mus","gazelle","21","female","yes","yes","11","5-6 hours","1102","<div style=""font-size:30px;"">Press space to start the trial</div>"," ","","","","","","",""
"","","","","","html-keyboard-response","415","2.0.0","357666","pgzvut51vf0","mus","gazelle","21","female","yes","yes","11","5-6 hours","null","<div style=""font-size:60px;"">+</div>","null","","","","","","",""
"","","","","","audio-keyboard-response","416","2.0.0","358266","pgzvut51vf0","mus","gazelle","21","female","yes","yes","11","5-6 hours","null","stimuli/sounds/flute_sound_A.wav","null","","","","","","",""
"","","","","","html-keyboard-response","417","2.0.0","359268","pgzvut51vf0","mus","gazelle","21","female","yes","yes","11","5-6 hours","null","","null","","","","","","",""
"","","","","","image-keyboard-response","418","2.0.0","359757","pgzvut51vf0","mus","gazelle","21","female","yes","yes","11","5-6 hours","488","stimuli/pictures/flute_wooden_2.jpg","1","1","","true","no","sound","stimuli/sounds/flute_sound_A.wav",""
"","","","","","audio-keyboard-response","419","2.0.0","360758","pgzvut51vf0","mus","gazelle","21","female","yes","yes","11","5-6 hours","null","stimuli/sounds/bleep.wav","null","","","","","","",""
"","","","","","html-keyboard-response","420","2.0.0","361470","pgzvut51vf0","mus","gazelle","21","female","yes","yes","11","5-6 hours","611","<div style=""font-size:30px;"">Press space to start the trial</div>"," ","","","","","","",""
"","","","","","html-keyboard-response","421","2.0.0","361722","pgzvut51vf0","mus","gazelle","21","female","yes","yes","11","5-6 hours","null","<div style=""font-size:60px;"">+</div>","null","","","","","","",""
"","","","","","audio-keyboard-response","422","2.0.0","362322","pgzvut51vf0","mus","gazelle","21","female","yes","yes","11","5-6 hours","null","stimuli/sounds/drum_label_A.wav","null","","","","","","",""
"","","","","","html-keyboard-response","423","2.0.0","363324","pgzvut51vf0","mus","gazelle","21","female","yes","yes","11","5-6 hours","null","","null","","","","","","",""
"","","","","","image-keyboard-response","424","2.0.0","363999","pgzvut51vf0","mus","gazelle","21","female","yes","yes","11","5-6 hours","674","stimuli/pictures/drum_kit_2.jpg","1","1","","true","yes","sound","stimuli/sounds/drum_label_A.wav",""
"","","","","","audio-keyboard-response","425","2.0.0","365001","pgzvut51vf0","mus","gazelle","21","female","yes","yes","11","5-6 hours","null","stimuli/sounds/bleep.wav","null","","","","","","",""
"","","","","","html-keyboard-response","426","2.0.0","365648","pgzvut51vf0","mus","gazelle","21","female","yes","yes","11","5-6 hours","544","<div style=""font-size:30px;"">Press space to start the trial</div>"," ","","","","","","",""
"","","","","","html-keyboard-response","427","2.0.0","365899","pgzvut51vf0","mus","gazelle","21","female","yes","yes","11","5-6 hours","null","<div style=""font-size:60px;"">+</div>","null","","","","","","",""
"","","","","","audio-keyboard-response","428","2.0.0","366500","pgzvut51vf0","mus","gazelle","21","female","yes","yes","11","5-6 hours","null","stimuli/sounds/piano_sound_B.wav","null","","","","","","",""
"","","","","","html-keyboard-response","429","2.0.0","367502","pgzvut51vf0","mus","gazelle","21","female","yes","yes","11","5-6 hours","null","","null","","","","","","",""
"","","","","","image-keyboard-response","430","2.0.0","368154","pgzvut51vf0","mus","gazelle","21","female","yes","yes","11","5-6 hours","651","stimuli/pictures/flute_metal_2.jpg","0","0","","true","no","sound","stimuli/sounds/piano_sound_B.wav",""
"","","","","","audio-keyboard-response","431","2.0.0","369156","pgzvut51vf0","mus","gazelle","21","female","yes","yes","11","5-6 hours","null","stimuli/sounds/bleep.wav","null","","","","","","",""
"","","","","","html-keyboard-response","432","2.0.0","369782","pgzvut51vf0","mus","gazelle","21","female","yes","yes","11","5-6 hours","525","<div style=""font-size:30px;"">Press space to start the trial</div>"," ","","","","","","",""
"","","","","","html-keyboard-response","433","2.0.0","370033","pgzvut51vf0","mus","gazelle","21","female","yes","yes","11","5-6 hours","null","<div style=""font-size:60px;"">+</div>","null","","","","","","",""
"","","","","","audio-keyboard-response","434","2.0.0","370642","pgzvut51vf0","mus","gazelle","21","female","yes","yes","11","5-6 hours","null","stimuli/sounds/piano_sound_A.wav","null","","","","","","",""
"","","","","","html-keyboard-response","435","2.0.0","371643","pgzvut51vf0","mus","gazelle","21","female","yes","yes","11","5-6 hours","null","","null","","","","","","",""
"","","","","","image-keyboard-response","436","2.0.0","372179","pgzvut51vf0","mus","gazelle","21","female","yes","yes","11","5-6 hours","534","stimuli/pictures/drum_bongo_2.jpg","0","0","","true","no","sound","stimuli/sounds/piano_sound_A.wav",""
"","","","","","audio-keyboard-response","437","2.0.0","373181","pgzvut51vf0","mus","gazelle","21","female","yes","yes","11","5-6 hours","null","stimuli/sounds/bleep.wav","null","","","","","","",""
"","","","","","html-keyboard-response","438","2.0.0","373719","pgzvut51vf0","mus","gazelle","21","female","yes","yes","11","5-6 hours","437","<div style=""font-size:30px;"">Press space to start the trial</div>"," ","","","","","","",""
"","","","","","html-keyboard-response","439","2.0.0","373972","pgzvut51vf0","mus","gazelle","21","female","yes","yes","11","5-6 hours","null","<div style=""font-size:60px;"">+</div>","null","","","","","","",""
"","","","","","audio-keyboard-response","440","2.0.0","374599","pgzvut51vf0","mus","gazelle","21","female","yes","yes","11","5-6 hours","null","stimuli/sounds/piano_label_A.wav","null","","","","","","",""
"","","","","","html-keyboard-response","441","2.0.0","375601","pgzvut51vf0","mus","gazelle","21","female","yes","yes","11","5-6 hours","null","","null","","","","","","",""
"","","","","","image-keyboard-response","442","2.0.0","376284","pgzvut51vf0","mus","gazelle","21","female","yes","yes","11","5-6 hours","682","stimuli/pictures/piano_electric_2.jpg","1","1","","true","yes","sound","stimuli/sounds/piano_label_A.wav",""
"","","","","","audio-keyboard-response","443","2.0.0","377286","pgzvut51vf0","mus","gazelle","21","female","yes","yes","11","5-6 hours","null","stimuli/sounds/bleep.wav","null","","","","","","",""
"","","","","","html-keyboard-response","444","2.0.0","377790","pgzvut51vf0","mus","gazelle","21","female","yes","yes","11","5-6 hours","402","<div style=""font-size:30px;"">Press space to start the trial</div>"," ","","","","","","",""
"","","","","","html-keyboard-response","445","2.0.0","378042","pgzvut51vf0","mus","gazelle","21","female","yes","yes","11","5-6 hours","null","<div style=""font-size:60px;"">+</div>","null","","","","","","",""
"","","","","","audio-keyboard-response","446","2.0.0","378642","pgzvut51vf0","mus","gazelle","21","female","yes","yes","11","5-6 hours","null","stimuli/sounds/drum_sound_A.wav","null","","","","","","",""
"","","","","","html-keyboard-response","447","2.0.0","379643","pgzvut51vf0","mus","gazelle","21","female","yes","yes","11","5-6 hours","null","","null","","","","","","",""
"","","","","","image-keyboard-response","448","2.0.0","380380","pgzvut51vf0","mus","gazelle","21","female","yes","yes","11","5-6 hours","735","stimuli/pictures/drum_kit_1.jpg","1","1","","true","yes","sound","stimuli/sounds/drum_sound_A.wav",""
"","","","","","audio-keyboard-response","449","2.0.0","381382","pgzvut51vf0","mus","gazelle","21","female","yes","yes","11","5-6 hours","null","stimuli/sounds/bleep.wav","null","","","","","","",""
"","","","","","html-keyboard-response","450","2.0.0","381969","pgzvut51vf0","mus","gazelle","21","female","yes","yes","11","5-6 hours","486","<div style=""font-size:30px;"">Press space to start the trial</div>"," ","","","","","","",""
"","","","","","html-keyboard-response","451","2.0.0","382222","pgzvut51vf0","mus","gazelle","21","female","yes","yes","11","5-6 hours","null","<div style=""font-size:60px;"">+</div>","null","","","","","","",""
"","","","","","audio-keyboard-response","452","2.0.0","382826","pgzvut51vf0","mus","gazelle","21","female","yes","yes","11","5-6 hours","null","stimuli/sounds/piano_label_B.wav","null","","","","","","",""
"","","","","","html-keyboard-response","453","2.0.0","383827","pgzvut51vf0","mus","gazelle","21","female","yes","yes","11","5-6 hours","null","","null","","","","","","",""
"","","","","","image-keyboard-response","454","2.0.0","384365","pgzvut51vf0","mus","gazelle","21","female","yes","yes","11","5-6 hours","535","stimuli/pictures/piano_electric_1.jpg","1","1","","true","yes","sound","stimuli/sounds/piano_label_B.wav",""
"","","","","","audio-keyboard-response","455","2.0.0","385367","pgzvut51vf0","mus","gazelle","21","female","yes","yes","11","5-6 hours","null","stimuli/sounds/bleep.wav","null","","","","","","",""
"","","","","","html-keyboard-response","456","2.0.0","386274","pgzvut51vf0","mus","gazelle","21","female","yes","yes","11","5-6 hours","806","<div style=""font-size:30px;"">Press space to start the trial</div>"," ","","","","","","",""
"","","","","","html-keyboard-response","457","2.0.0","386526","pgzvut51vf0","mus","gazelle","21","female","yes","yes","11","5-6 hours","null","<div style=""font-size:60px;"">+</div>","null","","","","","","",""
"","","","","","audio-keyboard-response","458","2.0.0","387130","pgzvut51vf0","mus","gazelle","21","female","yes","yes","11","5-6 hours","null","stimuli/sounds/bird_label_A.wav","null","","","","","","",""
"","","","","","html-keyboard-response","459","2.0.0","388131","pgzvut51vf0","mus","gazelle","21","female","yes","yes","11","5-6 hours","null","","null","","","","","","",""
"","","","","","image-keyboard-response","460","2.0.0","388789","pgzvut51vf0","mus","gazelle","21","female","yes","yes","11","5-6 hours","657","stimuli/pictures/flute_metal_1.jpg","0","0","","true","no","sound","stimuli/sounds/bird_label_A.wav",""
"","","","","","audio-keyboard-response","461","2.0.0","389791","pgzvut51vf0","mus","gazelle","21","female","yes","yes","11","5-6 hours","null","stimuli/sounds/bleep.wav","null","","","","","","",""
"","","","","","html-keyboard-response","462","2.0.0","390320","pgzvut51vf0","mus","gazelle","21","female","yes","yes","11","5-6 hours","428","<div style=""font-size:30px;"">Press space to start the trial</div>"," ","","","","","","",""
