"success","timeout","failed_images","failed_audio","failed_video","trial_type","trial_index","plugin_version","time_elapsed","random_id","condition","participant","age","gender_id","mus_exp","inst_exp","years_exp","mus_listening","rt","stimulus","response","correct_response","practice","correct","congruent","sound_type","audio","question_order"
"true","false","[]","[]","[]","preload","0","2.0.0","420","phbf034g6t6","mus","lion","22","female","yes","yes","4","3 ","","","","","","","","","",""
"","","","","","html-keyboard-response","1","2.0.0","1765","phbf034g6t6","mus","lion","22","female","yes","yes","4","3 ","1344","Welcome to the experiment! Press any key to begin."," ","","","","","","",""
"true","","","","","fullscreen","2","null","5328","phbf034g6t6","mus","lion","22","female","yes","yes","4","3 ","2558","","","","","","","","",""
"","","","","","survey-text","3","2.0.0","8927","phbf034g6t6","mus","lion","22","female","yes","yes","4","3 ","3594","","{""participant_id"":""lion""}","","","","","","",""
"","","","","","html-keyboard-response","4","2.0.0","14908","phbf034g6t6","mus","lion","22","female","yes","yes","4","3 ","5979","
    <p> Please use headphones for the duration of the study.</p>
    <p> Within each trial, you will hear a sound and then be presented with an image in the center of your screen.</p>
    <p>Press the <b>'1'</b> key if what you hear <u>matches</u> what you see.</p>
    <p>Press the <b>'0'</b> key if what you hear <u>does not match</u> what you see.</p>
    <p>Try to respond as quickly and accurately as you can.</p>
    <p> Press any key to begin.</p>
    "," ","","","","","","",""
"","","","","","html-keyboard-response","5","2.0.0","16644","phbf034g6t6","mus","lion","22","female","yes","yes","4","3 ","1735","
    <div style=""font-size:28px;"">
      <p>You will now complete 4 short practice trials.</p>
      <p>This is just to help you get familiar with the task.</p>
      <p>Press any key to begin.</p>
    </div>
  "," ","","","","","","",""
"","","","","","html-keyboard-response","6","2.0.0","17146","phbf034g6t6","mus","lion","22","female","yes","yes","4","3 ","null","<div style=""font-size:60px;"">+</div>","null","","","","","","",""
"","","","","","audio-keyboard-response","7","2.0.0","17874","phbf034g6t6","mus","lion","22","female","yes","yes","4","3 ","null","stimuli/sounds/guitar_label_A.wav","null","","","","","","",""
"","","","","","image-keyboard-response","8","2.0.0","19516","phbf034g6t6","mus","lion","22","female","yes","yes","4","3 ","1639","stimuli/pictures/guitar_acoustic_1.jpg","1","1","true","true","","","",""
"","","","","","audio-keyboard-response","9","2.0.0","20319","phbf034g6t6","mus","lion","22","female","yes","yes","4","3 ","null","stimuli/sounds/bleep.wav","null","","","","","","",""
"","","","","","html-keyboard-response","10","2.0.0","21021","phbf034g6t6","mus","lion","22","female","yes","yes","4","3 ","null","<p style='color:green; font-size:30px;'>Correct!</p>","null","","","","","","",""
"","","","","","html-keyboard-response","11","2.0.0","21524","phbf034g6t6","mus","lion","22","female","yes","yes","4","3 ","null","<div style=""font-size:60px;"">+</div>","null","","","","","","",""
"","","","","","audio-keyboard-response","12","2.0.0","22123","phbf034g6t6","mus","lion","22","female","yes","yes","4","3 ","null","stimuli/sounds/guitar_sound_B.wav","null","","","","","","",""
"","","","","","image-keyboard-response","13","2.0.0","28115","phbf034g6t6","mus","lion","22","female","yes","yes","4","3 ","5992","stimuli/pictures/guitar_acoustic_2.jpg","1","1","true","true","","","",""
"","","","","","audio-keyboard-response","14","2.0.0","28916","phbf034g6t6","mus","lion","22","female","yes","yes","4","3 ","null","stimuli/sounds/bleep.wav","null","","","","","","",""
"","","","","","html-keyboard-response","15","2.0.0","29618","phbf034g6t6","mus","lion","22","female","yes","yes","4","3 ","null","<p style='color:green; font-size:30px;'>Correct!</p>","null","","","","","","",""
"","","","","","html-keyboard-response","16","2.0.0","30120","phbf034g6t6","mus","lion","22","female","yes","yes","4","3 ","null","<div style=""font-size:60px;"">+</div>","null","","","","","","",""
"","","","","","audio-keyboard-response","17","2.0.0","30720","phbf034g6t6","mus","lion","22","female","yes","yes","4","3 ","null","stimuli/sounds/flute_sound_A.wav","null","","","","","","",""
"","","","","","image-keyboard-response","18","2.0.0","33931","phbf034g6t6","mus","lion","22","female","yes","yes","4","3 ","3210","stimuli/pictures/guitar_electric_1.jpg","0","0","true","true","","","",""
"","","","","","audio-keyboard-response","19","2.0.0","34733","phbf034g6t6","mus","lion","22","female","yes","yes","4","3 ","null","stimuli/sounds/bleep.wav","null","","","","","","",""
"","","","","","html-keyboard-response","20","2.0.0","35435","phbf034g6t6","mus","lion","22","female","yes","yes","4","3 ","null","<p style='color:green; font-size:30px;'>Correct!</p>","null","","","","","","",""
"","","","","","html-keyboard-response","21","2.0.0","35937","phbf034g6t6","mus","lion","22","female","yes","yes","4","3 ","null","<div style=""font-size:60px;"">+</div>","null","","","","","","",""
"","","","","","audio-keyboard-response","22","2.0.0","36536","phbf034g6t6","mus","lion","22","female","yes","yes","4","3 ","null","stimuli/sounds/guitar_sound_A.wav","null","","","","","","",""
"","","","","","image-keyboard-response","23","2.0.0","37843","phbf034g6t6","mus","lion","22","female","yes","yes","4","3 ","1306","stimuli/pictures/guitar_acoustic_1.jpg","1","1","true","true","","","",""
"","","","","","audio-keyboard-response","24","2.0.0","38645","phbf034g6t6","mus","lion","22","female","yes","yes","4","3 ","null","stimuli/sounds/bleep.wav","null","","","","","","",""
"","","","","","html-keyboard-response","25","2.0.0","39347","phbf034g6t6","mus","lion","22","female","yes","yes","4","3 ","null","<p style='color:green; font-size:30px;'>Correct!</p>","null","","","","","","",""
"","","","","","html-keyboard-response","26","2.0.0","40643","phbf034g6t6","mus","lion","22","female","yes","yes","4","3 ","1295","<p>Practice complete. Press any key to begin the real experiment.</p>"," ","","","","","","",""
"","","","","","html-keyboard-response","27","2.0.0","49914","phbf034g6t6","mus","lion","22","female","yes","yes","4","3 ","9271","<div style=""font-size:30px;"">Press space to start the trial</div>"," ","","","","","","",""
"","","","","","html-keyboard-response","28","2.0.0","50166","phbf034g6t6","mus","lion","22","female","yes","yes","4","3 ","null","<div style=""font-size:60px;"">+</div>","null","","","","","","",""
"","","","","","audio-keyboard-response","29","2.0.0","50769","phbf034g6t6","mus","lion","22","female","yes","yes","4","3 ","null","stimuli/sounds/bird_label_B.wav","null","","","","","","",""
"","","","","","html-keyboard-response","30","2.0.0","51772","phbf034g6t6","mus","lion","22","female","yes","yes","4","3 ","null","","null","","","","","","",""
"","","","","","image-keyboard-response","31","2.0.0","52626","phbf034g6t6","mus","lion","22","female","yes","yes","4","3 ","854","stimuli/pictures/bird_hawk_1.jpg","1","1","","true","yes","sound","stimuli/sounds/bird_label_B.wav",""
"","","","","","audio-keyboard-response","32","2.0.0","53629","phbf034g6t6","mus","lion","22","female","yes","yes","4","3 ","null","stimuli/sounds/bleep.wav","null","","","","","","",""
"","","","","","html-keyboard-response","33","2.0.0","56441","phbf034g6t6","mus","lion","22","female","yes","yes","4","3 ","2712","<div style=""font-size:30px;"">Press space to start the trial</div>"," ","","","","","","",""
"","","","","","html-keyboard-response","34","2.0.0","56694","phbf034g6t6","mus","lion","22","female","yes","yes","4","3 ","null","<div style=""font-size:60px;"">+</div>","null","","","","","","",""
"","","","","","audio-keyboard-response","35","2.0.0","57294","phbf034g6t6","mus","lion","22","female","yes","yes","4","3 ","null","stimuli/sounds/bird_label_B.wav","null","","","","","","",""
"","","","","","html-keyboard-response","36","2.0.0","58296","phbf034g6t6","mus","lion","22","female","yes","yes","4","3 ","null","","null","","","","","","",""
"","","","","","image-keyboard-response","37","2.0.0","59625","phbf034g6t6","mus","lion","22","female","yes","yes","4","3 ","1329","stimuli/pictures/phone_rotary_2.jpg","0","0","","true","no","sound","stimuli/sounds/bird_label_B.wav",""
"","","","","","audio-keyboard-response","38","2.0.0","60627","phbf034g6t6","mus","lion","22","female","yes","yes","4","3 ","null","stimuli/sounds/bleep.wav","null","","","","","","",""
"","","","","","html-keyboard-response","39","2.0.0","62361","phbf034g6t6","mus","lion","22","female","yes","yes","4","3 ","1632","<div style=""font-size:30px;"">Press space to start the trial</div>"," ","","","","","","",""
"","","","","","html-keyboard-response","40","2.0.0","62613","phbf034g6t6","mus","lion","22","female","yes","yes","4","3 ","null","<div style=""font-size:60px;"">+</div>","null","","","","","","",""
"","","","","","audio-keyboard-response","41","2.0.0","63220","phbf034g6t6","mus","lion","22","female","yes","yes","4","3 ","null","stimuli/sounds/flute_sound_B.wav","null","","","","","","",""
"","","","","","html-keyboard-response","42","2.0.0","64222","phbf034g6t6","mus","lion","22","female","yes","yes","4","3 ","null","","null","","","","","","",""
"","","","","","image-keyboard-response","43","2.0.0","65554","phbf034g6t6","mus","lion","22","female","yes","yes","4","3 ","1331","stimuli/pictures/bird_song_1.jpg","0","0","","true","no","sound","stimuli/sounds/flute_sound_B.wav",""
"","","","","","audio-keyboard-response","44","2.0.0","66556","phbf034g6t6","mus","lion","22","female","yes","yes","4","3 ","null","stimuli/sounds/bleep.wav","null","","","","","","",""
"","","","","","html-keyboard-response","45","2.0.0","68681","phbf034g6t6","mus","lion","22","female","yes","yes","4","3 ","2023","<div style=""font-size:30px;"">Press space to start the trial</div>"," ","","","","","","",""
"","","","","","html-keyboard-response","46","2.0.0","68932","phbf034g6t6","mus","lion","22","female","yes","yes","4","3 ","null","<div style=""font-size:60px;"">+</div>","null","","","","","","",""
"","","","","","audio-keyboard-response","47","2.0.0","69542","phbf034g6t6","mus","lion","22","female","yes","yes","4","3 ","null","stimuli/sounds/piano_sound_A.wav","null","","","","","","",""
"","","","","","html-keyboard-response","48","2.0.0","70544","phbf034g6t6","mus","lion","22","female","yes","yes","4","3 ","null","","null","","","","","","",""
"","","","","","image-keyboard-response","49","2.0.0","71689","phbf034g6t6","mus","lion","22","female","yes","yes","4","3 ","1144","stimuli/pictures/piano_electric_1.jpg","1","1","","true","no","sound","stimuli/sounds/piano_sound_A.wav",""
"","","","","","audio-keyboard-response","50","2.0.0","72691","phbf034g6t6","mus","lion","22","female","yes","yes","4","3 ","null","stimuli/sounds/bleep.wav","null","","","","","","",""
"","","","","","html-keyboard-response","51","2.0.0","74369","phbf034g6t6","mus","lion","22","female","yes","yes","4","3 ","1577","<div style=""font-size:30px;"">Press space to start the trial</div>"," ","","","","","","",""
"","","","","","html-keyboard-response","52","2.0.0","74621","phbf034g6t6","mus","lion","22","female","yes","yes","4","3 ","null","<div style=""font-size:60px;"">+</div>","null","","","","","","",""
"","","","","","audio-keyboard-response","53","2.0.0","75225","phbf034g6t6","mus","lion","22","female","yes","yes","4","3 ","null","stimuli/sounds/flute_label_A.wav","null","","","","","","",""
"","","","","","html-keyboard-response","54","2.0.0","76227","phbf034g6t6","mus","lion","22","female","yes","yes","4","3 ","null","","null","","","","","","",""
"","","","","","image-keyboard-response","55","2.0.0","76865","phbf034g6t6","mus","lion","22","female","yes","yes","4","3 ","637","stimuli/pictures/flute_metal_1.jpg","1","1","","true","yes","sound","stimuli/sounds/flute_label_A.wav",""
"","","","","","audio-keyboard-response","56","2.0.0","77867","phbf034g6t6","mus","lion","22","female","yes","yes","4","3 ","null","stimuli/sounds/bleep.wav","null","","","","","","",""
"","","","","","html-keyboard-response","57","2.0.0","79767","phbf034g6t6","mus","lion","22","female","yes","yes","4","3 ","1798","<div style=""font-size:30px;"">Press space to start the trial</div>"," ","","","","","","",""
"","","","","","html-keyboard-response","58","2.0.0","80019","phbf034g6t6","mus","lion","22","female","yes","yes","4","3 ","null","<div style=""font-size:60px;"">+</div>","null","","","","","","",""
"","","","","","audio-keyboard-response","59","2.0.0","80623","phbf034g6t6","mus","lion","22","female","yes","yes","4","3 ","null","stimuli/sounds/phone_sound_B.wav","null","","","","","","",""
"","","","","","html-keyboard-response","60","2.0.0","81625","phbf034g6t6","mus","lion","22","female","yes","yes","4","3 ","null","","null","","","","","","",""
"","","","","","image-keyboard-response","61","2.0.0","82545","phbf034g6t6","mus","lion","22","female","yes","yes","4","3 ","919","stimuli/pictures/piano_grand_2.jpg","0","0","","true","no","sound","stimuli/sounds/phone_sound_B.wav",""
"","","","","","audio-keyboard-response","62","2.0.0","83547","phbf034g6t6","mus","lion","22","female","yes","yes","4","3 ","null","stimuli/sounds/bleep.wav","null","","","","","","",""
"","","","","","html-keyboard-response","63","2.0.0","84913","phbf034g6t6","mus","lion","22","female","yes","yes","4","3 ","1263","<div style=""font-size:30px;"">Press space to start the trial</div>"," ","","","","","","",""
"","","","","","html-keyboard-response","64","2.0.0","85164","phbf034g6t6","mus","lion","22","female","yes","yes","4","3 ","null","<div style=""font-size:60px;"">+</div>","null","","","","","","",""
"","","","","","audio-keyboard-response","65","2.0.0","85766","phbf034g6t6","mus","lion","22","female","yes","yes","4","3 ","null","stimuli/sounds/drum_sound_A.wav","null","","","","","","",""
"","","","","","html-keyboard-response","66","2.0.0","86768","phbf034g6t6","mus","lion","22","female","yes","yes","4","3 ","null","","null","","","","","","",""
"","","","","","image-keyboard-response","67","2.0.0","87505","phbf034g6t6","mus","lion","22","female","yes","yes","4","3 ","736","stimuli/pictures/flute_metal_1.jpg","0","0","","true","no","sound","stimuli/sounds/drum_sound_A.wav",""
"","","","","","audio-keyboard-response","68","2.0.0","88508","phbf034g6t6","mus","lion","22","female","yes","yes","4","3 ","null","stimuli/sounds/bleep.wav","null","","","","","","",""
"","","","","","html-keyboard-response","69","2.0.0","90360","phbf034g6t6","mus","lion","22","female","yes","yes","4","3 ","1751","<div style=""font-size:30px;"">Press space to start the trial</div>"," ","","","","","","",""
"","","","","","html-keyboard-response","70","2.0.0","90612","phbf034g6t6","mus","lion","22","female","yes","yes","4","3 ","null","<div style=""font-size:60px;"">+</div>","null","","","","","","",""
"","","","","","audio-keyboard-response","71","2.0.0","91222","phbf034g6t6","mus","lion","22","female","yes","yes","4","3 ","null","stimuli/sounds/piano_sound_A.wav","null","","","","","","",""
"","","","","","html-keyboard-response","72","2.0.0","92224","phbf034g6t6","mus","lion","22","female","yes","yes","4","3 ","null","","null","","","","","","",""
"","","","","","image-keyboard-response","73","2.0.0","92974","phbf034g6t6","mus","lion","22","female","yes","yes","4","3 ","750","stimuli/pictures/piano_grand_1.jpg","1","1","","true","yes","sound","stimuli/sounds/piano_sound_A.wav",""
"","","","","","audio-keyboard-response","74","2.0.0","93976","phbf034g6t6","mus","lion","22","female","yes","yes","4","3 ","null","stimuli/sounds/bleep.wav","null","","","","","","",""
"","","","","","html-keyboard-response","75","2.0.0","94880","phbf034g6t6","mus","lion","22","female","yes","yes","4","3 ","802","<div style=""font-size:30px;"">Press space to start the trial</div>"," ","","","","","","",""
"","","","","","html-keyboard-response","76","2.0.0","95131","phbf034g6t6","mus","lion","22","female","yes","yes","4","3 ","null","<div style=""font-size:60px;"">+</div>","null","","","","","","",""
"","","","","","audio-keyboard-response","77","2.0.0","95733","phbf034g6t6","mus","lion","22","female","yes","yes","4","3 ","null","stimuli/sounds/drum_label_A.wav","null","","","","","","",""
"","","","","","html-keyboard-response","78","2.0.0","96735","phbf034g6t6","mus","lion","22","female","yes","yes","4","3 ","null","","null","","","","","","",""
"","","","","","image-keyboard-response","79","2.0.0","97648","phbf034g6t6","mus","lion","22","female","yes","yes","4","3 ","913","stimuli/pictures/drum_bongo_2.jpg","1","1","","true","yes","sound","stimuli/sounds/drum_label_A.wav",""
"","","","","","audio-keyboard-response","80","2.0.0","98650","phbf034g6t6","mus","lion","22","female","yes","yes","4","3 ","null","stimuli/sounds/bleep.wav","null","","","","","","",""
"","","","","","html-keyboard-response","81","2.0.0","99712","phbf034g6t6","mus","lion","22","female","yes","yes","4","3 ","959","<div style=""font-size:30px;"">Press space to start the trial</div>"," ","","","","","","",""
"","","","","","html-keyboard-response","82","2.0.0","99964","phbf034g6t6","mus","lion","22","female","yes","yes","4","3 ","null","<div style=""font-size:60px;"">+</div>","null","","","","","","",""
"","","","","","audio-keyboard-response","83","2.0.0","100568","phbf034g6t6","mus","lion","22","female","yes","yes","4","3 ","null","stimuli/sounds/flute_label_A.wav","null","","","","","","",""
"","","","","","html-keyboard-response","84","2.0.0","101570","phbf034g6t6","mus","lion","22","female","yes","yes","4","3 ","null","","null","","","","","","",""
"","","","","","image-keyboard-response","85","2.0.0","102527","phbf034g6t6","mus","lion","22","female","yes","yes","4","3 ","956","stimuli/pictures/flute_wooden_2.jpg","1","1","","true","yes","sound","stimuli/sounds/flute_label_A.wav",""
"","","","","","audio-keyboard-response","86","2.0.0","103528","phbf034g6t6","mus","lion","22","female","yes","yes","4","3 ","null","stimuli/sounds/bleep.wav","null","","","","","","",""
"","","","","","html-keyboard-response","87","2.0.0","104592","phbf034g6t6","mus","lion","22","female","yes","yes","4","3 ","961","<div style=""font-size:30px;"">Press space to start the trial</div>"," ","","","","","","",""
"","","","","","html-keyboard-response","88","2.0.0","104843","phbf034g6t6","mus","lion","22","female","yes","yes","4","3 ","null","<div style=""font-size:60px;"">+</div>","null","","","","","","",""
"","","","","","audio-keyboard-response","89","2.0.0","105450","phbf034g6t6","mus","lion","22","female","yes","yes","4","3 ","null","stimuli/sounds/flute_label_B.wav","null","","","","","","",""
"","","","","","html-keyboard-response","90","2.0.0","106452","phbf034g6t6","mus","lion","22","female","yes","yes","4","3 ","null","","null","","","","","","",""
"","","","","","image-keyboard-response","91","2.0.0","107295","phbf034g6t6","mus","lion","22","female","yes","yes","4","3 ","843","stimuli/pictures/drum_bongo_1.jpg","0","0","","true","no","sound","stimuli/sounds/flute_label_B.wav",""
"","","","","","audio-keyboard-response","92","2.0.0","108298","phbf034g6t6","mus","lion","22","female","yes","yes","4","3 ","null","stimuli/sounds/bleep.wav","null","","","","","","",""
"","","","","","html-keyboard-response","93","2.0.0","109607","phbf034g6t6","mus","lion","22","female","yes","yes","4","3 ","1208","<div style=""font-size:30px;"">Press space to start the trial</div>"," ","","","","","","",""
"","","","","","html-keyboard-response","94","2.0.0","109859","phbf034g6t6","mus","lion","22","female","yes","yes","4","3 ","null","<div style=""font-size:60px;"">+</div>","null","","","","","","",""
"","","","","","audio-keyboard-response","95","2.0.0","110465","phbf034g6t6","mus","lion","22","female","yes","yes","4","3 ","null","stimuli/sounds/piano_sound_A.wav","null","","","","","","",""
"","","","","","html-keyboard-response","96","2.0.0","111468","phbf034g6t6","mus","lion","22","female","yes","yes","4","3 ","null","","null","","","","","","",""
"","","","","","image-keyboard-response","97","2.0.0","112607","phbf034g6t6","mus","lion","22","female","yes","yes","4","3 ","1139","stimuli/pictures/drum_bongo_2.jpg","0","0","","true","no","sound","stimuli/sounds/piano_sound_A.wav",""
"","","","","","audio-keyboard-response","98","2.0.0","113610","phbf034g6t6","mus","lion","22","female","yes","yes","4","3 ","null","stimuli/sounds/bleep.wav","null","","","","","","",""
"","","","","","html-keyboard-response","99","2.0.0","117023","phbf034g6t6","mus","lion","22","female","yes","yes","4","3 ","3312","<div style=""font-size:30px;"">Press space to start the trial</div>"," ","","","","","","",""
"","","","","","html-keyboard-response","100","2.0.0","117274","phbf034g6t6","mus","lion","22","female","yes","yes","4","3 ","null","<div style=""font-size:60px;"">+</div>","null","","","","","","",""
"","","","","","audio-keyboard-response","101","2.0.0","117884","phbf034g6t6","mus","lion","22","female","yes","yes","4","3 ","null","stimuli/sounds/flute_sound_B.wav","null","","","","","","",""
"","","","","","html-keyboard-response","102","2.0.0","118886","phbf034g6t6","mus","lion","22","female","yes","yes","4","3 ","null","","null","","","","","","",""
"","","","","","image-keyboard-response","103","2.0.0","119999","phbf034g6t6","mus","lion","22","female","yes","yes","4","3 ","1112","stimuli/pictures/flute_metal_2.jpg","1","1","","true","no","sound","stimuli/sounds/flute_sound_B.wav",""
"","","","","","audio-keyboard-response","104","2.0.0","121000","phbf034g6t6","mus","lion","22","female","yes","yes","4","3 ","null","stimuli/sounds/bleep.wav","null","","","","","","",""
"","","","","","html-keyboard-response","105","2.0.0","122311","phbf034g6t6","mus","lion","22","female","yes","yes","4","3 ","1208","<div style=""font-size:30px;"">Press space to start the trial</div>"," ","","","","","","",""
"","","","","","html-keyboard-response","106","2.0.0","122562","phbf034g6t6","mus","lion","22","female","yes","yes","4","3 ","null","<div style=""font-size:60px;"">+</div>","null","","","","","","",""
"","","","","","audio-keyboard-response","107","2.0.0","123166","phbf034g6t6","mus","lion","22","female","yes","yes","4","3 ","null","stimuli/sounds/flute_sound_A.wav","null","","","","","","",""
"","","","","","html-keyboard-response","108","2.0.0","124168","phbf034g6t6","mus","lion","22","female","yes","yes","4","3 ","null","","null","","","","","","",""
"","","","","","image-keyboard-response","109","2.0.0","125391","phbf034g6t6","mus","lion","22","female","yes","yes","4","3 ","1222","stimuli/pictures/flute_metal_2.jpg","1","1","","true","yes","sound","stimuli/sounds/flute_sound_A.wav",""
"","","","","","audio-keyboard-response","110","2.0.0","126393","phbf034g6t6","mus","lion","22","female","yes","yes","4","3 ","null","stimuli/sounds/bleep.wav","null","","","","","","",""
"","","","","","html-keyboard-response","111","2.0.0","127119","phbf034g6t6","mus","lion","22","female","yes","yes","4","3 ","623","<div style=""font-size:30px;"">Press space to start the trial</div>"," ","","","","","","",""
"","","","","","html-keyboard-response","112","2.0.0","127371","phbf034g6t6","mus","lion","22","female","yes","yes","4","3 ","null","<div style=""font-size:60px;"">+</div>","null","","","","","","",""
"","","","","","audio-keyboard-response","113","2.0.0","127972","phbf034g6t6","mus","lion","22","female","yes","yes","4","3 ","null","stimuli/sounds/bird_label_A.wav","null","","","","","","",""
"","","","","","html-keyboard-response","114","2.0.0","128974","phbf034g6t6","mus","lion","22","female","yes","yes","4","3 ","null","","null","","","","","","",""
"","","","","","image-keyboard-response","115","2.0.0","129671","phbf034g6t6","mus","lion","22","female","yes","yes","4","3 ","696","stimuli/pictures/bird_song_1.jpg","1","1","","true","yes","sound","stimuli/sounds/bird_label_A.wav",""
"","","","","","audio-keyboard-response","116","2.0.0","130673","phbf034g6t6","mus","lion","22","female","yes","yes","4","3 ","null","stimuli/sounds/bleep.wav","null","","","","","","",""
"","","","","","html-keyboard-response","117","2.0.0","132158","phbf034g6t6","mus","lion","22","female","yes","yes","4","3 ","1384","<div style=""font-size:30px;"">Press space to start the trial</div>"," ","","","","","","",""
"","","","","","html-keyboard-response","118","2.0.0","132409","phbf034g6t6","mus","lion","22","female","yes","yes","4","3 ","null","<div style=""font-size:60px;"">+</div>","null","","","","","","",""
"","","","","","audio-keyboard-response","119","2.0.0","133034","phbf034g6t6","mus","lion","22","female","yes","yes","4","3 ","null","stimuli/sounds/piano_label_A.wav","null","","","","","","",""
"","","","","","html-keyboard-response","120","2.0.0","134036","phbf034g6t6","mus","lion","22","female","yes","yes","4","3 ","null","","null","","","","","","",""
"","","","","","image-keyboard-response","121","2.0.0","135462","phbf034g6t6","mus","lion","22","female","yes","yes","4","3 ","1426","stimuli/pictures/phone_cell_2.jpg","0","0","","true","no","sound","stimuli/sounds/piano_label_A.wav",""
"","","","","","audio-keyboard-response","122","2.0.0","136464","phbf034g6t6","mus","lion","22","female","yes","yes","4","3 ","null","stimuli/sounds/bleep.wav","null","","","","","","",""
"","","","","","html-keyboard-response","123","2.0.0","137494","phbf034g6t6","mus","lion","22","female","yes","yes","4","3 ","928","<div style=""font-size:30px;"">Press space to start the trial</div>"," ","","","","","","",""
"","","","","","html-keyboard-response","124","2.0.0","137745","phbf034g6t6","mus","lion","22","female","yes","yes","4","3 ","null","<div style=""font-size:60px;"">+</div>","null","","","","","","",""
"","","","","","audio-keyboard-response","125","2.0.0","138345","phbf034g6t6","mus","lion","22","female","yes","yes","4","3 ","null","stimuli/sounds/phone_label_B.wav","null","","","","","","",""
"","","","","","html-keyboard-response","126","2.0.0","139346","phbf034g6t6","mus","lion","22","female","yes","yes","4","3 ","null","","null","","","","","","",""
"","","","","","image-keyboard-response","127","2.0.0","140302","phbf034g6t6","mus","lion","22","female","yes","yes","4","3 ","955","stimuli/pictures/flute_wooden_1.jpg","0","0","","true","no","sound","stimuli/sounds/phone_label_B.wav",""
"","","","","","audio-keyboard-response","128","2.0.0","141305","phbf034g6t6","mus","lion","22","female","yes","yes","4","3 ","null","stimuli/sounds/bleep.wav","null","","","","","","",""
"","","","","","html-keyboard-response","129","2.0.0","142030","phbf034g6t6","mus","lion","22","female","yes","yes","4","3 ","623","<div style=""font-size:30px;"">Press space to start the trial</div>"," ","","","","","","",""
"","","","","","html-keyboard-response","130","2.0.0","142282","phbf034g6t6","mus","lion","22","female","yes","yes","4","3 ","null","<div style=""font-size:60px;"">+</div>","null","","","","","","",""
"","","","","","audio-keyboard-response","131","2.0.0","142884","phbf034g6t6","mus","lion","22","female","yes","yes","4","3 ","null","stimuli/sounds/bird_label_B.wav","null","","","","","","",""
"","","","","","html-keyboard-response","132","2.0.0","143886","phbf034g6t6","mus","lion","22","female","yes","yes","4","3 ","null","","null","","","","","","",""
"","","","","","image-keyboard-response","133","2.0.0","144854","phbf034g6t6","mus","lion","22","female","yes","yes","4","3 ","967","stimuli/pictures/bird_song_1.jpg","1","1","","true","yes","sound","stimuli/sounds/bird_label_B.wav",""
"","","","","","audio-keyboard-response","134","2.0.0","145856","phbf034g6t6","mus","lion","22","female","yes","yes","4","3 ","null","stimuli/sounds/bleep.wav","null","","","","","","",""
"","","","","","html-keyboard-response","135","2.0.0","146797","phbf034g6t6","mus","lion","22","female","yes","yes","4","3 ","839","<div style=""font-size:30px;"">Press space to start the trial</div>"," ","","","","","","",""
"","","","","","html-keyboard-response","136","2.0.0","147048","phbf034g6t6","mus","lion","22","female","yes","yes","4","3 ","null","<div style=""font-size:60px;"">+</div>","null","","","","","","",""
"","","","","","audio-keyboard-response","137","2.0.0","147650","phbf034g6t6","mus","lion","22","female","yes","yes","4","3 ","null","stimuli/sounds/bird_label_A.wav","null","","","","","","",""
"","","","","","html-keyboard-response","138","2.0.0","148653","phbf034g6t6","mus","lion","22","female","yes","yes","4","3 ","null","","null","","","","","","",""
"","","","","","image-keyboard-response","139","2.0.0","149134","phbf034g6t6","mus","lion","22","female","yes","yes","4","3 ","480","stimuli/pictures/flute_wooden_2.jpg","0","0","","true","no","sound","stimuli/sounds/bird_label_A.wav",""
"","","","","","audio-keyboard-response","140","2.0.0","150136","phbf034g6t6","mus","lion","22","female","yes","yes","4","3 ","null","stimuli/sounds/bleep.wav","null","","","","","","",""
"","","","","","html-keyboard-response","141","2.0.0","150669","phbf034g6t6","mus","lion","22","female","yes","yes","4","3 ","432","<div style=""font-size:30px;"">Press space to start the trial</div>"," ","","","","","","",""
"","","","","","html-keyboard-response","142","2.0.0","150921","phbf034g6t6","mus","lion","22","female","yes","yes","4","3 ","null","<div style=""font-size:60px;"">+</div>","null","","","","","","",""
"","","","","","audio-keyboard-response","143","2.0.0","151522","phbf034g6t6","mus","lion","22","female","yes","yes","4","3 ","null","stimuli/sounds/drum_label_B.wav","null","","","","","","",""
"","","","","","html-keyboard-response","144","2.0.0","152524","phbf034g6t6","mus","lion","22","female","yes","yes","4","3 ","null","","null","","","","","","",""
"","","","","","image-keyboard-response","145","2.0.0","153270","phbf034g6t6","mus","lion","22","female","yes","yes","4","3 ","744","stimuli/pictures/drum_bongo_1.jpg","1","1","","true","yes","sound","stimuli/sounds/drum_label_B.wav",""
"","","","","","audio-keyboard-response","146","2.0.0","154272","phbf034g6t6","mus","lion","22","female","yes","yes","4","3 ","null","stimuli/sounds/bleep.wav","null","","","","","","",""
"","","","","","html-keyboard-response","147","2.0.0","157477","phbf034g6t6","mus","lion","22","female","yes","yes","4","3 ","3104","<p>You have completed a block. Press R when you are ready to continue</p>","r","","","","","","",""
"","","","","","html-keyboard-response","148","2.0.0","159221","phbf034g6t6","mus","lion","22","female","yes","yes","4","3 ","1744","<div style=""font-size:30px;"">Press space to start the trial</div>"," ","","","","","","",""
"","","","","","html-keyboard-response","149","2.0.0","159473","phbf034g6t6","mus","lion","22","female","yes","yes","4","3 ","null","<div style=""font-size:60px;"">+</div>","null","","","","","","",""
"","","","","","audio-keyboard-response","150","2.0.0","160072","phbf034g6t6","mus","lion","22","female","yes","yes","4","3 ","null","stimuli/sounds/phone_label_B.wav","null","","","","","","",""
"","","","","","html-keyboard-response","151","2.0.0","161074","phbf034g6t6","mus","lion","22","female","yes","yes","4","3 ","null","","null","","","","","","",""
"","","","","","image-keyboard-response","152","2.0.0","162029","phbf034g6t6","mus","lion","22","female","yes","yes","4","3 ","954","stimuli/pictures/phone_cell_2.jpg","1","1","","true","yes","sound","stimuli/sounds/phone_label_B.wav",""
"","","","","","audio-keyboard-response","153","2.0.0","163031","phbf034g6t6","mus","lion","22","female","yes","yes","4","3 ","null","stimuli/sounds/bleep.wav","null","","","","","","",""
"","","","","","html-keyboard-response","154","2.0.0","163893","phbf034g6t6","mus","lion","22","female","yes","yes","4","3 ","760","<div style=""font-size:30px;"">Press space to start the trial</div>"," ","","","","","","",""
"","","","","","html-keyboard-response","155","2.0.0","164144","phbf034g6t6","mus","lion","22","female","yes","yes","4","3 ","null","<div style=""font-size:60px;"">+</div>","null","","","","","","",""
"","","","","","audio-keyboard-response","156","2.0.0","164745","phbf034g6t6","mus","lion","22","female","yes","yes","4","3 ","null","stimuli/sounds/bird_sound_A.wav","null","","","","","","",""
"","","","","","html-keyboard-response","157","2.0.0","165748","phbf034g6t6","mus","lion","22","female","yes","yes","4","3 ","null","","null","","","","","","",""
"","","","","","image-keyboard-response","158","2.0.0","166469","phbf034g6t6","mus","lion","22","female","yes","yes","4","3 ","720","stimuli/pictures/piano_electric_1.jpg","0","0","","true","no","sound","stimuli/sounds/bird_sound_A.wav",""
"","","","","","audio-keyboard-response","159","2.0.0","167471","phbf034g6t6","mus","lion","22","female","yes","yes","4","3 ","null","stimuli/sounds/bleep.wav","null","","","","","","",""
"","","","","","html-keyboard-response","160","2.0.0","168317","phbf034g6t6","mus","lion","22","female","yes","yes","4","3 ","744","<div style=""font-size:30px;"">Press space to start the trial</div>"," ","","","","","","",""
"","","","","","html-keyboard-response","161","2.0.0","168569","phbf034g6t6","mus","lion","22","female","yes","yes","4","3 ","null","<div style=""font-size:60px;"">+</div>","null","","","","","","",""
"","","","","","audio-keyboard-response","162","2.0.0","169168","phbf034g6t6","mus","lion","22","female","yes","yes","4","3 ","null","stimuli/sounds/drum_sound_B.wav","null","","","","","","",""
"","","","","","html-keyboard-response","163","2.0.0","170169","phbf034g6t6","mus","lion","22","female","yes","yes","4","3 ","null","","null","","","","","","",""
"","","","","","image-keyboard-response","164","2.0.0","171012","phbf034g6t6","mus","lion","22","female","yes","yes","4","3 ","842","stimuli/pictures/phone_rotary_2.jpg","0","0","","true","no","sound","stimuli/sounds/drum_sound_B.wav",""
"","","","","","audio-keyboard-response","165","2.0.0","172014","phbf034g6t6","mus","lion","22","female","yes","yes","4","3 ","null","stimuli/sounds/bleep.wav","null","","","","","","",""
"","","","","","html-keyboard-response","166","2.0.0","172764","phbf034g6t6","mus","lion","22","female","yes","yes","4","3 ","649","<div style=""font-size:30px;"">Press space to start the trial</div>"," ","","","","","","",""
"","","","","","html-keyboard-response","167","2.0.0","173017","phbf034g6t6","mus","lion","22","female","yes","yes","4","3 ","null","<div style=""font-size:60px;"">+</div>","null","","","","","","",""
"","","","","","audio-keyboard-response","168","2.0.0","173620","phbf034g6t6","mus","lion","22","female","yes","yes","4","3 ","null","stimuli/sounds/piano_label_B.wav","null","","","","","","",""
"","","","","","html-keyboard-response","169","2.0.0","174622","phbf034g6t6","mus","lion","22","female","yes","yes","4","3 ","null","","null","","","","","","",""
"","","","","","image-keyboard-response","170","2.0.0","175477","phbf034g6t6","mus","lion","22","female","yes","yes","4","3 ","853","stimuli/pictures/bird_song_2.jpg","0","0","","true","no","sound","stimuli/sounds/piano_label_B.wav",""
"","","","","","audio-keyboard-response","171","2.0.0","176479","phbf034g6t6","mus","lion","22","female","yes","yes","4","3 ","null","stimuli/sounds/bleep.wav","null","","","","","","",""
"","","","","","html-keyboard-response","172","2.0.0","177388","phbf034g6t6","mus","lion","22","female","yes","yes","4","3 ","808","<div style=""font-size:30px;"">Press space to start the trial</div>"," ","","","","","","",""
"","","","","","html-keyboard-response","173","2.0.0","177639","phbf034g6t6","mus","lion","22","female","yes","yes","4","3 ","null","<div style=""font-size:60px;"">+</div>","null","","","","","","",""
"","","","","","audio-keyboard-response","174","2.0.0","178241","phbf034g6t6","mus","lion","22","female","yes","yes","4","3 ","null","stimuli/sounds/phone_label_B.wav","null","","","","","","",""
"","","","","","html-keyboard-response","175","2.0.0","179243","phbf034g6t6","mus","lion","22","female","yes","yes","4","3 ","null","","null","","","","","","",""
"","","","","","image-keyboard-response","176","2.0.0","179957","phbf034g6t6","mus","lion","22","female","yes","yes","4","3 ","713","stimuli/pictures/flute_metal_1.jpg","0","0","","true","no","sound","stimuli/sounds/phone_label_B.wav",""
"","","","","","audio-keyboard-response","177","2.0.0","180959","phbf034g6t6","mus","lion","22","female","yes","yes","4","3 ","null","stimuli/sounds/bleep.wav","null","","","","","","",""
"","","","","","html-keyboard-response","178","2.0.0","181660","phbf034g6t6","mus","lion","22","female","yes","yes","4","3 ","599","<div style=""font-size:30px;"">Press space to start the trial</div>"," ","","","","","","",""
"","","","","","html-keyboard-response","179","2.0.0","181913","phbf034g6t6","mus","lion","22","female","yes","yes","4","3 ","null","<div style=""font-size:60px;"">+</div>","null","","","","","","",""
"","","","","","audio-keyboard-response","180","2.0.0","182513","phbf034g6t6","mus","lion","22","female","yes","yes","4","3 ","null","stimuli/sounds/phone_sound_B.wav","null","","","","","","",""
"","","","","","html-keyboard-response","181","2.0.0","183515","phbf034g6t6","mus","lion","22","female","yes","yes","4","3 ","null","","null","","","","","","",""
"","","","","","image-keyboard-response","182","2.0.0","184044","phbf034g6t6","mus","lion","22","female","yes","yes","4","3 ","528","stimuli/pictures/phone_cell_1.jpg","1","1","","true","no","sound","stimuli/sounds/phone_sound_B.wav",""
"","","","","","audio-keyboard-response","183","2.0.0","185046","phbf034g6t6","mus","lion","22","female","yes","yes","4","3 ","null","stimuli/sounds/bleep.wav","null","","","","","","",""
"","","","","","html-keyboard-response","184","2.0.0","185836","phbf034g6t6","mus","lion","22","female","yes","yes","4","3 ","688","<div style=""font-size:30px;"">Press space to start the trial</div>"," ","","","","","","",""
"","","","","","html-keyboard-response","185","2.0.0","186087","phbf034g6t6","mus","lion","22","female","yes","yes","4","3 ","null","<div style=""font-size:60px;"">+</div>","null","","","","","","",""
"","","","","","audio-keyboard-response","186","2.0.0","186693","phbf034g6t6","mus","lion","22","female","yes","yes","4","3 ","null","stimuli/sounds/flute_label_B.wav","null","","","","","","",""
"","","","","","html-keyboard-response","187","2.0.0","187695","phbf034g6t6","mus","lion","22","female","yes","yes","4","3 ","null","","null","","","","","","",""
"","","","","","image-keyboard-response","188","2.0.0","188316","phbf034g6t6","mus","lion","22","female","yes","yes","4","3 ","620","stimuli/pictures/drum_kit_2.jpg","0","0","","true","no","sound","stimuli/sounds/flute_label_B.wav",""
"","","","","","audio-keyboard-response","189","2.0.0","189318","phbf034g6t6","mus","lion","22","female","yes","yes","4","3 ","null","stimuli/sounds/bleep.wav","null","","","","","","",""
"","","","","","html-keyboard-response","190","2.0.0","189900","phbf034g6t6","mus","lion","22","female","yes","yes","4","3 ","480","<div style=""font-size:30px;"">Press space to start the trial</div>"," ","","","","","","",""
"","","","","","html-keyboard-response","191","2.0.0","190151","phbf034g6t6","mus","lion","22","female","yes","yes","4","3 ","null","<div style=""font-size:60px;"">+</div>","null","","","","","","",""
"","","","","","audio-keyboard-response","192","2.0.0","190750","phbf034g6t6","mus","lion","22","female","yes","yes","4","3 ","null","stimuli/sounds/flute_sound_A.wav","null","","","","","","",""
"","","","","","html-keyboard-response","193","2.0.0","191752","phbf034g6t6","mus","lion","22","female","yes","yes","4","3 ","null","","null","","","","","","",""
"","","","","","image-keyboard-response","194","2.0.0","192572","phbf034g6t6","mus","lion","22","female","yes","yes","4","3 ","819","stimuli/pictures/phone_rotary_2.jpg","0","0","","true","no","sound","stimuli/sounds/flute_sound_A.wav",""
"","","","","","audio-keyboard-response","195","2.0.0","193574","phbf034g6t6","mus","lion","22","female","yes","yes","4","3 ","null","stimuli/sounds/bleep.wav","null","","","","","","",""
"","","","","","html-keyboard-response","196","2.0.0","194132","phbf034g6t6","mus","lion","22","female","yes","yes","4","3 ","456","<div style=""font-size:30px;"">Press space to start the trial</div>"," ","","","","","","",""
"","","","","","html-keyboard-response","197","2.0.0","194383","phbf034g6t6","mus","lion","22","female","yes","yes","4","3 ","null","<div style=""font-size:60px;"">+</div>","null","","","","","","",""
"","","","","","audio-keyboard-response","198","2.0.0","194982","phbf034g6t6","mus","lion","22","female","yes","yes","4","3 ","null","stimuli/sounds/drum_label_B.wav","null","","","","","","",""
"","","","","","html-keyboard-response","199","2.0.0","195984","phbf034g6t6","mus","lion","22","female","yes","yes","4","3 ","null","","null","","","","","","",""
"","","","","","image-keyboard-response","200","2.0.0","196507","phbf034g6t6","mus","lion","22","female","yes","yes","4","3 ","522","stimuli/pictures/drum_bongo_2.jpg","1","1","","true","yes","sound","stimuli/sounds/drum_label_B.wav",""
"","","","","","audio-keyboard-response","201","2.0.0","197510","phbf034g6t6","mus","lion","22","female","yes","yes","4","3 ","null","stimuli/sounds/bleep.wav","null","","","","","","",""
"","","","","","html-keyboard-response","202","2.0.0","198275","phbf034g6t6","mus","lion","22","female","yes","yes","4","3 ","664","<div style=""font-size:30px;"">Press space to start the trial</div>"," ","","","","","","",""
"","","","","","html-keyboard-response","203","2.0.0","198527","phbf034g6t6","mus","lion","22","female","yes","yes","4","3 ","null","<div style=""font-size:60px;"">+</div>","null","","","","","","",""
"","","","","","audio-keyboard-response","204","2.0.0","199132","phbf034g6t6","mus","lion","22","female","yes","yes","4","3 ","null","stimuli/sounds/flute_sound_B.wav","null","","","","","","",""
"","","","","","html-keyboard-response","205","2.0.0","200134","phbf034g6t6","mus","lion","22","female","yes","yes","4","3 ","null","","null","","","","","","",""
"","","","","","image-keyboard-response","206","2.0.0","200747","phbf034g6t6","mus","lion","22","female","yes","yes","4","3 ","613","stimuli/pictures/bird_hawk_1.jpg","0","0","","true","no","sound","stimuli/sounds/flute_sound_B.wav",""
"","","","","","audio-keyboard-response","207","2.0.0","201750","phbf034g6t6","mus","lion","22","female","yes","yes","4","3 ","null","stimuli/sounds/bleep.wav","null","","","","","","",""
"","","","","","html-keyboard-response","208","2.0.0","202450","phbf034g6t6","mus","lion","22","female","yes","yes","4","3 ","600","<div style=""font-size:30px;"">Press space to start the trial</div>"," ","","","","","","",""
"","","","","","html-keyboard-response","209","2.0.0","202701","phbf034g6t6","mus","lion","22","female","yes","yes","4","3 ","null","<div style=""font-size:60px;"">+</div>","null","","","","","","",""
"","","","","","audio-keyboard-response","210","2.0.0","203300","phbf034g6t6","mus","lion","22","female","yes","yes","4","3 ","null","stimuli/sounds/phone_label_B.wav","null","","","","","","",""
"","","","","","html-keyboard-response","211","2.0.0","204302","phbf034g6t6","mus","lion","22","female","yes","yes","4","3 ","null","","null","","","","","","",""
"","","","","","image-keyboard-response","212","2.0.0","204851","phbf034g6t6","mus","lion","22","female","yes","yes","4","3 ","548","stimuli/pictures/phone_rotary_1.jpg","1","1","","true","yes","sound","stimuli/sounds/phone_label_B.wav",""
"","","","","","audio-keyboard-response","213","2.0.0","205854","phbf034g6t6","mus","lion","22","female","yes","yes","4","3 ","null","stimuli/sounds/bleep.wav","null","","","","","","",""
"","","","","","html-keyboard-response","214","2.0.0","206403","phbf034g6t6","mus","lion","22","female","yes","yes","4","3 ","448","<div style=""font-size:30px;"">Press space to start the trial</div>"," ","","","","","","",""
"","","","","","html-keyboard-response","215","2.0.0","206655","phbf034g6t6","mus","lion","22","female","yes","yes","4","3 ","null","<div style=""font-size:60px;"">+</div>","null","","","","","","",""
"","","","","","audio-keyboard-response","216","2.0.0","207259","phbf034g6t6","mus","lion","22","female","yes","yes","4","3 ","null","stimuli/sounds/bird_sound_A.wav","null","","","","","","",""
"","","","","","html-keyboard-response","217","2.0.0","208259","phbf034g6t6","mus","lion","22","female","yes","yes","4","3 ","null","","null","","","","","","",""
"","","","","","image-keyboard-response","218","2.0.0","208723","phbf034g6t6","mus","lion","22","female","yes","yes","4","3 ","463","stimuli/pictures/bird_hawk_1.jpg","1","1","","true","yes","sound","stimuli/sounds/bird_sound_A.wav",""
"","","","","","audio-keyboard-response","219","2.0.0","209726","phbf034g6t6","mus","lion","22","female","yes","yes","4","3 ","null","stimuli/sounds/bleep.wav","null","","","","","","",""
"","","","","","html-keyboard-response","220","2.0.0","210707","phbf034g6t6","mus","lion","22","female","yes","yes","4","3 ","880","<div style=""font-size:30px;"">Press space to start the trial</div>"," ","","","","","","",""
"","","","","","html-keyboard-response","221","2.0.0","210958","phbf034g6t6","mus","lion","22","female","yes","yes","4","3 ","null","<div style=""font-size:60px;"">+</div>","null","","","","","","",""
"","","","","","audio-keyboard-response","222","2.0.0","211560","phbf034g6t6","mus","lion","22","female","yes","yes","4","3 ","null","stimuli/sounds/phone_label_B.wav","null","","","","","","",""
"","","","","","html-keyboard-response","223","2.0.0","212562","phbf034g6t6","mus","lion","22","female","yes","yes","4","3 ","null","","null","","","","","","",""
"","","","","","image-keyboard-response","224","2.0.0","213283","phbf034g6t6","mus","lion","22","female","yes","yes","4","3 ","720","stimuli/pictures/flute_metal_2.jpg","0","0","","true","no","sound","stimuli/sounds/phone_label_B.wav",""
"","","","","","audio-keyboard-response","225","2.0.0","214285","phbf034g6t6","mus","lion","22","female","yes","yes","4","3 ","null","stimuli/sounds/bleep.wav","null","","","","","","",""
"","","","","","html-keyboard-response","226","2.0.0","214995","phbf034g6t6","mus","lion","22","female","yes","yes","4","3 ","608","<div style=""font-size:30px;"">Press space to start the trial</div>"," ","","","","","","",""
"","","","","","html-keyboard-response","227","2.0.0","215246","phbf034g6t6","mus","lion","22","female","yes","yes","4","3 ","null","<div style=""font-size:60px;"">+</div>","null","","","","","","",""
"","","","","","audio-keyboard-response","228","2.0.0","215850","phbf034g6t6","mus","lion","22","female","yes","yes","4","3 ","null","stimuli/sounds/drum_label_A.wav","null","","","","","","",""
"","","","","","html-keyboard-response","229","2.0.0","216852","phbf034g6t6","mus","lion","22","female","yes","yes","4","3 ","null","","null","","","","","","",""
"","","","","","image-keyboard-response","230","2.0.0","218050","phbf034g6t6","mus","lion","22","female","yes","yes","4","3 ","1198","stimuli/pictures/drum_kit_2.jpg","1","1","","true","yes","sound","stimuli/sounds/drum_label_A.wav",""
"","","","","","audio-keyboard-response","231","2.0.0","219052","phbf034g6t6","mus","lion","22","female","yes","yes","4","3 ","null","stimuli/sounds/bleep.wav","null","","","","","","",""
"","","","","","html-keyboard-response","232","2.0.0","219650","phbf034g6t6","mus","lion","22","female","yes","yes","4","3 ","496","<div style=""font-size:30px;"">Press space to start the trial</div>"," ","","","","","","",""
"","","","","","html-keyboard-response","233","2.0.0","219903","phbf034g6t6","mus","lion","22","female","yes","yes","4","3 ","null","<div style=""font-size:60px;"">+</div>","null","","","","","","",""
"","","","","","audio-keyboard-response","234","2.0.0","220511","phbf034g6t6","mus","lion","22","female","yes","yes","4","3 ","null","stimuli/sounds/flute_sound_B.wav","null","","","","","","",""
"","","","","","html-keyboard-response","235","2.0.0","221512","phbf034g6t6","mus","lion","22","female","yes","yes","4","3 ","null","","null","","","","","","",""
"","","","","","image-keyboard-response","236","2.0.0","222498","phbf034g6t6","mus","lion","22","female","yes","yes","4","3 ","986","stimuli/pictures/bird_hawk_1.jpg","0","0","","true","no","sound","stimuli/sounds/flute_sound_B.wav",""
"","","","","","audio-keyboard-response","237","2.0.0","223500","phbf034g6t6","mus","lion","22","female","yes","yes","4","3 ","null","stimuli/sounds/bleep.wav","null","","","","","","",""
"","","","","","html-keyboard-response","238","2.0.0","224105","phbf034g6t6","mus","lion","22","female","yes","yes","4","3 ","503","<div style=""font-size:30px;"">Press space to start the trial</div>"," ","","","","","","",""
"","","","","","html-keyboard-response","239","2.0.0","224357","phbf034g6t6","mus","lion","22","female","yes","yes","4","3 ","null","<div style=""font-size:60px;"">+</div>","null","","","","","","",""
"","","","","","audio-keyboard-response","240","2.0.0","224957","phbf034g6t6","mus","lion","22","female","yes","yes","4","3 ","null","stimuli/sounds/flute_label_A.wav","null","","","","","","",""
"","","","","","html-keyboard-response","241","2.0.0","225960","phbf034g6t6","mus","lion","22","female","yes","yes","4","3 ","null","","null","","","","","","",""
"","","","","","image-keyboard-response","242","2.0.0","226594","phbf034g6t6","mus","lion","22","female","yes","yes","4","3 ","634","stimuli/pictures/piano_grand_2.jpg","0","0","","true","no","sound","stimuli/sounds/flute_label_A.wav",""
"","","","","","audio-keyboard-response","243","2.0.0","227596","phbf034g6t6","mus","lion","22","female","yes","yes","4","3 ","null","stimuli/sounds/bleep.wav","null","","","","","","",""
"","","","","","html-keyboard-response","244","2.0.0","228386","phbf034g6t6","mus","lion","22","female","yes","yes","4","3 ","688","<div style=""font-size:30px;"">Press space to start the trial</div>"," ","","","","","","",""
"","","","","","html-keyboard-response","245","2.0.0","228639","phbf034g6t6","mus","lion","22","female","yes","yes","4","3 ","null","<div style=""font-size:60px;"">+</div>","null","","","","","","",""
"","","","","","audio-keyboard-response","246","2.0.0","229241","phbf034g6t6","mus","lion","22","female","yes","yes","4","3 ","null","stimuli/sounds/phone_label_A.wav","null","","","","","","",""
"","","","","","html-keyboard-response","247","2.0.0","230243","phbf034g6t6","mus","lion","22","female","yes","yes","4","3 ","null","","null","","","","","","",""
"","","","","","image-keyboard-response","248","2.0.0","230969","phbf034g6t6","mus","lion","22","female","yes","yes","4","3 ","725","stimuli/pictures/phone_rotary_1.jpg","1","1","","true","yes","sound","stimuli/sounds/phone_label_A.wav",""
"","","","","","audio-keyboard-response","249","2.0.0","231971","phbf034g6t6","mus","lion","22","female","yes","yes","4","3 ","null","stimuli/sounds/bleep.wav","null","","","","","","",""
"","","","","","html-keyboard-response","250","2.0.0","232506","phbf034g6t6","mus","lion","22","female","yes","yes","4","3 ","433","<div style=""font-size:30px;"">Press space to start the trial</div>"," ","","","","","","",""
"","","","","","html-keyboard-response","251","2.0.0","232757","phbf034g6t6","mus","lion","22","female","yes","yes","4","3 ","null","<div style=""font-size:60px;"">+</div>","null","","","","","","",""
"","","","","","audio-keyboard-response","252","2.0.0","233357","phbf034g6t6","mus","lion","22","female","yes","yes","4","3 ","null","stimuli/sounds/bird_label_A.wav","null","","","","","","",""
"","","","","","html-keyboard-response","253","2.0.0","234359","phbf034g6t6","mus","lion","22","female","yes","yes","4","3 ","null","","null","","","","","","",""
"","","","","","image-keyboard-response","254","2.0.0","234978","phbf034g6t6","mus","lion","22","female","yes","yes","4","3 ","618","stimuli/pictures/flute_metal_2.jpg","0","0","","true","no","sound","stimuli/sounds/bird_label_A.wav",""
"","","","","","audio-keyboard-response","255","2.0.0","235980","phbf034g6t6","mus","lion","22","female","yes","yes","4","3 ","null","stimuli/sounds/bleep.wav","null","","","","","","",""
"","","","","","html-keyboard-response","256","2.0.0","236754","phbf034g6t6","mus","lion","22","female","yes","yes","4","3 ","673","<div style=""font-size:30px;"">Press space to start the trial</div>"," ","","","","","","",""
"","","","","","html-keyboard-response","257","2.0.0","237006","phbf034g6t6","mus","lion","22","female","yes","yes","4","3 ","null","<div style=""font-size:60px;"">+</div>","null","","","","","","",""
"","","","","","audio-keyboard-response","258","2.0.0","237606","phbf034g6t6","mus","lion","22","female","yes","yes","4","3 ","null","stimuli/sounds/bird_label_B.wav","null","","","","","","",""
"","","","","","html-keyboard-response","259","2.0.0","238608","phbf034g6t6","mus","lion","22","female","yes","yes","4","3 ","null","","null","","","","","","",""
"","","","","","image-keyboard-response","260","2.0.0","239458","phbf034g6t6","mus","lion","22","female","yes","yes","4","3 ","849","stimuli/pictures/phone_cell_1.jpg","0","0","","true","no","sound","stimuli/sounds/bird_label_B.wav",""
"","","","","","audio-keyboard-response","261","2.0.0","240460","phbf034g6t6","mus","lion","22","female","yes","yes","4","3 ","null","stimuli/sounds/bleep.wav","null","","","","","","",""
"","","","","","html-keyboard-response","262","2.0.0","241201","phbf034g6t6","mus","lion","22","female","yes","yes","4","3 ","639","<div style=""font-size:30px;"">Press space to start the trial</div>"," ","","","","","","",""
"","","","","","html-keyboard-response","263","2.0.0","241453","phbf034g6t6","mus","lion","22","female","yes","yes","4","3 ","null","<div style=""font-size:60px;"">+</div>","null","","","","","","",""
"","","","","","audio-keyboard-response","264","2.0.0","242052","phbf034g6t6","mus","lion","22","female","yes","yes","4","3 ","null","stimuli/sounds/phone_label_A.wav","null","","","","","","",""
"","","","","","html-keyboard-response","265","2.0.0","243055","phbf034g6t6","mus","lion","22","female","yes","yes","4","3 ","null","","null","","","","","","",""
"","","","","","image-keyboard-response","266","2.0.0","243618","phbf034g6t6","mus","lion","22","female","yes","yes","4","3 ","562","stimuli/pictures/drum_kit_1.jpg","0","0","","true","no","sound","stimuli/sounds/phone_label_A.wav",""
"","","","","","audio-keyboard-response","267","2.0.0","244620","phbf034g6t6","mus","lion","22","female","yes","yes","4","3 ","null","stimuli/sounds/bleep.wav","null","","","","","","",""
"","","","","","html-keyboard-response","268","2.0.0","247289","phbf034g6t6","mus","lion","22","female","yes","yes","4","3 ","2567","<p>You have completed a block. Press R when you are ready to continue</p>","r","","","","","","",""
"","","","","","html-keyboard-response","269","2.0.0","249129","phbf034g6t6","mus","lion","22","female","yes","yes","4","3 ","1839","<div style=""font-size:30px;"">Press space to start the trial</div>"," ","","","","","","",""
"","","","","","html-keyboard-response","270","2.0.0","249381","phbf034g6t6","mus","lion","22","female","yes","yes","4","3 ","null","<div style=""font-size:60px;"">+</div>","null","","","","","","",""
"","","","","","audio-keyboard-response","271","2.0.0","249982","phbf034g6t6","mus","lion","22","female","yes","yes","4","3 ","null","stimuli/sounds/phone_label_A.wav","null","","","","","","",""
"","","","","","html-keyboard-response","272","2.0.0","250984","phbf034g6t6","mus","lion","22","female","yes","yes","4","3 ","null","","null","","","","","","",""
"","","","","","image-keyboard-response","273","2.0.0","251569","phbf034g6t6","mus","lion","22","female","yes","yes","4","3 ","585","stimuli/pictures/phone_cell_2.jpg","1","1","","true","yes","sound","stimuli/sounds/phone_label_A.wav",""
"","","","","","audio-keyboard-response","274","2.0.0","252571","phbf034g6t6","mus","lion","22","female","yes","yes","4","3 ","null","stimuli/sounds/bleep.wav","null","","","","","","",""
"","","","","","html-keyboard-response","275","2.0.0","253113","phbf034g6t6","mus","lion","22","female","yes","yes","4","3 ","441","<div style=""font-size:30px;"">Press space to start the trial</div>"," ","","","","","","",""
"","","","","","html-keyboard-response","276","2.0.0","253364","phbf034g6t6","mus","lion","22","female","yes","yes","4","3 ","null","<div style=""font-size:60px;"">+</div>","null","","","","","","",""
"","","","","","audio-keyboard-response","277","2.0.0","253964","phbf034g6t6","mus","lion","22","female","yes","yes","4","3 ","null","stimuli/sounds/drum_sound_A.wav","null","","","","","","",""
"","","","","","html-keyboard-response","278","2.0.0","254966","phbf034g6t6","mus","lion","22","female","yes","yes","4","3 ","null","","null","","","","","","",""
"","","","","","image-keyboard-response","279","2.0.0","255649","phbf034g6t6","mus","lion","22","female","yes","yes","4","3 ","682","stimuli/pictures/flute_wooden_1.jpg","0","0","","true","no","sound","stimuli/sounds/drum_sound_A.wav",""
"","","","","","audio-keyboard-response","280","2.0.0","256650","phbf034g6t6","mus","lion","22","female","yes","yes","4","3 ","null","stimuli/sounds/bleep.wav","null","","","","","","",""
"","","","","","html-keyboard-response","281","2.0.0","257024","phbf034g6t6","mus","lion","22","female","yes","yes","4","3 ","273","<div style=""font-size:30px;"">Press space to start the trial</div>"," ","","","","","","",""
"","","","","","html-keyboard-response","282","2.0.0","257276","phbf034g6t6","mus","lion","22","female","yes","yes","4","3 ","null","<div style=""font-size:60px;"">+</div>","null","","","","","","",""
"","","","","","audio-keyboard-response","283","2.0.0","257876","phbf034g6t6","mus","lion","22","female","yes","yes","4","3 ","null","stimuli/sounds/flute_sound_A.wav","null","","","","","","",""
"","","","","","html-keyboard-response","284","2.0.0","258877","phbf034g6t6","mus","lion","22","female","yes","yes","4","3 ","null","","null","","","","","","",""
"","","","","","image-keyboard-response","285","2.0.0","259663","phbf034g6t6","mus","lion","22","female","yes","yes","4","3 ","785","stimuli/pictures/phone_rotary_1.jpg","0","0","","true","no","sound","stimuli/sounds/flute_sound_A.wav",""
"","","","","","audio-keyboard-response","286","2.0.0","260666","phbf034g6t6","mus","lion","22","female","yes","yes","4","3 ","null","stimuli/sounds/bleep.wav","null","","","","","","",""
"","","","","","html-keyboard-response","287","2.0.0","261033","phbf034g6t6","mus","lion","22","female","yes","yes","4","3 ","266","<div style=""font-size:30px;"">Press space to start the trial</div>"," ","","","","","","",""
"","","","","","html-keyboard-response","288","2.0.0","261283","phbf034g6t6","mus","lion","22","female","yes","yes","4","3 ","null","<div style=""font-size:60px;"">+</div>","null","","","","","","",""
"","","","","","audio-keyboard-response","289","2.0.0","261887","phbf034g6t6","mus","lion","22","female","yes","yes","4","3 ","null","stimuli/sounds/bird_sound_B.wav","null","","","","","","",""
"","","","","","html-keyboard-response","290","2.0.0","262889","phbf034g6t6","mus","lion","22","female","yes","yes","4","3 ","null","","null","","","","","","",""
"","","","","","image-keyboard-response","291","2.0.0","263352","phbf034g6t6","mus","lion","22","female","yes","yes","4","3 ","462","stimuli/pictures/bird_song_1.jpg","1","1","","true","yes","sound","stimuli/sounds/bird_sound_B.wav",""
"","","","","","audio-keyboard-response","292","2.0.0","264354","phbf034g6t6","mus","lion","22","female","yes","yes","4","3 ","null","stimuli/sounds/bleep.wav","null","","","","","","",""
"","","","","","html-keyboard-response","293","2.0.0","264920","phbf034g6t6","mus","lion","22","female","yes","yes","4","3 ","465","<div style=""font-size:30px;"">Press space to start the trial</div>"," ","","","","","","",""
"","","","","","html-keyboard-response","294","2.0.0","265172","phbf034g6t6","mus","lion","22","female","yes","yes","4","3 ","null","<div style=""font-size:60px;"">+</div>","null","","","","","","",""
"","","","","","audio-keyboard-response","295","2.0.0","265782","phbf034g6t6","mus","lion","22","female","yes","yes","4","3 ","null","stimuli/sounds/flute_label_B.wav","null","","","","","","",""
"","","","","","html-keyboard-response","296","2.0.0","266784","phbf034g6t6","mus","lion","22","female","yes","yes","4","3 ","null","","null","","","","","","",""
"","","","","","image-keyboard-response","297","2.0.0","267760","phbf034g6t6","mus","lion","22","female","yes","yes","4","3 ","976","stimuli/pictures/flute_wooden_2.jpg","1","1","","true","yes","sound","stimuli/sounds/flute_label_B.wav",""
"","","","","","audio-keyboard-response","298","2.0.0","268763","phbf034g6t6","mus","lion","22","female","yes","yes","4","3 ","null","stimuli/sounds/bleep.wav","null","","","","","","",""
"","","","","","html-keyboard-response","299","2.0.0","269424","phbf034g6t6","mus","lion","22","female","yes","yes","4","3 ","559","<div style=""font-size:30px;"">Press space to start the trial</div>"," ","","","","","","",""
"","","","","","html-keyboard-response","300","2.0.0","269675","phbf034g6t6","mus","lion","22","female","yes","yes","4","3 ","null","<div style=""font-size:60px;"">+</div>","null","","","","","","",""
"","","","","","audio-keyboard-response","301","2.0.0","270281","phbf034g6t6","mus","lion","22","female","yes","yes","4","3 ","null","stimuli/sounds/flute_sound_B.wav","null","","","","","","",""
"","","","","","html-keyboard-response","302","2.0.0","271283","phbf034g6t6","mus","lion","22","female","yes","yes","4","3 ","null","","null","","","","","","",""
"","","","","","image-keyboard-response","303","2.0.0","272920","phbf034g6t6","mus","lion","22","female","yes","yes","4","3 ","1637","stimuli/pictures/flute_metal_1.jpg","0","1","","false","no","sound","stimuli/sounds/flute_sound_B.wav",""
"","","","","","audio-keyboard-response","304","2.0.0","273923","phbf034g6t6","mus","lion","22","female","yes","yes","4","3 ","null","stimuli/sounds/buzz.wav","null","","","","","","",""
"","","","","","html-keyboard-response","305","2.0.0","275320","phbf034g6t6","mus","lion","22","female","yes","yes","4","3 ","1295","<div style=""font-size:30px;"">Press space to start the trial</div>"," ","","","","","","",""
"","","","","","html-keyboard-response","306","2.0.0","275571","phbf034g6t6","mus","lion","22","female","yes","yes","4","3 ","null","<div style=""font-size:60px;"">+</div>","null","","","","","","",""
"","","","","","audio-keyboard-response","307","2.0.0","276196","phbf034g6t6","mus","lion","22","female","yes","yes","4","3 ","null","stimuli/sounds/piano_label_A.wav","null","","","","","","",""
"","","","","","html-keyboard-response","308","2.0.0","277198","phbf034g6t6","mus","lion","22","female","yes","yes","4","3 ","null","","null","","","","","","",""
"","","","","","image-keyboard-response","309","2.0.0","278168","phbf034g6t6","mus","lion","22","female","yes","yes","4","3 ","969","stimuli/pictures/phone_cell_1.jpg","0","0","","true","no","sound","stimuli/sounds/piano_label_A.wav",""
"","","","","","audio-keyboard-response","310","2.0.0","279170","phbf034g6t6","mus","lion","22","female","yes","yes","4","3 ","null","stimuli/sounds/bleep.wav","null","","","","","","",""
"","","","","","html-keyboard-response","311","2.0.0","280040","phbf034g6t6","mus","lion","22","female","yes","yes","4","3 ","768","<div style=""font-size:30px;"">Press space to start the trial</div>"," ","","","","","","",""
"","","","","","html-keyboard-response","312","2.0.0","280291","phbf034g6t6","mus","lion","22","female","yes","yes","4","3 ","null","<div style=""font-size:60px;"">+</div>","null","","","","","","",""
"","","","","","audio-keyboard-response","313","2.0.0","280892","phbf034g6t6","mus","lion","22","female","yes","yes","4","3 ","null","stimuli/sounds/phone_sound_A.wav","null","","","","","","",""
"","","","","","html-keyboard-response","314","2.0.0","281894","phbf034g6t6","mus","lion","22","female","yes","yes","4","3 ","null","","null","","","","","","",""
"","","","","","image-keyboard-response","315","2.0.0","282503","phbf034g6t6","mus","lion","22","female","yes","yes","4","3 ","608","stimuli/pictures/bird_song_2.jpg","0","0","","true","no","sound","stimuli/sounds/phone_sound_A.wav",""
"","","","","","audio-keyboard-response","316","2.0.0","283506","phbf034g6t6","mus","lion","22","female","yes","yes","4","3 ","null","stimuli/sounds/bleep.wav","null","","","","","","",""
"","","","","","html-keyboard-response","317","2.0.0","284048","phbf034g6t6","mus","lion","22","female","yes","yes","4","3 ","440","<div style=""font-size:30px;"">Press space to start the trial</div>"," ","","","","","","",""
"","","","","","html-keyboard-response","318","2.0.0","284299","phbf034g6t6","mus","lion","22","female","yes","yes","4","3 ","null","<div style=""font-size:60px;"">+</div>","null","","","","","","",""
"","","","","","audio-keyboard-response","319","2.0.0","284909","phbf034g6t6","mus","lion","22","female","yes","yes","4","3 ","null","stimuli/sounds/piano_sound_A.wav","null","","","","","","",""
"","","","","","html-keyboard-response","320","2.0.0","285911","phbf034g6t6","mus","lion","22","female","yes","yes","4","3 ","null","","null","","","","","","",""
"","","","","","image-keyboard-response","321","2.0.0","286840","phbf034g6t6","mus","lion","22","female","yes","yes","4","3 ","928","stimuli/pictures/drum_bongo_1.jpg","0","0","","true","no","sound","stimuli/sounds/piano_sound_A.wav",""
"","","","","","audio-keyboard-response","322","2.0.0","287842","phbf034g6t6","mus","lion","22","female","yes","yes","4","3 ","null","stimuli/sounds/bleep.wav","null","","","","","","",""
"","","","","","html-keyboard-response","323","2.0.0","288407","phbf034g6t6","mus","lion","22","female","yes","yes","4","3 ","463","<div style=""font-size:30px;"">Press space to start the trial</div>"," ","","","","","","",""
"","","","","","html-keyboard-response","324","2.0.0","288660","phbf034g6t6","mus","lion","22","female","yes","yes","4","3 ","null","<div style=""font-size:60px;"">+</div>","null","","","","","","",""
"","","","","","audio-keyboard-response","325","2.0.0","289262","phbf034g6t6","mus","lion","22","female","yes","yes","4","3 ","null","stimuli/sounds/phone_label_B.wav","null","","","","","","",""
"","","","","","html-keyboard-response","326","2.0.0","290264","phbf034g6t6","mus","lion","22","female","yes","yes","4","3 ","null","","null","","","","","","",""
"","","","","","image-keyboard-response","327","2.0.0","290959","phbf034g6t6","mus","lion","22","female","yes","yes","4","3 ","694","stimuli/pictures/phone_cell_1.jpg","1","1","","true","yes","sound","stimuli/sounds/phone_label_B.wav",""
"","","","","","audio-keyboard-response","328","2.0.0","291960","phbf034g6t6","mus","lion","22","female","yes","yes","4","3 ","null","stimuli/sounds/bleep.wav","null","","","","","","",""
"","","","","","html-keyboard-response","329","2.0.0","292663","phbf034g6t6","mus","lion","22","female","yes","yes","4","3 ","601","<div style=""font-size:30px;"">Press space to start the trial</div>"," ","","","","","","",""
"","","","","","html-keyboard-response","330","2.0.0","292913","phbf034g6t6","mus","lion","22","female","yes","yes","4","3 ","null","<div style=""font-size:60px;"">+</div>","null","","","","","","",""
"","","","","","audio-keyboard-response","331","2.0.0","293517","phbf034g6t6","mus","lion","22","female","yes","yes","4","3 ","null","stimuli/sounds/bird_sound_A.wav","null","","","","","","",""
"","","","","","html-keyboard-response","332","2.0.0","294519","phbf034g6t6","mus","lion","22","female","yes","yes","4","3 ","null","","null","","","","","","",""
"","","","","","image-keyboard-response","333","2.0.0","295367","phbf034g6t6","mus","lion","22","female","yes","yes","4","3 ","848","stimuli/pictures/bird_song_1.jpg","1","1","","true","no","sound","stimuli/sounds/bird_sound_A.wav",""
"","","","","","audio-keyboard-response","334","2.0.0","296369","phbf034g6t6","mus","lion","22","female","yes","yes","4","3 ","null","stimuli/sounds/bleep.wav","null","","","","","","",""
"","","","","","html-keyboard-response","335","2.0.0","297119","phbf034g6t6","mus","lion","22","female","yes","yes","4","3 ","648","<div style=""font-size:30px;"">Press space to start the trial</div>"," ","","","","","","",""
"","","","","","html-keyboard-response","336","2.0.0","297371","phbf034g6t6","mus","lion","22","female","yes","yes","4","3 ","null","<div style=""font-size:60px;"">+</div>","null","","","","","","",""
"","","","","","audio-keyboard-response","337","2.0.0","297975","phbf034g6t6","mus","lion","22","female","yes","yes","4","3 ","null","stimuli/sounds/drum_label_A.wav","null","","","","","","",""
"","","","","","html-keyboard-response","338","2.0.0","298976","phbf034g6t6","mus","lion","22","female","yes","yes","4","3 ","null","","null","","","","","","",""
"","","","","","image-keyboard-response","339","2.0.0","299615","phbf034g6t6","mus","lion","22","female","yes","yes","4","3 ","638","stimuli/pictures/bird_hawk_1.jpg","0","0","","true","no","sound","stimuli/sounds/drum_label_A.wav",""
"","","","","","audio-keyboard-response","340","2.0.0","300618","phbf034g6t6","mus","lion","22","female","yes","yes","4","3 ","null","stimuli/sounds/bleep.wav","null","","","","","","",""
"","","","","","html-keyboard-response","341","2.0.0","301143","phbf034g6t6","mus","lion","22","female","yes","yes","4","3 ","423","<div style=""font-size:30px;"">Press space to start the trial</div>"," ","","","","","","",""
"","","","","","html-keyboard-response","342","2.0.0","301394","phbf034g6t6","mus","lion","22","female","yes","yes","4","3 ","null","<div style=""font-size:60px;"">+</div>","null","","","","","","",""
"","","","","","audio-keyboard-response","343","2.0.0","301998","phbf034g6t6","mus","lion","22","female","yes","yes","4","3 ","null","stimuli/sounds/drum_sound_B.wav","null","","","","","","",""
"","","","","","html-keyboard-response","344","2.0.0","303000","phbf034g6t6","mus","lion","22","female","yes","yes","4","3 ","null","","null","","","","","","",""
"","","","","","image-keyboard-response","345","2.0.0","303447","phbf034g6t6","mus","lion","22","female","yes","yes","4","3 ","446","stimuli/pictures/drum_kit_2.jpg","1","1","","true","no","sound","stimuli/sounds/drum_sound_B.wav",""
"","","","","","audio-keyboard-response","346","2.0.0","304449","phbf034g6t6","mus","lion","22","female","yes","yes","4","3 ","null","stimuli/sounds/bleep.wav","null","","","","","","",""
"","","","","","html-keyboard-response","347","2.0.0","304967","phbf034g6t6","mus","lion","22","female","yes","yes","4","3 ","416","<div style=""font-size:30px;"">Press space to start the trial</div>"," ","","","","","","",""
"","","","","","html-keyboard-response","348","2.0.0","305218","phbf034g6t6","mus","lion","22","female","yes","yes","4","3 ","null","<div style=""font-size:60px;"">+</div>","null","","","","","","",""
"","","","","","audio-keyboard-response","349","2.0.0","305817","phbf034g6t6","mus","lion","22","female","yes","yes","4","3 ","null","stimuli/sounds/bird_label_B.wav","null","","","","","","",""
"","","","","","html-keyboard-response","350","2.0.0","306818","phbf034g6t6","mus","lion","22","female","yes","yes","4","3 ","null","","null","","","","","","",""
"","","","","","image-keyboard-response","351","2.0.0","307486","phbf034g6t6","mus","lion","22","female","yes","yes","4","3 ","667","stimuli/pictures/bird_hawk_1.jpg","1","1","","true","yes","sound","stimuli/sounds/bird_label_B.wav",""
"","","","","","audio-keyboard-response","352","2.0.0","308489","phbf034g6t6","mus","lion","22","female","yes","yes","4","3 ","null","stimuli/sounds/bleep.wav","null","","","","","","",""
"","","","","","html-keyboard-response","353","2.0.0","308990","phbf034g6t6","mus","lion","22","female","yes","yes","4","3 ","400","<div style=""font-size:30px;"">Press space to start the trial</div>"," ","","","","","","",""
"","","","","","html-keyboard-response","354","2.0.0","309242","phbf034g6t6","mus","lion","22","female","yes","yes","4","3 ","null","<div style=""font-size:60px;"">+</div>","null","","","","","","",""
"","","","","","audio-keyboard-response","355","2.0.0","309846","phbf034g6t6","mus","lion","22","female","yes","yes","4","3 ","null","stimuli/sounds/drum_label_B.wav","null","","","","","","",""
"","","","","","html-keyboard-response","356","2.0.0","310848","phbf034g6t6","mus","lion","22","female","yes","yes","4","3 ","null","","null","","","","","","",""
"","","","","","image-keyboard-response","357","2.0.0","311630","phbf034g6t6","mus","lion","22","female","yes","yes","4","3 ","781","stimuli/pictures/piano_grand_1.jpg","0","0","","true","no","sound","stimuli/sounds/drum_label_B.wav",""
"","","","","","audio-keyboard-response","358","2.0.0","312631","phbf034g6t6","mus","lion","22","female","yes","yes","4","3 ","null","stimuli/sounds/bleep.wav","null","","","","","","",""
"","","","","","html-keyboard-response","359","2.0.0","313166","phbf034g6t6","mus","lion","22","female","yes","yes","4","3 ","433","<div style=""font-size:30px;"">Press space to start the trial</div>"," ","","","","","","",""
"","","","","","html-keyboard-response","360","2.0.0","313417","phbf034g6t6","mus","lion","22","female","yes","yes","4","3 ","null","<div style=""font-size:60px;"">+</div>","null","","","","","","",""
"","","","","","audio-keyboard-response","361","2.0.0","314019","phbf034g6t6","mus","lion","22","female","yes","yes","4","3 ","null","stimuli/sounds/flute_label_A.wav","null","","","","","","",""
"","","","","","html-keyboard-response","362","2.0.0","315021","phbf034g6t6","mus","lion","22","female","yes","yes","4","3 ","null","","null","","","","","","",""
"","","","","","image-keyboard-response","363","2.0.0","316452","phbf034g6t6","mus","lion","22","female","yes","yes","4","3 ","1430","stimuli/pictures/piano_electric_2.jpg","0","0","","true","no","sound","stimuli/sounds/flute_label_A.wav",""
"","","","","","audio-keyboard-response","364","2.0.0","317454","phbf034g6t6","mus","lion","22","female","yes","yes","4","3 ","null","stimuli/sounds/bleep.wav","null","","","","","","",""
"","","","","","html-keyboard-response","365","2.0.0","318022","phbf034g6t6","mus","lion","22","female","yes","yes","4","3 ","466","<div style=""font-size:30px;"">Press space to start the trial</div>"," ","","","","","","",""
"","","","","","html-keyboard-response","366","2.0.0","318273","phbf034g6t6","mus","lion","22","female","yes","yes","4","3 ","null","<div style=""font-size:60px;"">+</div>","null","","","","","","",""
"","","","","","audio-keyboard-response","367","2.0.0","318895","phbf034g6t6","mus","lion","22","female","yes","yes","4","3 ","null","stimuli/sounds/piano_label_A.wav","null","","","","","","",""
"","","","","","html-keyboard-response","368","2.0.0","319897","phbf034g6t6","mus","lion","22","female","yes","yes","4","3 ","null","","null","","","","","","",""
"","","","","","image-keyboard-response","369","2.0.0","320710","phbf034g6t6","mus","lion","22","female","yes","yes","4","3 ","812","stimuli/pictures/piano_electric_2.jpg","1","1","","true","yes","sound","stimuli/sounds/piano_label_A.wav",""
"","","","","","audio-keyboard-response","370","2.0.0","321711","phbf034g6t6","mus","lion","22","female","yes","yes","4","3 ","null","stimuli/sounds/bleep.wav","null","","","","","","",""
"","","","","","html-keyboard-response","371","2.0.0","322301","phbf034g6t6","mus","lion","22","female","yes","yes","4","3 ","489","<div style=""font-size:30px;"">Press space to start the trial</div>"," ","","","","","","",""
"","","","","","html-keyboard-response","372","2.0.0","322554","phbf034g6t6","mus","lion","22","female","yes","yes","4","3 ","null","<div style=""font-size:60px;"">+</div>","null","","","","","","",""
"","","","","","audio-keyboard-response","373","2.0.0","323156","phbf034g6t6","mus","lion","22","female","yes","yes","4","3 ","null","stimuli/sounds/bird_sound_A.wav","null","","","","","","",""
"","","","","","html-keyboard-response","374","2.0.0","324158","phbf034g6t6","mus","lion","22","female","yes","yes","4","3 ","null","","null","","","","","","",""
"","","","","","image-keyboard-response","375","2.0.0","324837","phbf034g6t6","mus","lion","22","female","yes","yes","4","3 ","678","stimuli/pictures/bird_song_2.jpg","1","1","","true","no","sound","stimuli/sounds/bird_sound_A.wav",""
"","","","","","audio-keyboard-response","376","2.0.0","325839","phbf034g6t6","mus","lion","22","female","yes","yes","4","3 ","null","stimuli/sounds/bleep.wav","null","","","","","","",""
"","","","","","html-keyboard-response","377","2.0.0","326854","phbf034g6t6","mus","lion","22","female","yes","yes","4","3 ","912","<div style=""font-size:30px;"">Press space to start the trial</div>"," ","","","","","","",""
"","","","","","html-keyboard-response","378","2.0.0","327106","phbf034g6t6","mus","lion","22","female","yes","yes","4","3 ","null","<div style=""font-size:60px;"">+</div>","null","","","","","","",""
"","","","","","audio-keyboard-response","379","2.0.0","327707","phbf034g6t6","mus","lion","22","female","yes","yes","4","3 ","null","stimuli/sounds/flute_sound_A.wav","null","","","","","","",""
"","","","","","html-keyboard-response","380","2.0.0","328709","phbf034g6t6","mus","lion","22","female","yes","yes","4","3 ","null","","null","","","","","","",""
"","","","","","image-keyboard-response","381","2.0.0","329350","phbf034g6t6","mus","lion","22","female","yes","yes","4","3 ","640","stimuli/pictures/phone_cell_1.jpg","0","0","","true","no","sound","stimuli/sounds/flute_sound_A.wav",""
"","","","","","audio-keyboard-response","382","2.0.0","330352","phbf034g6t6","mus","lion","22","female","yes","yes","4","3 ","null","stimuli/sounds/bleep.wav","null","","","","","","",""
"","","","","","html-keyboard-response","383","2.0.0","330981","phbf034g6t6","mus","lion","22","female","yes","yes","4","3 ","528","<div style=""font-size:30px;"">Press space to start the trial</div>"," ","","","","","","",""
"","","","","","html-keyboard-response","384","2.0.0","331232","phbf034g6t6","mus","lion","22","female","yes","yes","4","3 ","null","<div style=""font-size:60px;"">+</div>","null","","","","","","",""
"","","","","","audio-keyboard-response","385","2.0.0","331834","phbf034g6t6","mus","lion","22","female","yes","yes","4","3 ","null","stimuli/sounds/drum_sound_A.wav","null","","","","","","",""
"","","","","","html-keyboard-response","386","2.0.0","332835","phbf034g6t6","mus","lion","22","female","yes","yes","4","3 ","null","","null","","","","","","",""
"","","","","","image-keyboard-response","387","2.0.0","333309","phbf034g6t6","mus","lion","22","female","yes","yes","4","3 ","473","stimuli/pictures/drum_bongo_2.jpg","1","1","","true","no","sound","stimuli/sounds/drum_sound_A.wav",""
"","","","","","audio-keyboard-response","388","2.0.0","334311","phbf034g6t6","mus","lion","22","female","yes","yes","4","3 ","null","stimuli/sounds/bleep.wav","null","","","","","","",""
"","","","","","html-keyboard-response","389","2.0.0","336501","phbf034g6t6","mus","lion","22","female","yes","yes","4","3 ","2088","<p>You have completed a block. Press R when you are ready to continue</p>","r","","","","","","",""
"","","","","","html-keyboard-response","390","2.0.0","338909","phbf034g6t6","mus","lion","22","female","yes","yes","4","3 ","2408","<div style=""font-size:30px;"">Press space to start the trial</div>"," ","","","","","","",""
"","","","","","html-keyboard-response","391","2.0.0","339161","phbf034g6t6","mus","lion","22","female","yes","yes","4","3 ","null","<div style=""font-size:60px;"">+</div>","null","","","","","","",""
"","","","","","audio-keyboard-response","392","2.0.0","339769","phbf034g6t6","mus","lion","22","female","yes","yes","4","3 ","null","stimuli/sounds/piano_sound_A.wav","null","","","","","","",""
"","","","","","html-keyboard-response","393","2.0.0","340771","phbf034g6t6","mus","lion","22","female","yes","yes","4","3 ","null","","null","","","","","","",""
"","","","","","image-keyboard-response","394","2.0.0","341437","phbf034g6t6","mus","lion","22","female","yes","yes","4","3 ","665","stimuli/pictures/piano_grand_2.jpg","1","1","","true","yes","sound","stimuli/sounds/piano_sound_A.wav",""
"","","","","","audio-keyboard-response","395","2.0.0","342439","phbf034g6t6","mus","lion","22","female","yes","yes","4","3 ","null","stimuli/sounds/bleep.wav","null","","","","","","",""
"","","","","","html-keyboard-response","396","2.0.0","342621","phbf034g6t6","mus","lion","22","female","yes","yes","4","3 ","80","<div style=""font-size:30px;"">Press space to start the trial</div>"," ","","","","","","",""
"","","","","","html-keyboard-response","397","2.0.0","342873","phbf034g6t6","mus","lion","22","female","yes","yes","4","3 ","null","<div style=""font-size:60px;"">+</div>","null","","","","","","",""
"","","","","","audio-keyboard-response","398","2.0.0","343478","phbf034g6t6","mus","lion","22","female","yes","yes","4","3 ","null","stimuli/sounds/flute_label_B.wav","null","","","","","","",""
"","","","","","html-keyboard-response","399","2.0.0","344480","phbf034g6t6","mus","lion","22","female","yes","yes","4","3 ","null","","null","","","","","","",""
"","","","","","image-keyboard-response","400","2.0.0","345197","phbf034g6t6","mus","lion","22","female","yes","yes","4","3 ","716","stimuli/pictures/flute_metal_2.jpg","1","1","","true","yes","sound","stimuli/sounds/flute_label_B.wav",""
"","","","","","audio-keyboard-response","401","2.0.0","345493","phbf034g6t6","mus","lion","22","female","yes","yes","4","3 ","296","stimuli/sounds/bleep.wav"," ","","","","","","",""
"","","","","","html-keyboard-response","402","2.0.0","345989","phbf034g6t6","mus","lion","22","female","yes","yes","4","3 ","394","<div style=""font-size:30px;"">Press space to start the trial</div>"," ","","","","","","",""
"","","","","","html-keyboard-response","403","2.0.0","346240","phbf034g6t6","mus","lion","22","female","yes","yes","4","3 ","null","<div style=""font-size:60px;"">+</div>","null","","","","","","",""
"","","","","","audio-keyboard-response","404","2.0.0","346839","phbf034g6t6","mus","lion","22","female","yes","yes","4","3 ","null","stimuli/sounds/drum_label_A.wav","null","","","","","","",""
"","","","","","html-keyboard-response","405","2.0.0","347842","phbf034g6t6","mus","lion","22","female","yes","yes","4","3 ","null","","null","","","","","","",""
"","","","","","image-keyboard-response","406","2.0.0","348549","phbf034g6t6","mus","lion","22","female","yes","yes","4","3 ","706","stimuli/pictures/bird_song_1.jpg","0","0","","true","no","sound","stimuli/sounds/drum_label_A.wav",""
"","","","","","audio-keyboard-response","407","2.0.0","349381","phbf034g6t6","mus","lion","22","female","yes","yes","4","3 ","830","stimuli/sounds/bleep.wav"," ","","","","","","",""
"","","","","","html-keyboard-response","408","2.0.0","349852","phbf034g6t6","mus","lion","22","female","yes","yes","4","3 ","370","<div style=""font-size:30px;"">Press space to start the trial</div>"," ","","","","","","",""
"","","","","","html-keyboard-response","409","2.0.0","350105","phbf034g6t6","mus","lion","22","female","yes","yes","4","3 ","null","<div style=""font-size:60px;"">+</div>","null","","","","","","",""
"","","","","","audio-keyboard-response","410","2.0.0","350705","phbf034g6t6","mus","lion","22","female","yes","yes","4","3 ","null","stimuli/sounds/phone_sound_B.wav","null","","","","","","",""
"","","","","","html-keyboard-response","411","2.0.0","351707","phbf034g6t6","mus","lion","22","female","yes","yes","4","3 ","null","","null","","","","","","",""
"","","","","","image-keyboard-response","412","2.0.0","352301","phbf034g6t6","mus","lion","22","female","yes","yes","4","3 ","593","stimuli/pictures/piano_grand_1.jpg","0","0","","true","no","sound","stimuli/sounds/phone_sound_B.wav",""
"","","","","","audio-keyboard-response","413","2.0.0","353028","phbf034g6t6","mus","lion","22","female","yes","yes","4","3 ","726","stimuli/sounds/bleep.wav"," ","","","","","","",""
"","","","","","html-keyboard-response","414","2.0.0","353364","phbf034g6t6","mus","lion","22","female","yes","yes","4","3 ","235","<div style=""font-size:30px;"">Press space to start the trial</div>"," ","","","","","","",""
"","","","","","html-keyboard-response","415","2.0.0","353617","phbf034g6t6","mus","lion","22","female","yes","yes","4","3 ","null","<div style=""font-size:60px;"">+</div>","null","","","","","","",""
"","","","","","audio-keyboard-response","416","2.0.0","354217","phbf034g6t6","mus","lion","22","female","yes","yes","4","3 ","null","stimuli/sounds/phone_sound_A.wav","null","","","","","","",""
"","","","","","html-keyboard-response","417","2.0.0","355219","phbf034g6t6","mus","lion","22","female","yes","yes","4","3 ","null","","null","","","","","","",""
"","","","","","image-keyboard-response","418","2.0.0","355836","phbf034g6t6","mus","lion","22","female","yes","yes","4","3 ","616","stimuli/pictures/phone_rotary_1.jpg","1","1","","true","no","sound","stimuli/sounds/phone_sound_A.wav",""
"","","","","","audio-keyboard-response","419","2.0.0","356839","phbf034g6t6","mus","lion","22","female","yes","yes","4","3 ","null","stimuli/sounds/bleep.wav","null","","","","","","",""
"","","","","","html-keyboard-response","420","2.0.0","357459","phbf034g6t6","mus","lion","22","female","yes","yes","4","3 ","519","<div style=""font-size:30px;"">Press space to start the trial</div>"," ","","","","","","",""
"","","","","","html-keyboard-response","421","2.0.0","357711","phbf034g6t6","mus","lion","22","female","yes","yes","4","3 ","null","<div style=""font-size:60px;"">+</div>","null","","","","","","",""
"","","","","","audio-keyboard-response","422","2.0.0","358315","phbf034g6t6","mus","lion","22","female","yes","yes","4","3 ","null","stimuli/sounds/phone_sound_A.wav","null","","","","","","",""
"","","","","","html-keyboard-response","423","2.0.0","359317","phbf034g6t6","mus","lion","22","female","yes","yes","4","3 ","null","","null","","","","","","",""
"","","","","","image-keyboard-response","424","2.0.0","360076","phbf034g6t6","mus","lion","22","female","yes","yes","4","3 ","759","stimuli/pictures/phone_cell_2.jpg","1","1","","true","yes","sound","stimuli/sounds/phone_sound_A.wav",""
"","","","","","audio-keyboard-response","425","2.0.0","361078","phbf034g6t6","mus","lion","22","female","yes","yes","4","3 ","null","stimuli/sounds/bleep.wav","null","","","","","","",""
"","","","","","html-keyboard-response","426","2.0.0","361658","phbf034g6t6","mus","lion","22","female","yes","yes","4","3 ","479","<div style=""font-size:30px;"">Press space to start the trial</div>"," ","","","","","","",""
"","","","","","html-keyboard-response","427","2.0.0","361909","phbf034g6t6","mus","lion","22","female","yes","yes","4","3 ","null","<div style=""font-size:60px;"">+</div>","null","","","","","","",""
"","","","","","audio-keyboard-response","428","2.0.0","362512","phbf034g6t6","mus","lion","22","female","yes","yes","4","3 ","null","stimuli/sounds/bird_sound_B.wav","null","","","","","","",""
"","","","","","html-keyboard-response","429","2.0.0","363514","phbf034g6t6","mus","lion","22","female","yes","yes","4","3 ","null","","null","","","","","","",""
"","","","","","image-keyboard-response","430","2.0.0","364084","phbf034g6t6","mus","lion","22","female","yes","yes","4","3 ","569","stimuli/pictures/bird_hawk_1.jpg","1","1","","true","no","sound","stimuli/sounds/bird_sound_B.wav",""
"","","","","","audio-keyboard-response","431","2.0.0","364924","phbf034g6t6","mus","lion","22","female","yes","yes","4","3 ","836","stimuli/sounds/bleep.wav"," ","","","","","","",""
"","","","","","html-keyboard-response","432","2.0.0","365372","phbf034g6t6","mus","lion","22","female","yes","yes","4","3 ","346","<div style=""font-size:30px;"">Press space to start the trial</div>"," ","","","","","","",""
"","","","","","html-keyboard-response","433","2.0.0","365623","phbf034g6t6","mus","lion","22","female","yes","yes","4","3 ","null","<div style=""font-size:60px;"">+</div>","null","","","","","","",""
"","","","","","audio-keyboard-response","434","2.0.0","366227","phbf034g6t6","mus","lion","22","female","yes","yes","4","3 ","null","stimuli/sounds/phone_sound_A.wav","null","","","","","","",""
"","","","","","html-keyboard-response","435","2.0.0","367229","phbf034g6t6","mus","lion","22","female","yes","yes","4","3 ","null","","null","","","","","","",""
"","","","","","image-keyboard-response","436","2.0.0","367948","phbf034g6t6","mus","lion","22","female","yes","yes","4","3 ","718","stimuli/pictures/bird_hawk_1.jpg","0","0","","true","no","sound","stimuli/sounds/phone_sound_A.wav",""
"","","","","","audio-keyboard-response","437","2.0.0","368950","phbf034g6t6","mus","lion","22","female","yes","yes","4","3 ","null","stimuli/sounds/bleep.wav","null","","","","","","",""
"","","","","","html-keyboard-response","438","2.0.0","369459","phbf034g6t6","mus","lion","22","female","yes","yes","4","3 ","408","<div style=""font-size:30px;"">Press space to start the trial</div>"," ","","","","","","",""
"","","","","","html-keyboard-response","439","2.0.0","369712","phbf034g6t6","mus","lion","22","female","yes","yes","4","3 ","null","<div style=""font-size:60px;"">+</div>","null","","","","","","",""
"","","","","","audio-keyboard-response","440","2.0.0","370314","phbf034g6t6","mus","lion","22","female","yes","yes","4","3 ","null","stimuli/sounds/drum_label_A.wav","null","","","","","","",""
"","","","","","html-keyboard-response","441","2.0.0","371316","phbf034g6t6","mus","lion","22","female","yes","yes","4","3 ","null","","null","","","","","","",""
"","","","","","image-keyboard-response","442","2.0.0","371764","phbf034g6t6","mus","lion","22","female","yes","yes","4","3 ","447","stimuli/pictures/drum_kit_1.jpg","1","1","","true","yes","sound","stimuli/sounds/drum_label_A.wav",""
"","","","","","audio-keyboard-response","443","2.0.0","372219","phbf034g6t6","mus","lion","22","female","yes","yes","4","3 ","459","stimuli/sounds/bleep.wav"," ","","","","","","",""
"","","","","","html-keyboard-response","444","2.0.0","372627","phbf034g6t6","mus","lion","22","female","yes","yes","4","3 ","306","<div style=""font-size:30px;"">Press space to start the trial</div>"," ","","","","","","",""
"","","","","","html-keyboard-response","445","2.0.0","372878","phbf034g6t6","mus","lion","22","female","yes","yes","4","3 ","null","<div style=""font-size:60px;"">+</div>","null","","","","","","",""
"","","","","","audio-keyboard-response","446","2.0.0","373500","phbf034g6t6","mus","lion","22","female","yes","yes","4","3 ","null","stimuli/sounds/piano_label_A.wav","null","","","","","","",""
"","","","","","html-keyboard-response","447","2.0.0","374503","phbf034g6t6","mus","lion","22","female","yes","yes","4","3 ","null","","null","","","","","","",""
"","","","","","image-keyboard-response","448","2.0.0","375010","phbf034g6t6","mus","lion","22","female","yes","yes","4","3 ","506","stimuli/pictures/piano_grand_2.jpg","1","1","","true","yes","sound","stimuli/sounds/piano_label_A.wav",""
"","","","","","audio-keyboard-response","449","2.0.0","375691","phbf034g6t6","mus","lion","22","female","yes","yes","4","3 ","679","stimuli/sounds/bleep.wav"," ","","","","","","",""
"","","","","","html-keyboard-response","450","2.0.0","376027","phbf034g6t6","mus","lion","22","female","yes","yes","4","3 ","234","<div style=""font-size:30px;"">Press space to start the trial</div>"," ","","","","","","",""
"","","","","","html-keyboard-response","451","2.0.0","376280","phbf034g6t6","mus","lion","22","female","yes","yes","4","3 ","null","<div style=""font-size:60px;"">+</div>","null","","","","","","",""
"","","","","","audio-keyboard-response","452","2.0.0","376885","phbf034g6t6","mus","lion","22","female","yes","yes","4","3 ","null","stimuli/sounds/flute_label_B.wav","null","","","","","","",""
"","","","","","html-keyboard-response","453","2.0.0","377887","phbf034g6t6","mus","lion","22","female","yes","yes","4","3 ","null","","null","","","","","","",""
"","","","","","image-keyboard-response","454","2.0.0","378539","phbf034g6t6","mus","lion","22","female","yes","yes","4","3 ","652","stimuli/pictures/drum_kit_1.jpg","0","0","","true","no","sound","stimuli/sounds/flute_label_B.wav",""
"","","","","","audio-keyboard-response","455","2.0.0","379542","phbf034g6t6","mus","lion","22","female","yes","yes","4","3 ","null","stimuli/sounds/bleep.wav","null","","","","","","",""
"","","","","","html-keyboard-response","456","2.0.0","380081","phbf034g6t6","mus","lion","22","female","yes","yes","4","3 ","437","<div style=""font-size:30px;"">Press space to start the trial</div>"," ","","","","","","",""
"","","","","","html-keyboard-response","457","2.0.0","380333","phbf034g6t6","mus","lion","22","female","yes","yes","4","3 ","null","<div style=""font-size:60px;"">+</div>","null","","","","","","",""
"","","","","","audio-keyboard-response","458","2.0.0","380936","phbf034g6t6","mus","lion","22","female","yes","yes","4","3 ","null","stimuli/sounds/phone_label_A.wav","null","","","","","","",""
"","","","","","html-keyboard-response","459","2.0.0","381938","phbf034g6t6","mus","lion","22","female","yes","yes","4","3 ","null","","null","","","","","","",""
"","","","","","image-keyboard-response","460","2.0.0","382611","phbf034g6t6","mus","lion","22","female","yes","yes","4","3 ","672","stimuli/pictures/drum_kit_2.jpg","0","0","","true","no","sound","stimuli/sounds/phone_label_A.wav",""
"","","","","","audio-keyboard-response","461","2.0.0","383283","phbf034g6t6","mus","lion","22","female","yes","yes","4","3 ","673","stimuli/sounds/bleep.wav"," ","","","","","","",""
"","","","","","html-keyboard-response","462","2.0.0","383547","phbf034g6t6","mus","lion","22","female","yes","yes","4","3 ","163","<div style=""font-size:30px;"">Press space to start the trial</div>"," ","","","","","","",""
"","","","","","html-keyboard-response","463","2.0.0","383799","phbf034g6t6","mus","lion","22","female","yes","yes","4","3 ","null","<div style=""font-size:60px;"">+</div>","null","","","","","","",""
"","","","","","audio-keyboard-response","464","2.0.0","384402","phbf034g6t6","mus","lion","22","female","yes","yes","4","3 ","null","stimuli/sounds/drum_sound_B.wav","null","","","","","","",""
"","","","","","html-keyboard-response","465","2.0.0","385404","phbf034g6t6","mus","lion","22","female","yes","yes","4","3 ","null","","null","","","","","","",""
"","","","","","image-keyboard-response","466","2.0.0","386083","phbf034g6t6","mus","lion","22","female","yes","yes","4","3 ","679","stimuli/pictures/phone_rotary_1.jpg","0","0","","true","no","sound","stimuli/sounds/drum_sound_B.wav",""
"","","","","","audio-keyboard-response","467","2.0.0","386603","phbf034g6t6","mus","lion","22","female","yes","yes","4","3 ","522","stimuli/sounds/bleep.wav"," ","","","","","","",""
"","","","","","html-keyboard-response","468","2.0.0","386923","phbf034g6t6","mus","lion","22","female","yes","yes","4","3 ","218","<div style=""font-size:30px;"">Press space to start the trial</div>"," ","","","","","","",""
"","","","","","html-keyboard-response","469","2.0.0","387174","phbf034g6t6","mus","lion","22","female","yes","yes","4","3 ","null","<div style=""font-size:60px;"">+</div>","null","","","","","","",""
"","","","","","audio-keyboard-response","470","2.0.0","387774","phbf034g6t6","mus","lion","22","female","yes","yes","4","3 ","null","stimuli/sounds/bird_label_B.wav","null","","","","","","",""
"","","","","","html-keyboard-response","471","2.0.0","388776","phbf034g6t6","mus","lion","22","female","yes","yes","4","3 ","null","","null","","","","","","",""
"","","","","","image-keyboard-response","472","2.0.0","389355","phbf034g6t6","mus","lion","22","female","yes","yes","4","3 ","578","stimuli/pictures/phone_cell_2.jpg","0","0","","true","no","sound","stimuli/sounds/bird_label_B.wav",""
"","","","","","audio-keyboard-response","473","2.0.0","389867","phbf034g6t6","mus","lion","22","female","yes","yes","4","3 ","511","stimuli/sounds/bleep.wav"," ","","","","","","",""
"","","","","","html-keyboard-response","474","2.0.0","390170","phbf034g6t6","mus","lion","22","female","yes","yes","4","3 ","202","<div style=""font-size:30px;"">Press space to start the trial</div>"," ","","","","","","",""
"","","","","","html-keyboard-response","475","2.0.0","390423","phbf034g6t6","mus","lion","22","female","yes","yes","4","3 ","null","<div style=""font-size:60px;"">+</div>","null","","","","","","",""
"","","","","","audio-keyboard-response","476","2.0.0","391025","phbf034g6t6","mus","lion","22","female","yes","yes","4","3 ","null","stimuli/sounds/piano_sound_B.wav","null","","","","","","",""
"","","","","","html-keyboard-response","477","2.0.0","392027","phbf034g6t6","mus","lion","22","female","yes","yes","4","3 ","null","","null","","","","","","",""
"","","","","","image-keyboard-response","478","2.0.0","393019","phbf034g6t6","mus","lion","22","female","yes","yes","4","3 ","991","stimuli/pictures/flute_wooden_1.jpg","0","0","","true","no","sound","stimuli/sounds/piano_sound_B.wav",""
"","","","","","audio-keyboard-response","479","2.0.0","394021","phbf034g6t6","mus","lion","22","female","yes","yes","4","3 ","null","stimuli/sounds/bleep.wav","null","","","","","","",""
"","","","","","html-keyboard-response","480","2.0.0","394643","phbf034g6t6","mus","lion","22","female","yes","yes","4","3 ","519","<div style=""font-size:30px;"">Press space to start the trial</div>"," ","","","","","","",""
"","","","","","html-keyboard-response","481","2.0.0","394895","phbf034g6t6","mus","lion","22","female","yes","yes","4","3 ","null","<div style=""font-size:60px;"">+</div>","null","","","","","","",""
"","","","","","audio-keyboard-response","482","2.0.0","395495","phbf034g6t6","mus","lion","22","female","yes","yes","4","3 ","null","stimuli/sounds/flute_sound_A.wav","null","","","","","","",""
"","","","","","html-keyboard-response","483","2.0.0","396497","phbf034g6t6","mus","lion","22","female","yes","yes","4","3 ","null","","null","","","","","","",""
"","","","","","image-keyboard-response","484","2.0.0","397155","phbf034g6t6","mus","lion","22","female","yes","yes","4","3 ","657","stimuli/pictures/flute_wooden_2.jpg","1","1","","true","no","sound","stimuli/sounds/flute_sound_A.wav",""
"","","","","","audio-keyboard-response","485","2.0.0","398157","phbf034g6t6","mus","lion","22","female","yes","yes","4","3 ","null","stimuli/sounds/bleep.wav","null","","","","","","",""
"","","","","","html-keyboard-response","486","2.0.0","398994","phbf034g6t6","mus","lion","22","female","yes","yes","4","3 ","736","<div style=""font-size:30px;"">Press space to start the trial</div>"," ","","","","","","",""
"","","","","","html-keyboard-response","487","2.0.0","399246","phbf034g6t6","mus","lion","22","female","yes","yes","4","3 ","null","<div style=""font-size:60px;"">+</div>","null","","","","","","",""
"","","","","","audio-keyboard-response","488","2.0.0","399848","phbf034g6t6","mus","lion","22","female","yes","yes","4","3 ","null","stimuli/sounds/phone_label_A.wav","null","","","","","","",""
