"success","timeout","failed_images","failed_audio","failed_video","trial_type","trial_index","plugin_version","time_elapsed","random_id","condition","participant","age","gender_id","mus_exp","inst_exp","years_exp","mus_listening","rt","stimulus","response","correct_response","practice","correct","congruent","sound_type","audio","question_order"
"true","false","[]","[]","[]","preload","0","2.0.0","809","phwtws43a2j","ono","antelope","23\","female","no","no","0","10","","","","","","","","","",""
"","","","","","html-keyboard-response","1","2.0.0","3354","phwtws43a2j","ono","antelope","23\","female","no","no","0","10","2543","Welcome to the experiment! Press any key to begin."," ","","","","","","",""
"true","","","","","fullscreen","2","null","7952","phwtws43a2j","ono","antelope","23\","female","no","no","0","10","3595","","","","","","","","",""
"","","","","","survey-text","3","2.0.0","23776","phwtws43a2j","ono","antelope","23\","female","no","no","0","10","15820","","{""participant_id"":""antelope""}","","","","","","",""
"","","","","","html-keyboard-response","4","2.0.0","32236","phwtws43a2j","ono","antelope","23\","female","no","no","0","10","8459","
    <p> Please use headphones for the duration of the study.</p>
    <p> Within each trial, you will hear a sound and then be presented with an image in the center of your screen.</p>
    <p>Press the <b>'1'</b> key if what you hear <u>matches</u> what you see.</p>
    <p>Press the <b>'0'</b> key if what you hear <u>does not match</u> what you see.</p>
    <p>Try to respond as quickly and accurately as you can.</p>
    <p> Press any key to begin.</p>
    "," ","","","","","","",""
"","","","","","html-keyboard-response","5","2.0.0","35490","phwtws43a2j","ono","antelope","23\","female","no","no","0","10","3252","
    <div style=""font-size:28px;"">
      <p>You will now complete 4 short practice trials.</p>
      <p>This is just to help you get familiar with the task.</p>
      <p>Press any key to begin.</p>
    </div>
  "," ","","","","","","",""
"","","","","","html-keyboard-response","6","2.0.0","35996","phwtws43a2j","ono","antelope","23\","female","no","no","0","10","null","<div style=""font-size:60px;"">+</div>","null","","","","","","",""
"","","","","","audio-keyboard-response","7","2.0.0","36692","phwtws43a2j","ono","antelope","23\","female","no","no","0","10","null","stimuli/sounds/guitar_label_A.wav","null","","","","","","",""
"","","","","","image-keyboard-response","8","2.0.0","37405","phwtws43a2j","ono","antelope","23\","female","no","no","0","10","707","stimuli/pictures/guitar_acoustic_1.jpg","1","1","true","true","","","",""
"","","","","","audio-keyboard-response","9","2.0.0","38221","phwtws43a2j","ono","antelope","23\","female","no","no","0","10","null","stimuli/sounds/bleep.wav","null","","","","","","",""
"","","","","","html-keyboard-response","10","2.0.0","38935","phwtws43a2j","ono","antelope","23\","female","no","no","0","10","null","<p style='color:green; font-size:30px;'>Correct!</p>","null","","","","","","",""
"","","","","","html-keyboard-response","11","2.0.0","39446","phwtws43a2j","ono","antelope","23\","female","no","no","0","10","null","<div style=""font-size:60px;"">+</div>","null","","","","","","",""
"","","","","","audio-keyboard-response","12","2.0.0","40042","phwtws43a2j","ono","antelope","23\","female","no","no","0","10","null","stimuli/sounds/guitar_sound_B.wav","null","","","","","","",""
"","","","","","image-keyboard-response","13","2.0.0","40682","phwtws43a2j","ono","antelope","23\","female","no","no","0","10","638","stimuli/pictures/guitar_acoustic_2.jpg","1","1","true","true","","","",""
"","","","","","audio-keyboard-response","14","2.0.0","41487","phwtws43a2j","ono","antelope","23\","female","no","no","0","10","null","stimuli/sounds/bleep.wav","null","","","","","","",""
"","","","","","html-keyboard-response","15","2.0.0","42204","phwtws43a2j","ono","antelope","23\","female","no","no","0","10","null","<p style='color:green; font-size:30px;'>Correct!</p>","null","","","","","","",""
"","","","","","html-keyboard-response","16","2.0.0","42719","phwtws43a2j","ono","antelope","23\","female","no","no","0","10","null","<div style=""font-size:60px;"">+</div>","null","","","","","","",""
"","","","","","audio-keyboard-response","17","2.0.0","43312","phwtws43a2j","ono","antelope","23\","female","no","no","0","10","null","stimuli/sounds/flute_sound_A.wav","null","","","","","","",""
"","","","","","image-keyboard-response","18","2.0.0","44379","phwtws43a2j","ono","antelope","23\","female","no","no","0","10","1065","stimuli/pictures/guitar_electric_1.jpg","0","0","true","true","","","",""
"","","","","","audio-keyboard-response","19","2.0.0","45196","phwtws43a2j","ono","antelope","23\","female","no","no","0","10","null","stimuli/sounds/bleep.wav","null","","","","","","",""
"","","","","","html-keyboard-response","20","2.0.0","45898","phwtws43a2j","ono","antelope","23\","female","no","no","0","10","null","<p style='color:green; font-size:30px;'>Correct!</p>","null","","","","","","",""
"","","","","","html-keyboard-response","21","2.0.0","46409","phwtws43a2j","ono","antelope","23\","female","no","no","0","10","null","<div style=""font-size:60px;"">+</div>","null","","","","","","",""
"","","","","","audio-keyboard-response","22","2.0.0","47011","phwtws43a2j","ono","antelope","23\","female","no","no","0","10","null","stimuli/sounds/guitar_sound_A.wav","null","","","","","","",""
"","","","","","image-keyboard-response","23","2.0.0","47789","phwtws43a2j","ono","antelope","23\","female","no","no","0","10","776","stimuli/pictures/guitar_acoustic_1.jpg","0","1","true","false","","","",""
"","","","","","audio-keyboard-response","24","2.0.0","48592","phwtws43a2j","ono","antelope","23\","female","no","no","0","10","null","stimuli/sounds/buzz.wav","null","","","","","","",""
"","","","","","html-keyboard-response","25","2.0.0","49294","phwtws43a2j","ono","antelope","23\","female","no","no","0","10","null","<p style='color:red; font-size:30px;'>Incorrect</p>","null","","","","","","",""
"","","","","","html-keyboard-response","26","2.0.0","51228","phwtws43a2j","ono","antelope","23\","female","no","no","0","10","1933","<p>Practice complete. Press any key to begin the real experiment.</p>"," ","","","","","","",""
"","","","","","html-keyboard-response","27","2.0.0","52948","phwtws43a2j","ono","antelope","23\","female","no","no","0","10","1718","<div style=""font-size:30px;"">Press space to start the trial</div>"," ","","","","","","",""
"","","","","","html-keyboard-response","28","2.0.0","53199","phwtws43a2j","ono","antelope","23\","female","no","no","0","10","null","<div style=""font-size:60px;"">+</div>","null","","","","","","",""
"","","","","","audio-keyboard-response","29","2.0.0","53801","phwtws43a2j","ono","antelope","23\","female","no","no","0","10","null","stimuli/sounds/cough_label_B.wav","null","","","","","","",""
"","","","","","html-keyboard-response","30","2.0.0","54818","phwtws43a2j","ono","antelope","23\","female","no","no","0","10","null","","null","","","","","","",""
"","","","","","image-keyboard-response","31","2.0.0","55402","phwtws43a2j","ono","antelope","23\","female","no","no","0","10","581","stimuli/pictures/cough_wom_1.jpg","1","1","","true","yes","sound","stimuli/sounds/cough_label_B.wav",""
"","","","","","audio-keyboard-response","32","2.0.0","56413","phwtws43a2j","ono","antelope","23\","female","no","no","0","10","null","stimuli/sounds/bleep.wav","null","","","","","","",""
"","","","","","html-keyboard-response","33","2.0.0","57213","phwtws43a2j","ono","antelope","23\","female","no","no","0","10","692","<div style=""font-size:30px;"">Press space to start the trial</div>"," ","","","","","","",""
"","","","","","html-keyboard-response","34","2.0.0","57474","phwtws43a2j","ono","antelope","23\","female","no","no","0","10","null","<div style=""font-size:60px;"">+</div>","null","","","","","","",""
"","","","","","audio-keyboard-response","35","2.0.0","58072","phwtws43a2j","ono","antelope","23\","female","no","no","0","10","null","stimuli/sounds/motor_label_A.wav","null","","","","","","",""
"","","","","","html-keyboard-response","36","2.0.0","59077","phwtws43a2j","ono","antelope","23\","female","no","no","0","10","null","","null","","","","","","",""
"","","","","","image-keyboard-response","37","2.0.0","59917","phwtws43a2j","ono","antelope","23\","female","no","no","0","10","838","stimuli/pictures/dog_rott_1.jpg","0","0","","true","no","sound","stimuli/sounds/motor_label_A.wav",""
"","","","","","audio-keyboard-response","38","2.0.0","60933","phwtws43a2j","ono","antelope","23\","female","no","no","0","10","null","stimuli/sounds/bleep.wav","null","","","","","","",""
"","","","","","html-keyboard-response","39","2.0.0","61618","phwtws43a2j","ono","antelope","23\","female","no","no","0","10","575","<div style=""font-size:30px;"">Press space to start the trial</div>"," ","","","","","","",""
"","","","","","html-keyboard-response","40","2.0.0","61885","phwtws43a2j","ono","antelope","23\","female","no","no","0","10","null","<div style=""font-size:60px;"">+</div>","null","","","","","","",""
"","","","","","audio-keyboard-response","41","2.0.0","62481","phwtws43a2j","ono","antelope","23\","female","no","no","0","10","null","stimuli/sounds/motor_sound_B.wav","null","","","","","","",""
"","","","","","html-keyboard-response","42","2.0.0","63486","phwtws43a2j","ono","antelope","23\","female","no","no","0","10","null","","null","","","","","","",""
"","","","","","image-keyboard-response","43","2.0.0","64219","phwtws43a2j","ono","antelope","23\","female","no","no","0","10","731","stimuli/pictures/motor_dirt_1.jpg","1","1","","true","no","sound","stimuli/sounds/motor_sound_B.wav",""
"","","","","","audio-keyboard-response","44","2.0.0","65233","phwtws43a2j","ono","antelope","23\","female","no","no","0","10","null","stimuli/sounds/bleep.wav","null","","","","","","",""
"","","","","","html-keyboard-response","45","2.0.0","65841","phwtws43a2j","ono","antelope","23\","female","no","no","0","10","500","<div style=""font-size:30px;"">Press space to start the trial</div>"," ","","","","","","",""
"","","","","","html-keyboard-response","46","2.0.0","66103","phwtws43a2j","ono","antelope","23\","female","no","no","0","10","null","<div style=""font-size:60px;"">+</div>","null","","","","","","",""
"","","","","","audio-keyboard-response","47","2.0.0","66701","phwtws43a2j","ono","antelope","23\","female","no","no","0","10","null","stimuli/sounds/motor_label_A.wav","null","","","","","","",""
"","","","","","html-keyboard-response","48","2.0.0","67703","phwtws43a2j","ono","antelope","23\","female","no","no","0","10","null","","null","","","","","","",""
"","","","","","image-keyboard-response","49","2.0.0","68265","phwtws43a2j","ono","antelope","23\","female","no","no","0","10","560","stimuli/pictures/dog_york_2.jpg","0","0","","true","no","sound","stimuli/sounds/motor_label_A.wav",""
"","","","","","audio-keyboard-response","50","2.0.0","69273","phwtws43a2j","ono","antelope","23\","female","no","no","0","10","null","stimuli/sounds/bleep.wav","null","","","","","","",""
"","","","","","html-keyboard-response","51","2.0.0","70126","phwtws43a2j","ono","antelope","23\","female","no","no","0","10","743","<div style=""font-size:30px;"">Press space to start the trial</div>"," ","","","","","","",""
"","","","","","html-keyboard-response","52","2.0.0","70384","phwtws43a2j","ono","antelope","23\","female","no","no","0","10","null","<div style=""font-size:60px;"">+</div>","null","","","","","","",""
"","","","","","audio-keyboard-response","53","2.0.0","71011","phwtws43a2j","ono","antelope","23\","female","no","no","0","10","null","stimuli/sounds/cough_label_A.wav","null","","","","","","",""
"","","","","","html-keyboard-response","54","2.0.0","72015","phwtws43a2j","ono","antelope","23\","female","no","no","0","10","null","","null","","","","","","",""
"","","","","","image-keyboard-response","55","2.0.0","72699","phwtws43a2j","ono","antelope","23\","female","no","no","0","10","682","stimuli/pictures/motor_harley_2.jpg","0","0","","true","no","sound","stimuli/sounds/cough_label_A.wav",""
"","","","","","audio-keyboard-response","56","2.0.0","73713","phwtws43a2j","ono","antelope","23\","female","no","no","0","10","null","stimuli/sounds/bleep.wav","null","","","","","","",""
"","","","","","html-keyboard-response","57","2.0.0","74323","phwtws43a2j","ono","antelope","23\","female","no","no","0","10","500","<div style=""font-size:30px;"">Press space to start the trial</div>"," ","","","","","","",""
"","","","","","html-keyboard-response","58","2.0.0","74586","phwtws43a2j","ono","antelope","23\","female","no","no","0","10","null","<div style=""font-size:60px;"">+</div>","null","","","","","","",""
"","","","","","audio-keyboard-response","59","2.0.0","75131","phwtws43a2j","ono","antelope","23\","female","no","no","0","10","null","stimuli/sounds/hiccup_label_A.wav","null","","","","","","",""
"","","","","","html-keyboard-response","60","2.0.0","76145","phwtws43a2j","ono","antelope","23\","female","no","no","0","10","null","","null","","","","","","",""
"","","","","","image-keyboard-response","61","2.0.0","77165","phwtws43a2j","ono","antelope","23\","female","no","no","0","10","1018","stimuli/pictures/hiccup_wom_1.jpg","1","1","","true","yes","sound","stimuli/sounds/hiccup_label_A.wav",""
"","","","","","audio-keyboard-response","62","2.0.0","78183","phwtws43a2j","ono","antelope","23\","female","no","no","0","10","null","stimuli/sounds/bleep.wav","null","","","","","","",""
"","","","","","html-keyboard-response","63","2.0.0","78980","phwtws43a2j","ono","antelope","23\","female","no","no","0","10","686","<div style=""font-size:30px;"">Press space to start the trial</div>"," ","","","","","","",""
"","","","","","html-keyboard-response","64","2.0.0","79241","phwtws43a2j","ono","antelope","23\","female","no","no","0","10","null","<div style=""font-size:60px;"">+</div>","null","","","","","","",""
"","","","","","audio-keyboard-response","65","2.0.0","79791","phwtws43a2j","ono","antelope","23\","female","no","no","0","10","null","stimuli/sounds/drop_label_A.wav","null","","","","","","",""
"","","","","","html-keyboard-response","66","2.0.0","80799","phwtws43a2j","ono","antelope","23\","female","no","no","0","10","null","","null","","","","","","",""
"","","","","","image-keyboard-response","67","2.0.0","83610","phwtws43a2j","ono","antelope","23\","female","no","no","0","10","2810","stimuli/pictures/hiccup_man_2.jpg","0","0","","true","no","sound","stimuli/sounds/drop_label_A.wav",""
"","","","","","audio-keyboard-response","68","2.0.0","84621","phwtws43a2j","ono","antelope","23\","female","no","no","0","10","null","stimuli/sounds/bleep.wav","null","","","","","","",""
"","","","","","html-keyboard-response","69","2.0.0","85382","phwtws43a2j","ono","antelope","23\","female","no","no","0","10","651","<div style=""font-size:30px;"">Press space to start the trial</div>"," ","","","","","","",""
"","","","","","html-keyboard-response","70","2.0.0","85635","phwtws43a2j","ono","antelope","23\","female","no","no","0","10","null","<div style=""font-size:60px;"">+</div>","null","","","","","","",""
"","","","","","audio-keyboard-response","71","2.0.0","86261","phwtws43a2j","ono","antelope","23\","female","no","no","0","10","null","stimuli/sounds/cough_label_A.wav","null","","","","","","",""
"","","","","","html-keyboard-response","72","2.0.0","87267","phwtws43a2j","ono","antelope","23\","female","no","no","0","10","null","","null","","","","","","",""
"","","","","","image-keyboard-response","73","2.0.0","88178","phwtws43a2j","ono","antelope","23\","female","no","no","0","10","909","stimuli/pictures/cough_wom_1.jpg","1","1","","true","yes","sound","stimuli/sounds/cough_label_A.wav",""
"","","","","","audio-keyboard-response","74","2.0.0","89192","phwtws43a2j","ono","antelope","23\","female","no","no","0","10","null","stimuli/sounds/bleep.wav","null","","","","","","",""
"","","","","","html-keyboard-response","75","2.0.0","90054","phwtws43a2j","ono","antelope","23\","female","no","no","0","10","753","<div style=""font-size:30px;"">Press space to start the trial</div>"," ","","","","","","",""
"","","","","","html-keyboard-response","76","2.0.0","90313","phwtws43a2j","ono","antelope","23\","female","no","no","0","10","null","<div style=""font-size:60px;"">+</div>","null","","","","","","",""
"","","","","","audio-keyboard-response","77","2.0.0","90911","phwtws43a2j","ono","antelope","23\","female","no","no","0","10","null","stimuli/sounds/motor_label_B.wav","null","","","","","","",""
"","","","","","html-keyboard-response","78","2.0.0","91915","phwtws43a2j","ono","antelope","23\","female","no","no","0","10","null","","null","","","","","","",""
"","","","","","image-keyboard-response","79","2.0.0","92769","phwtws43a2j","ono","antelope","23\","female","no","no","0","10","852","stimuli/pictures/hiccup_man_2.jpg","0","0","","true","no","sound","stimuli/sounds/motor_label_B.wav",""
"","","","","","audio-keyboard-response","80","2.0.0","93782","phwtws43a2j","ono","antelope","23\","female","no","no","0","10","null","stimuli/sounds/bleep.wav","null","","","","","","",""
"","","","","","html-keyboard-response","81","2.0.0","94464","phwtws43a2j","ono","antelope","23\","female","no","no","0","10","572","<div style=""font-size:30px;"">Press space to start the trial</div>"," ","","","","","","",""
"","","","","","html-keyboard-response","82","2.0.0","94715","phwtws43a2j","ono","antelope","23\","female","no","no","0","10","null","<div style=""font-size:60px;"">+</div>","null","","","","","","",""
"","","","","","audio-keyboard-response","83","2.0.0","95311","phwtws43a2j","ono","antelope","23\","female","no","no","0","10","null","stimuli/sounds/dog_label_B.wav","null","","","","","","",""
"","","","","","html-keyboard-response","84","2.0.0","96318","phwtws43a2j","ono","antelope","23\","female","no","no","0","10","null","","null","","","","","","",""
"","","","","","image-keyboard-response","85","2.0.0","96884","phwtws43a2j","ono","antelope","23\","female","no","no","0","10","564","stimuli/pictures/dog_york_1.jpg","1","1","","true","yes","sound","stimuli/sounds/dog_label_B.wav",""
"","","","","","audio-keyboard-response","86","2.0.0","97892","phwtws43a2j","ono","antelope","23\","female","no","no","0","10","null","stimuli/sounds/bleep.wav","null","","","","","","",""
"","","","","","html-keyboard-response","87","2.0.0","98309","phwtws43a2j","ono","antelope","23\","female","no","no","0","10","310","<div style=""font-size:30px;"">Press space to start the trial</div>"," ","","","","","","",""
"","","","","","html-keyboard-response","88","2.0.0","98571","phwtws43a2j","ono","antelope","23\","female","no","no","0","10","null","<div style=""font-size:60px;"">+</div>","null","","","","","","",""
"","","","","","audio-keyboard-response","89","2.0.0","99171","phwtws43a2j","ono","antelope","23\","female","no","no","0","10","null","stimuli/sounds/dog_label_B.wav","null","","","","","","",""
"","","","","","html-keyboard-response","90","2.0.0","100175","phwtws43a2j","ono","antelope","23\","female","no","no","0","10","null","","null","","","","","","",""
"","","","","","image-keyboard-response","91","2.0.0","100714","phwtws43a2j","ono","antelope","23\","female","no","no","0","10","536","stimuli/pictures/cough_wom_1.jpg","0","0","","true","no","sound","stimuli/sounds/dog_label_B.wav",""
"","","","","","audio-keyboard-response","92","2.0.0","101716","phwtws43a2j","ono","antelope","23\","female","no","no","0","10","null","stimuli/sounds/bleep.wav","null","","","","","","",""
"","","","","","html-keyboard-response","93","2.0.0","102188","phwtws43a2j","ono","antelope","23\","female","no","no","0","10","361","<div style=""font-size:30px;"">Press space to start the trial</div>"," ","","","","","","",""
"","","","","","html-keyboard-response","94","2.0.0","102444","phwtws43a2j","ono","antelope","23\","female","no","no","0","10","null","<div style=""font-size:60px;"">+</div>","null","","","","","","",""
"","","","","","audio-keyboard-response","95","2.0.0","103042","phwtws43a2j","ono","antelope","23\","female","no","no","0","10","null","stimuli/sounds/drop_sound_A.wav","null","","","","","","",""
"","","","","","html-keyboard-response","96","2.0.0","104049","phwtws43a2j","ono","antelope","23\","female","no","no","0","10","null","","null","","","","","","",""
"","","","","","image-keyboard-response","97","2.0.0","104558","phwtws43a2j","ono","antelope","23\","female","no","no","0","10","507","stimuli/pictures/cough_man_2.jpg","0","0","","true","no","sound","stimuli/sounds/drop_sound_A.wav",""
"","","","","","audio-keyboard-response","98","2.0.0","105565","phwtws43a2j","ono","antelope","23\","female","no","no","0","10","null","stimuli/sounds/bleep.wav","null","","","","","","",""
"","","","","","html-keyboard-response","99","2.0.0","106119","phwtws43a2j","ono","antelope","23\","female","no","no","0","10","444","<div style=""font-size:30px;"">Press space to start the trial</div>"," ","","","","","","",""
"","","","","","html-keyboard-response","100","2.0.0","106370","phwtws43a2j","ono","antelope","23\","female","no","no","0","10","null","<div style=""font-size:60px;"">+</div>","null","","","","","","",""
"","","","","","audio-keyboard-response","101","2.0.0","106982","phwtws43a2j","ono","antelope","23\","female","no","no","0","10","null","stimuli/sounds/hiccup_label_B.wav","null","","","","","","",""
"","","","","","html-keyboard-response","102","2.0.0","107994","phwtws43a2j","ono","antelope","23\","female","no","no","0","10","null","","null","","","","","","",""
"","","","","","image-keyboard-response","103","2.0.0","108605","phwtws43a2j","ono","antelope","23\","female","no","no","0","10","610","stimuli/pictures/dog_rott_1.jpg","0","0","","true","no","sound","stimuli/sounds/hiccup_label_B.wav",""
"","","","","","audio-keyboard-response","104","2.0.0","109612","phwtws43a2j","ono","antelope","23\","female","no","no","0","10","null","stimuli/sounds/bleep.wav","null","","","","","","",""
"","","","","","html-keyboard-response","105","2.0.0","110325","phwtws43a2j","ono","antelope","23\","female","no","no","0","10","603","<div style=""font-size:30px;"">Press space to start the trial</div>"," ","","","","","","",""
"","","","","","html-keyboard-response","106","2.0.0","110581","phwtws43a2j","ono","antelope","23\","female","no","no","0","10","null","<div style=""font-size:60px;"">+</div>","null","","","","","","",""
"","","","","","audio-keyboard-response","107","2.0.0","111182","phwtws43a2j","ono","antelope","23\","female","no","no","0","10","null","stimuli/sounds/motor_label_B.wav","null","","","","","","",""
"","","","","","html-keyboard-response","108","2.0.0","112188","phwtws43a2j","ono","antelope","23\","female","no","no","0","10","null","","null","","","","","","",""
"","","","","","image-keyboard-response","109","2.0.0","113013","phwtws43a2j","ono","antelope","23\","female","no","no","0","10","822","stimuli/pictures/hiccup_wom_1.jpg","0","0","","true","no","sound","stimuli/sounds/motor_label_B.wav",""
"","","","","","audio-keyboard-response","110","2.0.0","114023","phwtws43a2j","ono","antelope","23\","female","no","no","0","10","null","stimuli/sounds/bleep.wav","null","","","","","","",""
"","","","","","html-keyboard-response","111","2.0.0","114969","phwtws43a2j","ono","antelope","23\","female","no","no","0","10","837","<div style=""font-size:30px;"">Press space to start the trial</div>"," ","","","","","","",""
"","","","","","html-keyboard-response","112","2.0.0","115222","phwtws43a2j","ono","antelope","23\","female","no","no","0","10","null","<div style=""font-size:60px;"">+</div>","null","","","","","","",""
"","","","","","audio-keyboard-response","113","2.0.0","115831","phwtws43a2j","ono","antelope","23\","female","no","no","0","10","null","stimuli/sounds/drop_label_B.wav","null","","","","","","",""
"","","","","","html-keyboard-response","114","2.0.0","116842","phwtws43a2j","ono","antelope","23\","female","no","no","0","10","null","","null","","","","","","",""
"","","","","","image-keyboard-response","115","2.0.0","117240","phwtws43a2j","ono","antelope","23\","female","no","no","0","10","396","stimuli/pictures/motor_dirt_1.jpg","0","0","","true","no","sound","stimuli/sounds/drop_label_B.wav",""
"","","","","","audio-keyboard-response","116","2.0.0","118250","phwtws43a2j","ono","antelope","23\","female","no","no","0","10","null","stimuli/sounds/bleep.wav","null","","","","","","",""
"","","","","","html-keyboard-response","117","2.0.0","118716","phwtws43a2j","ono","antelope","23\","female","no","no","0","10","358","<div style=""font-size:30px;"">Press space to start the trial</div>"," ","","","","","","",""
"","","","","","html-keyboard-response","118","2.0.0","118979","phwtws43a2j","ono","antelope","23\","female","no","no","0","10","null","<div style=""font-size:60px;"">+</div>","null","","","","","","",""
"","","","","","audio-keyboard-response","119","2.0.0","119581","phwtws43a2j","ono","antelope","23\","female","no","no","0","10","null","stimuli/sounds/motor_sound_A.wav","null","","","","","","",""
"","","","","","html-keyboard-response","120","2.0.0","120593","phwtws43a2j","ono","antelope","23\","female","no","no","0","10","null","","null","","","","","","",""
"","","","","","image-keyboard-response","121","2.0.0","122417","phwtws43a2j","ono","antelope","23\","female","no","no","0","10","1823","stimuli/pictures/drop_single_2.jpg","0","0","","true","no","sound","stimuli/sounds/motor_sound_A.wav",""
"","","","","","audio-keyboard-response","122","2.0.0","123424","phwtws43a2j","ono","antelope","23\","female","no","no","0","10","null","stimuli/sounds/bleep.wav","null","","","","","","",""
"","","","","","html-keyboard-response","123","2.0.0","124165","phwtws43a2j","ono","antelope","23\","female","no","no","0","10","630","<div style=""font-size:30px;"">Press space to start the trial</div>"," ","","","","","","",""
"","","","","","html-keyboard-response","124","2.0.0","124419","phwtws43a2j","ono","antelope","23\","female","no","no","0","10","null","<div style=""font-size:60px;"">+</div>","null","","","","","","",""
"","","","","","audio-keyboard-response","125","2.0.0","125021","phwtws43a2j","ono","antelope","23\","female","no","no","0","10","null","stimuli/sounds/drop_sound_B.wav","null","","","","","","",""
"","","","","","html-keyboard-response","126","2.0.0","126023","phwtws43a2j","ono","antelope","23\","female","no","no","0","10","null","","null","","","","","","",""
"","","","","","image-keyboard-response","127","2.0.0","126876","phwtws43a2j","ono","antelope","23\","female","no","no","0","10","849","stimuli/pictures/dog_rott_1.jpg","0","0","","true","no","sound","stimuli/sounds/drop_sound_B.wav",""
"","","","","","audio-keyboard-response","128","2.0.0","127893","phwtws43a2j","ono","antelope","23\","female","no","no","0","10","null","stimuli/sounds/bleep.wav","null","","","","","","",""
"","","","","","html-keyboard-response","129","2.0.0","128638","phwtws43a2j","ono","antelope","23\","female","no","no","0","10","635","<div style=""font-size:30px;"">Press space to start the trial</div>"," ","","","","","","",""
"","","","","","html-keyboard-response","130","2.0.0","128905","phwtws43a2j","ono","antelope","23\","female","no","no","0","10","null","<div style=""font-size:60px;"">+</div>","null","","","","","","",""
"","","","","","audio-keyboard-response","131","2.0.0","129511","phwtws43a2j","ono","antelope","23\","female","no","no","0","10","null","stimuli/sounds/hiccup_sound_A.wav","null","","","","","","",""
"","","","","","html-keyboard-response","132","2.0.0","130525","phwtws43a2j","ono","antelope","23\","female","no","no","0","10","null","","null","","","","","","",""
"","","","","","image-keyboard-response","133","2.0.0","131496","phwtws43a2j","ono","antelope","23\","female","no","no","0","10","969","stimuli/pictures/motor_dirt_2.jpg","0","0","","true","no","sound","stimuli/sounds/hiccup_sound_A.wav",""
"","","","","","audio-keyboard-response","134","2.0.0","132502","phwtws43a2j","ono","antelope","23\","female","no","no","0","10","null","stimuli/sounds/bleep.wav","null","","","","","","",""
"","","","","","html-keyboard-response","135","2.0.0","133314","phwtws43a2j","ono","antelope","23\","female","no","no","0","10","702","<div style=""font-size:30px;"">Press space to start the trial</div>"," ","","","","","","",""
"","","","","","html-keyboard-response","136","2.0.0","133573","phwtws43a2j","ono","antelope","23\","female","no","no","0","10","null","<div style=""font-size:60px;"">+</div>","null","","","","","","",""
"","","","","","audio-keyboard-response","137","2.0.0","134242","phwtws43a2j","ono","antelope","23\","female","no","no","0","10","null","stimuli/sounds/cough_sound_A.wav","null","","","","","","",""
"","","","","","html-keyboard-response","138","2.0.0","135257","phwtws43a2j","ono","antelope","23\","female","no","no","0","10","null","","null","","","","","","",""
"","","","","","image-keyboard-response","139","2.0.0","136091","phwtws43a2j","ono","antelope","23\","female","no","no","0","10","831","stimuli/pictures/dog_rott_1.jpg","0","0","","true","no","sound","stimuli/sounds/cough_sound_A.wav",""
"","","","","","audio-keyboard-response","140","2.0.0","137096","phwtws43a2j","ono","antelope","23\","female","no","no","0","10","null","stimuli/sounds/bleep.wav","null","","","","","","",""
"","","","","","html-keyboard-response","141","2.0.0","137564","phwtws43a2j","ono","antelope","23\","female","no","no","0","10","357","<div style=""font-size:30px;"">Press space to start the trial</div>"," ","","","","","","",""
"","","","","","html-keyboard-response","142","2.0.0","137830","phwtws43a2j","ono","antelope","23\","female","no","no","0","10","null","<div style=""font-size:60px;"">+</div>","null","","","","","","",""
"","","","","","audio-keyboard-response","143","2.0.0","138371","phwtws43a2j","ono","antelope","23\","female","no","no","0","10","null","stimuli/sounds/hiccup_label_A.wav","null","","","","","","",""
"","","","","","html-keyboard-response","144","2.0.0","139386","phwtws43a2j","ono","antelope","23\","female","no","no","0","10","null","","null","","","","","","",""
"","","","","","image-keyboard-response","145","2.0.0","139919","phwtws43a2j","ono","antelope","23\","female","no","no","0","10","531","stimuli/pictures/cough_man_2.jpg","1","0","","false","no","sound","stimuli/sounds/hiccup_label_A.wav",""
"","","","","","audio-keyboard-response","146","2.0.0","140928","phwtws43a2j","ono","antelope","23\","female","no","no","0","10","null","stimuli/sounds/buzz.wav","null","","","","","","",""
"","","","","","html-keyboard-response","147","2.0.0","149805","phwtws43a2j","ono","antelope","23\","female","no","no","0","10","8765","<p>You have completed a block. Press R when you are ready to continue</p>","r","","","","","","",""
"","","","","","html-keyboard-response","148","2.0.0","151463","phwtws43a2j","ono","antelope","23\","female","no","no","0","10","1657","<div style=""font-size:30px;"">Press space to start the trial</div>"," ","","","","","","",""
"","","","","","html-keyboard-response","149","2.0.0","151718","phwtws43a2j","ono","antelope","23\","female","no","no","0","10","null","<div style=""font-size:60px;"">+</div>","null","","","","","","",""
"","","","","","audio-keyboard-response","150","2.0.0","152371","phwtws43a2j","ono","antelope","23\","female","no","no","0","10","null","stimuli/sounds/cough_sound_A.wav","null","","","","","","",""
"","","","","","html-keyboard-response","151","2.0.0","153386","phwtws43a2j","ono","antelope","23\","female","no","no","0","10","null","","null","","","","","","",""
"","","","","","image-keyboard-response","152","2.0.0","154051","phwtws43a2j","ono","antelope","23\","female","no","no","0","10","663","stimuli/pictures/dog_york_2.jpg","0","0","","true","no","sound","stimuli/sounds/cough_sound_A.wav",""
"","","","","","audio-keyboard-response","153","2.0.0","155054","phwtws43a2j","ono","antelope","23\","female","no","no","0","10","null","stimuli/sounds/bleep.wav","null","","","","","","",""
"","","","","","html-keyboard-response","154","2.0.0","155802","phwtws43a2j","ono","antelope","23\","female","no","no","0","10","640","<div style=""font-size:30px;"">Press space to start the trial</div>"," ","","","","","","",""
"","","","","","html-keyboard-response","155","2.0.0","156062","phwtws43a2j","ono","antelope","23\","female","no","no","0","10","null","<div style=""font-size:60px;"">+</div>","null","","","","","","",""
"","","","","","audio-keyboard-response","156","2.0.0","156681","phwtws43a2j","ono","antelope","23\","female","no","no","0","10","null","stimuli/sounds/cough_label_B.wav","null","","","","","","",""
"","","","","","html-keyboard-response","157","2.0.0","157683","phwtws43a2j","ono","antelope","23\","female","no","no","0","10","null","","null","","","","","","",""
"","","","","","image-keyboard-response","158","2.0.0","158334","phwtws43a2j","ono","antelope","23\","female","no","no","0","10","649","stimuli/pictures/drop_multi_1.jpg","0","0","","true","no","sound","stimuli/sounds/cough_label_B.wav",""
"","","","","","audio-keyboard-response","159","2.0.0","159336","phwtws43a2j","ono","antelope","23\","female","no","no","0","10","null","stimuli/sounds/bleep.wav","null","","","","","","",""
"","","","","","html-keyboard-response","160","2.0.0","159723","phwtws43a2j","ono","antelope","23\","female","no","no","0","10","279","<div style=""font-size:30px;"">Press space to start the trial</div>"," ","","","","","","",""
"","","","","","html-keyboard-response","161","2.0.0","159986","phwtws43a2j","ono","antelope","23\","female","no","no","0","10","null","<div style=""font-size:60px;"">+</div>","null","","","","","","",""
"","","","","","audio-keyboard-response","162","2.0.0","160671","phwtws43a2j","ono","antelope","23\","female","no","no","0","10","null","stimuli/sounds/cough_sound_B.wav","null","","","","","","",""
"","","","","","html-keyboard-response","163","2.0.0","161685","phwtws43a2j","ono","antelope","23\","female","no","no","0","10","null","","null","","","","","","",""
"","","","","","image-keyboard-response","164","2.0.0","162529","phwtws43a2j","ono","antelope","23\","female","no","no","0","10","842","stimuli/pictures/hiccup_wom_2.jpg","1","0","","false","no","sound","stimuli/sounds/cough_sound_B.wav",""
"","","","","","audio-keyboard-response","165","2.0.0","163542","phwtws43a2j","ono","antelope","23\","female","no","no","0","10","null","stimuli/sounds/buzz.wav","null","","","","","","",""
"","","","","","html-keyboard-response","166","2.0.0","163940","phwtws43a2j","ono","antelope","23\","female","no","no","0","10","289","<div style=""font-size:30px;"">Press space to start the trial</div>"," ","","","","","","",""
"","","","","","html-keyboard-response","167","2.0.0","164195","phwtws43a2j","ono","antelope","23\","female","no","no","0","10","null","<div style=""font-size:60px;"">+</div>","null","","","","","","",""
"","","","","","audio-keyboard-response","168","2.0.0","164791","phwtws43a2j","ono","antelope","23\","female","no","no","0","10","null","stimuli/sounds/drop_sound_B.wav","null","","","","","","",""
"","","","","","html-keyboard-response","169","2.0.0","165796","phwtws43a2j","ono","antelope","23\","female","no","no","0","10","null","","null","","","","","","",""
"","","","","","image-keyboard-response","170","2.0.0","166361","phwtws43a2j","ono","antelope","23\","female","no","no","0","10","562","stimuli/pictures/dog_york_2.jpg","0","0","","true","no","sound","stimuli/sounds/drop_sound_B.wav",""
"","","","","","audio-keyboard-response","171","2.0.0","167370","phwtws43a2j","ono","antelope","23\","female","no","no","0","10","null","stimuli/sounds/bleep.wav","null","","","","","","",""
"","","","","","html-keyboard-response","172","2.0.0","167814","phwtws43a2j","ono","antelope","23\","female","no","no","0","10","332","<div style=""font-size:30px;"">Press space to start the trial</div>"," ","","","","","","",""
"","","","","","html-keyboard-response","173","2.0.0","168072","phwtws43a2j","ono","antelope","23\","female","no","no","0","10","null","<div style=""font-size:60px;"">+</div>","null","","","","","","",""
"","","","","","audio-keyboard-response","174","2.0.0","168622","phwtws43a2j","ono","antelope","23\","female","no","no","0","10","null","stimuli/sounds/drop_label_A.wav","null","","","","","","",""
"","","","","","html-keyboard-response","175","2.0.0","169623","phwtws43a2j","ono","antelope","23\","female","no","no","0","10","null","","null","","","","","","",""
"","","","","","image-keyboard-response","176","2.0.0","170176","phwtws43a2j","ono","antelope","23\","female","no","no","0","10","551","stimuli/pictures/hiccup_wom_2.jpg","0","0","","true","no","sound","stimuli/sounds/drop_label_A.wav",""
"","","","","","audio-keyboard-response","177","2.0.0","171179","phwtws43a2j","ono","antelope","23\","female","no","no","0","10","null","stimuli/sounds/bleep.wav","null","","","","","","",""
"","","","","","html-keyboard-response","178","2.0.0","171599","phwtws43a2j","ono","antelope","23\","female","no","no","0","10","310","<div style=""font-size:30px;"">Press space to start the trial</div>"," ","","","","","","",""
"","","","","","html-keyboard-response","179","2.0.0","171852","phwtws43a2j","ono","antelope","23\","female","no","no","0","10","null","<div style=""font-size:60px;"">+</div>","null","","","","","","",""
"","","","","","audio-keyboard-response","180","2.0.0","172471","phwtws43a2j","ono","antelope","23\","female","no","no","0","10","null","stimuli/sounds/cough_label_B.wav","null","","","","","","",""
"","","","","","html-keyboard-response","181","2.0.0","173486","phwtws43a2j","ono","antelope","23\","female","no","no","0","10","null","","null","","","","","","",""
"","","","","","image-keyboard-response","182","2.0.0","173992","phwtws43a2j","ono","antelope","23\","female","no","no","0","10","504","stimuli/pictures/drop_multi_2.jpg","0","0","","true","no","sound","stimuli/sounds/cough_label_B.wav",""
"","","","","","audio-keyboard-response","183","2.0.0","174996","phwtws43a2j","ono","antelope","23\","female","no","no","0","10","null","stimuli/sounds/bleep.wav","null","","","","","","",""
"","","","","","html-keyboard-response","184","2.0.0","175355","phwtws43a2j","ono","antelope","23\","female","no","no","0","10","249","<div style=""font-size:30px;"">Press space to start the trial</div>"," ","","","","","","",""
"","","","","","html-keyboard-response","185","2.0.0","175606","phwtws43a2j","ono","antelope","23\","female","no","no","0","10","null","<div style=""font-size:60px;"">+</div>","null","","","","","","",""
"","","","","","audio-keyboard-response","186","2.0.0","176201","phwtws43a2j","ono","antelope","23\","female","no","no","0","10","null","stimuli/sounds/hiccup_sound_B.wav","null","","","","","","",""
"","","","","","html-keyboard-response","187","2.0.0","177203","phwtws43a2j","ono","antelope","23\","female","no","no","0","10","null","","null","","","","","","",""
"","","","","","image-keyboard-response","188","2.0.0","177677","phwtws43a2j","ono","antelope","23\","female","no","no","0","10","471","stimuli/pictures/drop_single_2.jpg","0","0","","true","no","sound","stimuli/sounds/hiccup_sound_B.wav",""
"","","","","","audio-keyboard-response","189","2.0.0","178684","phwtws43a2j","ono","antelope","23\","female","no","no","0","10","null","stimuli/sounds/bleep.wav","null","","","","","","",""
"","","","","","html-keyboard-response","190","2.0.0","179232","phwtws43a2j","ono","antelope","23\","female","no","no","0","10","439","<div style=""font-size:30px;"">Press space to start the trial</div>"," ","","","","","","",""
"","","","","","html-keyboard-response","191","2.0.0","179494","phwtws43a2j","ono","antelope","23\","female","no","no","0","10","null","<div style=""font-size:60px;"">+</div>","null","","","","","","",""
"","","","","","audio-keyboard-response","192","2.0.0","180101","phwtws43a2j","ono","antelope","23\","female","no","no","0","10","null","stimuli/sounds/dog_sound_B.wav","null","","","","","","",""
"","","","","","html-keyboard-response","193","2.0.0","181107","phwtws43a2j","ono","antelope","23\","female","no","no","0","10","null","","null","","","","","","",""
"","","","","","image-keyboard-response","194","2.0.0","181376","phwtws43a2j","ono","antelope","23\","female","no","no","0","10","267","stimuli/pictures/dog_rott_1.jpg","1","1","","true","no","sound","stimuli/sounds/dog_sound_B.wav",""
"","","","","","audio-keyboard-response","195","2.0.0","182387","phwtws43a2j","ono","antelope","23\","female","no","no","0","10","null","stimuli/sounds/bleep.wav","null","","","","","","",""
"","","","","","html-keyboard-response","196","2.0.0","182825","phwtws43a2j","ono","antelope","23\","female","no","no","0","10","329","<div style=""font-size:30px;"">Press space to start the trial</div>"," ","","","","","","",""
"","","","","","html-keyboard-response","197","2.0.0","183090","phwtws43a2j","ono","antelope","23\","female","no","no","0","10","null","<div style=""font-size:60px;"">+</div>","null","","","","","","",""
"","","","","","audio-keyboard-response","198","2.0.0","183691","phwtws43a2j","ono","antelope","23\","female","no","no","0","10","null","stimuli/sounds/hiccup_sound_A.wav","null","","","","","","",""
"","","","","","html-keyboard-response","199","2.0.0","184705","phwtws43a2j","ono","antelope","23\","female","no","no","0","10","null","","null","","","","","","",""
"","","","","","image-keyboard-response","200","2.0.0","186063","phwtws43a2j","ono","antelope","23\","female","no","no","0","10","1355","stimuli/pictures/hiccup_man_1.jpg","0","1","","false","no","sound","stimuli/sounds/hiccup_sound_A.wav",""
"","","","","","audio-keyboard-response","201","2.0.0","187069","phwtws43a2j","ono","antelope","23\","female","no","no","0","10","null","stimuli/sounds/buzz.wav","null","","","","","","",""
"","","","","","html-keyboard-response","202","2.0.0","187454","phwtws43a2j","ono","antelope","23\","female","no","no","0","10","275","<div style=""font-size:30px;"">Press space to start the trial</div>"," ","","","","","","",""
"","","","","","html-keyboard-response","203","2.0.0","187712","phwtws43a2j","ono","antelope","23\","female","no","no","0","10","null","<div style=""font-size:60px;"">+</div>","null","","","","","","",""
"","","","","","audio-keyboard-response","204","2.0.0","188311","phwtws43a2j","ono","antelope","23\","female","no","no","0","10","null","stimuli/sounds/dog_sound_B.wav","null","","","","","","",""
"","","","","","html-keyboard-response","205","2.0.0","189314","phwtws43a2j","ono","antelope","23\","female","no","no","0","10","null","","null","","","","","","",""
"","","","","","image-keyboard-response","206","2.0.0","189755","phwtws43a2j","ono","antelope","23\","female","no","no","0","10","439","stimuli/pictures/motor_dirt_1.jpg","0","0","","true","no","sound","stimuli/sounds/dog_sound_B.wav",""
"","","","","","audio-keyboard-response","207","2.0.0","190760","phwtws43a2j","ono","antelope","23\","female","no","no","0","10","null","stimuli/sounds/bleep.wav","null","","","","","","",""
"","","","","","html-keyboard-response","208","2.0.0","191142","phwtws43a2j","ono","antelope","23\","female","no","no","0","10","272","<div style=""font-size:30px;"">Press space to start the trial</div>"," ","","","","","","",""
"","","","","","html-keyboard-response","209","2.0.0","191398","phwtws43a2j","ono","antelope","23\","female","no","no","0","10","null","<div style=""font-size:60px;"">+</div>","null","","","","","","",""
"","","","","","audio-keyboard-response","210","2.0.0","192032","phwtws43a2j","ono","antelope","23\","female","no","no","0","10","null","stimuli/sounds/cough_label_A.wav","null","","","","","","",""
"","","","","","html-keyboard-response","211","2.0.0","193045","phwtws43a2j","ono","antelope","23\","female","no","no","0","10","null","","null","","","","","","",""
"","","","","","image-keyboard-response","212","2.0.0","193596","phwtws43a2j","ono","antelope","23\","female","no","no","0","10","548","stimuli/pictures/cough_man_2.jpg","1","1","","true","yes","sound","stimuli/sounds/cough_label_A.wav",""
"","","","","","audio-keyboard-response","213","2.0.0","194599","phwtws43a2j","ono","antelope","23\","female","no","no","0","10","null","stimuli/sounds/bleep.wav","null","","","","","","",""
"","","","","","html-keyboard-response","214","2.0.0","195460","phwtws43a2j","ono","antelope","23\","female","no","no","0","10","750","<div style=""font-size:30px;"">Press space to start the trial</div>"," ","","","","","","",""
"","","","","","html-keyboard-response","215","2.0.0","195723","phwtws43a2j","ono","antelope","23\","female","no","no","0","10","null","<div style=""font-size:60px;"">+</div>","null","","","","","","",""
"","","","","","audio-keyboard-response","216","2.0.0","196331","phwtws43a2j","ono","antelope","23\","female","no","no","0","10","null","stimuli/sounds/dog_sound_A.wav","null","","","","","","",""
"","","","","","html-keyboard-response","217","2.0.0","197342","phwtws43a2j","ono","antelope","23\","female","no","no","0","10","null","","null","","","","","","",""
"","","","","","image-keyboard-response","218","2.0.0","198101","phwtws43a2j","ono","antelope","23\","female","no","no","0","10","757","stimuli/pictures/dog_rott_2.jpg","1","1","","true","yes","sound","stimuli/sounds/dog_sound_A.wav",""
"","","","","","audio-keyboard-response","219","2.0.0","199114","phwtws43a2j","ono","antelope","23\","female","no","no","0","10","null","stimuli/sounds/bleep.wav","null","","","","","","",""
"","","","","","html-keyboard-response","220","2.0.0","199579","phwtws43a2j","ono","antelope","23\","female","no","no","0","10","356","<div style=""font-size:30px;"">Press space to start the trial</div>"," ","","","","","","",""
"","","","","","html-keyboard-response","221","2.0.0","199843","phwtws43a2j","ono","antelope","23\","female","no","no","0","10","null","<div style=""font-size:60px;"">+</div>","null","","","","","","",""
"","","","","","audio-keyboard-response","222","2.0.0","200441","phwtws43a2j","ono","antelope","23\","female","no","no","0","10","null","stimuli/sounds/motor_label_A.wav","null","","","","","","",""
"","","","","","html-keyboard-response","223","2.0.0","201451","phwtws43a2j","ono","antelope","23\","female","no","no","0","10","null","","null","","","","","","",""
"","","","","","image-keyboard-response","224","2.0.0","201894","phwtws43a2j","ono","antelope","23\","female","no","no","0","10","440","stimuli/pictures/motor_harley_1.jpg","1","1","","true","yes","sound","stimuli/sounds/motor_label_A.wav",""
"","","","","","audio-keyboard-response","225","2.0.0","202899","phwtws43a2j","ono","antelope","23\","female","no","no","0","10","null","stimuli/sounds/bleep.wav","null","","","","","","",""
"","","","","","html-keyboard-response","226","2.0.0","203413","phwtws43a2j","ono","antelope","23\","female","no","no","0","10","404","<div style=""font-size:30px;"">Press space to start the trial</div>"," ","","","","","","",""
"","","","","","html-keyboard-response","227","2.0.0","203676","phwtws43a2j","ono","antelope","23\","female","no","no","0","10","null","<div style=""font-size:60px;"">+</div>","null","","","","","","",""
"","","","","","audio-keyboard-response","228","2.0.0","204281","phwtws43a2j","ono","antelope","23\","female","no","no","0","10","null","stimuli/sounds/drop_label_B.wav","null","","","","","","",""
"","","","","","html-keyboard-response","229","2.0.0","205298","phwtws43a2j","ono","antelope","23\","female","no","no","0","10","null","","null","","","","","","",""
"","","","","","image-keyboard-response","230","2.0.0","206342","phwtws43a2j","ono","antelope","23\","female","no","no","0","10","1042","stimuli/pictures/motor_dirt_2.jpg","0","0","","true","no","sound","stimuli/sounds/drop_label_B.wav",""
"","","","","","audio-keyboard-response","231","2.0.0","207353","phwtws43a2j","ono","antelope","23\","female","no","no","0","10","null","stimuli/sounds/bleep.wav","null","","","","","","",""
"","","","","","html-keyboard-response","232","2.0.0","208051","phwtws43a2j","ono","antelope","23\","female","no","no","0","10","588","<div style=""font-size:30px;"">Press space to start the trial</div>"," ","","","","","","",""
"","","","","","html-keyboard-response","233","2.0.0","208317","phwtws43a2j","ono","antelope","23\","female","no","no","0","10","null","<div style=""font-size:60px;"">+</div>","null","","","","","","",""
"","","","","","audio-keyboard-response","234","2.0.0","208911","phwtws43a2j","ono","antelope","23\","female","no","no","0","10","null","stimuli/sounds/drop_sound_B.wav","null","","","","","","",""
"","","","","","html-keyboard-response","235","2.0.0","209922","phwtws43a2j","ono","antelope","23\","female","no","no","0","10","null","","null","","","","","","",""
"","","","","","image-keyboard-response","236","2.0.0","210929","phwtws43a2j","ono","antelope","23\","female","no","no","0","10","1004","stimuli/pictures/drop_multi_1.jpg","1","1","","true","yes","sound","stimuli/sounds/drop_sound_B.wav",""
"","","","","","audio-keyboard-response","237","2.0.0","211932","phwtws43a2j","ono","antelope","23\","female","no","no","0","10","null","stimuli/sounds/bleep.wav","null","","","","","","",""
"","","","","","html-keyboard-response","238","2.0.0","212684","phwtws43a2j","ono","antelope","23\","female","no","no","0","10","644","<div style=""font-size:30px;"">Press space to start the trial</div>"," ","","","","","","",""
"","","","","","html-keyboard-response","239","2.0.0","212943","phwtws43a2j","ono","antelope","23\","female","no","no","0","10","null","<div style=""font-size:60px;"">+</div>","null","","","","","","",""
"","","","","","audio-keyboard-response","240","2.0.0","213542","phwtws43a2j","ono","antelope","23\","female","no","no","0","10","null","stimuli/sounds/motor_sound_B.wav","null","","","","","","",""
"","","","","","html-keyboard-response","241","2.0.0","214544","phwtws43a2j","ono","antelope","23\","female","no","no","0","10","null","","null","","","","","","",""
"","","","","","image-keyboard-response","242","2.0.0","215063","phwtws43a2j","ono","antelope","23\","female","no","no","0","10","517","stimuli/pictures/cough_man_1.jpg","0","0","","true","no","sound","stimuli/sounds/motor_sound_B.wav",""
"","","","","","audio-keyboard-response","243","2.0.0","216068","phwtws43a2j","ono","antelope","23\","female","no","no","0","10","null","stimuli/sounds/bleep.wav","null","","","","","","",""
"","","","","","html-keyboard-response","244","2.0.0","216412","phwtws43a2j","ono","antelope","23\","female","no","no","0","10","234","<div style=""font-size:30px;"">Press space to start the trial</div>"," ","","","","","","",""
"","","","","","html-keyboard-response","245","2.0.0","216676","phwtws43a2j","ono","antelope","23\","female","no","no","0","10","null","<div style=""font-size:60px;"">+</div>","null","","","","","","",""
"","","","","","audio-keyboard-response","246","2.0.0","217282","phwtws43a2j","ono","antelope","23\","female","no","no","0","10","null","stimuli/sounds/drop_sound_B.wav","null","","","","","","",""
"","","","","","html-keyboard-response","247","2.0.0","218291","phwtws43a2j","ono","antelope","23\","female","no","no","0","10","null","","null","","","","","","",""
"","","","","","image-keyboard-response","248","2.0.0","218930","phwtws43a2j","ono","antelope","23\","female","no","no","0","10","637","stimuli/pictures/drop_multi_2.jpg","0","1","","false","yes","sound","stimuli/sounds/drop_sound_B.wav",""
"","","","","","audio-keyboard-response","249","2.0.0","219936","phwtws43a2j","ono","antelope","23\","female","no","no","0","10","null","stimuli/sounds/buzz.wav","null","","","","","","",""
"","","","","","html-keyboard-response","250","2.0.0","220370","phwtws43a2j","ono","antelope","23\","female","no","no","0","10","323","<div style=""font-size:30px;"">Press space to start the trial</div>"," ","","","","","","",""
"","","","","","html-keyboard-response","251","2.0.0","220623","phwtws43a2j","ono","antelope","23\","female","no","no","0","10","null","<div style=""font-size:60px;"">+</div>","null","","","","","","",""
"","","","","","audio-keyboard-response","252","2.0.0","221292","phwtws43a2j","ono","antelope","23\","female","no","no","0","10","null","stimuli/sounds/cough_sound_A.wav","null","","","","","","",""
"","","","","","html-keyboard-response","253","2.0.0","222297","phwtws43a2j","ono","antelope","23\","female","no","no","0","10","null","","null","","","","","","",""
"","","","","","image-keyboard-response","254","2.0.0","222779","phwtws43a2j","ono","antelope","23\","female","no","no","0","10","480","stimuli/pictures/dog_york_1.jpg","0","0","","true","no","sound","stimuli/sounds/cough_sound_A.wav",""
"","","","","","audio-keyboard-response","255","2.0.0","223793","phwtws43a2j","ono","antelope","23\","female","no","no","0","10","null","stimuli/sounds/bleep.wav","null","","","","","","",""
"","","","","","html-keyboard-response","256","2.0.0","224211","phwtws43a2j","ono","antelope","23\","female","no","no","0","10","308","<div style=""font-size:30px;"">Press space to start the trial</div>"," ","","","","","","",""
"","","","","","html-keyboard-response","257","2.0.0","224474","phwtws43a2j","ono","antelope","23\","female","no","no","0","10","null","<div style=""font-size:60px;"">+</div>","null","","","","","","",""
"","","","","","audio-keyboard-response","258","2.0.0","225071","phwtws43a2j","ono","antelope","23\","female","no","no","0","10","null","stimuli/sounds/dog_label_A.wav","null","","","","","","",""
"","","","","","html-keyboard-response","259","2.0.0","226077","phwtws43a2j","ono","antelope","23\","female","no","no","0","10","null","","null","","","","","","",""
"","","","","","image-keyboard-response","260","2.0.0","226681","phwtws43a2j","ono","antelope","23\","female","no","no","0","10","603","stimuli/pictures/dog_rott_2.jpg","1","1","","true","yes","sound","stimuli/sounds/dog_label_A.wav",""
"","","","","","audio-keyboard-response","261","2.0.0","227694","phwtws43a2j","ono","antelope","23\","female","no","no","0","10","null","stimuli/sounds/bleep.wav","null","","","","","","",""
"","","","","","html-keyboard-response","262","2.0.0","228066","phwtws43a2j","ono","antelope","23\","female","no","no","0","10","262","<div style=""font-size:30px;"">Press space to start the trial</div>"," ","","","","","","",""
"","","","","","html-keyboard-response","263","2.0.0","228317","phwtws43a2j","ono","antelope","23\","female","no","no","0","10","null","<div style=""font-size:60px;"">+</div>","null","","","","","","",""
"","","","","","audio-keyboard-response","264","2.0.0","228921","phwtws43a2j","ono","antelope","23\","female","no","no","0","10","null","stimuli/sounds/motor_label_A.wav","null","","","","","","",""
"","","","","","html-keyboard-response","265","2.0.0","229936","phwtws43a2j","ono","antelope","23\","female","no","no","0","10","null","","null","","","","","","",""
"","","","","","image-keyboard-response","266","2.0.0","230527","phwtws43a2j","ono","antelope","23\","female","no","no","0","10","590","stimuli/pictures/dog_york_1.jpg","0","0","","true","no","sound","stimuli/sounds/motor_label_A.wav",""
"","","","","","audio-keyboard-response","267","2.0.0","231541","phwtws43a2j","ono","antelope","23\","female","no","no","0","10","null","stimuli/sounds/bleep.wav","null","","","","","","",""
"","","","","","html-keyboard-response","268","2.0.0","233034","phwtws43a2j","ono","antelope","23\","female","no","no","0","10","1384","<p>You have completed a block. Press R when you are ready to continue</p>","r","","","","","","",""
"","","","","","html-keyboard-response","269","2.0.0","233598","phwtws43a2j","ono","antelope","23\","female","no","no","0","10","563","<div style=""font-size:30px;"">Press space to start the trial</div>"," ","","","","","","",""
"","","","","","html-keyboard-response","270","2.0.0","233856","phwtws43a2j","ono","antelope","23\","female","no","no","0","10","null","<div style=""font-size:60px;"">+</div>","null","","","","","","",""
"","","","","","audio-keyboard-response","271","2.0.0","234451","phwtws43a2j","ono","antelope","23\","female","no","no","0","10","null","stimuli/sounds/dog_label_B.wav","null","","","","","","",""
"","","","","","html-keyboard-response","272","2.0.0","235463","phwtws43a2j","ono","antelope","23\","female","no","no","0","10","null","","null","","","","","","",""
"","","","","","image-keyboard-response","273","2.0.0","235960","phwtws43a2j","ono","antelope","23\","female","no","no","0","10","495","stimuli/pictures/dog_york_2.jpg","1","1","","true","yes","sound","stimuli/sounds/dog_label_B.wav",""
"","","","","","audio-keyboard-response","274","2.0.0","236974","phwtws43a2j","ono","antelope","23\","female","no","no","0","10","null","stimuli/sounds/bleep.wav","null","","","","","","",""
"","","","","","html-keyboard-response","275","2.0.0","237334","phwtws43a2j","ono","antelope","23\","female","no","no","0","10","250","<div style=""font-size:30px;"">Press space to start the trial</div>"," ","","","","","","",""
"","","","","","html-keyboard-response","276","2.0.0","237599","phwtws43a2j","ono","antelope","23\","female","no","no","0","10","null","<div style=""font-size:60px;"">+</div>","null","","","","","","",""
"","","","","","audio-keyboard-response","277","2.0.0","238131","phwtws43a2j","ono","antelope","23\","female","no","no","0","10","null","stimuli/sounds/hiccup_label_A.wav","null","","","","","","",""
"","","","","","html-keyboard-response","278","2.0.0","239140","phwtws43a2j","ono","antelope","23\","female","no","no","0","10","null","","null","","","","","","",""
"","","","","","image-keyboard-response","279","2.0.0","239697","phwtws43a2j","ono","antelope","23\","female","no","no","0","10","557","stimuli/pictures/hiccup_wom_2.jpg","0","1","","false","yes","sound","stimuli/sounds/hiccup_label_A.wav",""
"","","","","","audio-keyboard-response","280","2.0.0","240708","phwtws43a2j","ono","antelope","23\","female","no","no","0","10","null","stimuli/sounds/buzz.wav","null","","","","","","",""
"","","","","","html-keyboard-response","281","2.0.0","241528","phwtws43a2j","ono","antelope","23\","female","no","no","0","10","709","<div style=""font-size:30px;"">Press space to start the trial</div>"," ","","","","","","",""
"","","","","","html-keyboard-response","282","2.0.0","241793","phwtws43a2j","ono","antelope","23\","female","no","no","0","10","null","<div style=""font-size:60px;"">+</div>","null","","","","","","",""
"","","","","","audio-keyboard-response","283","2.0.0","242391","phwtws43a2j","ono","antelope","23\","female","no","no","0","10","null","stimuli/sounds/drop_sound_A.wav","null","","","","","","",""
"","","","","","html-keyboard-response","284","2.0.0","243400","phwtws43a2j","ono","antelope","23\","female","no","no","0","10","null","","null","","","","","","",""
"","","","","","image-keyboard-response","285","2.0.0","244315","phwtws43a2j","ono","antelope","23\","female","no","no","0","10","913","stimuli/pictures/drop_single_1.jpg","1","1","","true","yes","sound","stimuli/sounds/drop_sound_A.wav",""
"","","","","","audio-keyboard-response","286","2.0.0","245327","phwtws43a2j","ono","antelope","23\","female","no","no","0","10","null","stimuli/sounds/bleep.wav","null","","","","","","",""
"","","","","","html-keyboard-response","287","2.0.0","246310","phwtws43a2j","ono","antelope","23\","female","no","no","0","10","873","<div style=""font-size:30px;"">Press space to start the trial</div>"," ","","","","","","",""
"","","","","","html-keyboard-response","288","2.0.0","246570","phwtws43a2j","ono","antelope","23\","female","no","no","0","10","null","<div style=""font-size:60px;"">+</div>","null","","","","","","",""
"","","","","","audio-keyboard-response","289","2.0.0","247171","phwtws43a2j","ono","antelope","23\","female","no","no","0","10","null","stimuli/sounds/motor_label_B.wav","null","","","","","","",""
"","","","","","html-keyboard-response","290","2.0.0","248188","phwtws43a2j","ono","antelope","23\","female","no","no","0","10","null","","null","","","","","","",""
"","","","","","image-keyboard-response","291","2.0.0","248863","phwtws43a2j","ono","antelope","23\","female","no","no","0","10","673","stimuli/pictures/hiccup_man_1.jpg","0","0","","true","no","sound","stimuli/sounds/motor_label_B.wav",""
"","","","","","audio-keyboard-response","292","2.0.0","249872","phwtws43a2j","ono","antelope","23\","female","no","no","0","10","null","stimuli/sounds/bleep.wav","null","","","","","","",""
"","","","","","html-keyboard-response","293","2.0.0","250306","phwtws43a2j","ono","antelope","23\","female","no","no","0","10","324","<div style=""font-size:30px;"">Press space to start the trial</div>"," ","","","","","","",""
"","","","","","html-keyboard-response","294","2.0.0","250572","phwtws43a2j","ono","antelope","23\","female","no","no","0","10","null","<div style=""font-size:60px;"">+</div>","null","","","","","","",""
"","","","","","audio-keyboard-response","295","2.0.0","251191","phwtws43a2j","ono","antelope","23\","female","no","no","0","10","null","stimuli/sounds/hiccup_label_B.wav","null","","","","","","",""
"","","","","","html-keyboard-response","296","2.0.0","252193","phwtws43a2j","ono","antelope","23\","female","no","no","0","10","null","","null","","","","","","",""
"","","","","","image-keyboard-response","297","2.0.0","252750","phwtws43a2j","ono","antelope","23\","female","no","no","0","10","556","stimuli/pictures/hiccup_man_2.jpg","1","1","","true","yes","sound","stimuli/sounds/hiccup_label_B.wav",""
"","","","","","audio-keyboard-response","298","2.0.0","253755","phwtws43a2j","ono","antelope","23\","female","no","no","0","10","null","stimuli/sounds/bleep.wav","null","","","","","","",""
"","","","","","html-keyboard-response","299","2.0.0","254263","phwtws43a2j","ono","antelope","23\","female","no","no","0","10","399","<div style=""font-size:30px;"">Press space to start the trial</div>"," ","","","","","","",""
"","","","","","html-keyboard-response","300","2.0.0","254518","phwtws43a2j","ono","antelope","23\","female","no","no","0","10","null","<div style=""font-size:60px;"">+</div>","null","","","","","","",""
"","","","","","audio-keyboard-response","301","2.0.0","255112","phwtws43a2j","ono","antelope","23\","female","no","no","0","10","null","stimuli/sounds/dog_sound_A.wav","null","","","","","","",""
"","","","","","html-keyboard-response","302","2.0.0","256122","phwtws43a2j","ono","antelope","23\","female","no","no","0","10","null","","null","","","","","","",""
"","","","","","image-keyboard-response","303","2.0.0","256535","phwtws43a2j","ono","antelope","23\","female","no","no","0","10","411","stimuli/pictures/dog_york_2.jpg","0","1","","false","no","sound","stimuli/sounds/dog_sound_A.wav",""
"","","","","","audio-keyboard-response","304","2.0.0","257540","phwtws43a2j","ono","antelope","23\","female","no","no","0","10","null","stimuli/sounds/buzz.wav","null","","","","","","",""
"","","","","","html-keyboard-response","305","2.0.0","258236","phwtws43a2j","ono","antelope","23\","female","no","no","0","10","588","<div style=""font-size:30px;"">Press space to start the trial</div>"," ","","","","","","",""
"","","","","","html-keyboard-response","306","2.0.0","258490","phwtws43a2j","ono","antelope","23\","female","no","no","0","10","null","<div style=""font-size:60px;"">+</div>","null","","","","","","",""
"","","","","","audio-keyboard-response","307","2.0.0","259161","phwtws43a2j","ono","antelope","23\","female","no","no","0","10","null","stimuli/sounds/cough_sound_B.wav","null","","","","","","",""
"","","","","","html-keyboard-response","308","2.0.0","260168","phwtws43a2j","ono","antelope","23\","female","no","no","0","10","null","","null","","","","","","",""
"","","","","","image-keyboard-response","309","2.0.0","260816","phwtws43a2j","ono","antelope","23\","female","no","no","0","10","646","stimuli/pictures/hiccup_wom_1.jpg","1","0","","false","no","sound","stimuli/sounds/cough_sound_B.wav",""
"","","","","","audio-keyboard-response","310","2.0.0","261818","phwtws43a2j","ono","antelope","23\","female","no","no","0","10","null","stimuli/sounds/buzz.wav","null","","","","","","",""
"","","","","","html-keyboard-response","311","2.0.0","262561","phwtws43a2j","ono","antelope","23\","female","no","no","0","10","634","<div style=""font-size:30px;"">Press space to start the trial</div>"," ","","","","","","",""
"","","","","","html-keyboard-response","312","2.0.0","262815","phwtws43a2j","ono","antelope","23\","female","no","no","0","10","null","<div style=""font-size:60px;"">+</div>","null","","","","","","",""
"","","","","","audio-keyboard-response","313","2.0.0","263411","phwtws43a2j","ono","antelope","23\","female","no","no","0","10","null","stimuli/sounds/dog_sound_B.wav","null","","","","","","",""
"","","","","","html-keyboard-response","314","2.0.0","264416","phwtws43a2j","ono","antelope","23\","female","no","no","0","10","null","","null","","","","","","",""
"","","","","","image-keyboard-response","315","2.0.0","265159","phwtws43a2j","ono","antelope","23\","female","no","no","0","10","740","stimuli/pictures/dog_york_1.jpg","1","1","","true","yes","sound","stimuli/sounds/dog_sound_B.wav",""
"","","","","","audio-keyboard-response","316","2.0.0","266162","phwtws43a2j","ono","antelope","23\","female","no","no","0","10","null","stimuli/sounds/bleep.wav","null","","","","","","",""
"","","","","","html-keyboard-response","317","2.0.0","266719","phwtws43a2j","ono","antelope","23\","female","no","no","0","10","447","<div style=""font-size:30px;"">Press space to start the trial</div>"," ","","","","","","",""
"","","","","","html-keyboard-response","318","2.0.0","266972","phwtws43a2j","ono","antelope","23\","female","no","no","0","10","null","<div style=""font-size:60px;"">+</div>","null","","","","","","",""
"","","","","","audio-keyboard-response","319","2.0.0","267581","phwtws43a2j","ono","antelope","23\","female","no","no","0","10","null","stimuli/sounds/dog_sound_A.wav","null","","","","","","",""
"","","","","","html-keyboard-response","320","2.0.0","268594","phwtws43a2j","ono","antelope","23\","female","no","no","0","10","null","","null","","","","","","",""
"","","","","","image-keyboard-response","321","2.0.0","269120","phwtws43a2j","ono","antelope","23\","female","no","no","0","10","523","stimuli/pictures/hiccup_wom_1.jpg","0","0","","true","no","sound","stimuli/sounds/dog_sound_A.wav",""
"","","","","","audio-keyboard-response","322","2.0.0","270135","phwtws43a2j","ono","antelope","23\","female","no","no","0","10","null","stimuli/sounds/bleep.wav","null","","","","","","",""
"","","","","","html-keyboard-response","323","2.0.0","270491","phwtws43a2j","ono","antelope","23\","female","no","no","0","10","247","<div style=""font-size:30px;"">Press space to start the trial</div>"," ","","","","","","",""
"","","","","","html-keyboard-response","324","2.0.0","270744","phwtws43a2j","ono","antelope","23\","female","no","no","0","10","null","<div style=""font-size:60px;"">+</div>","null","","","","","","",""
"","","","","","audio-keyboard-response","325","2.0.0","271331","phwtws43a2j","ono","antelope","23\","female","no","no","0","10","null","stimuli/sounds/drop_sound_A.wav","null","","","","","","",""
"","","","","","html-keyboard-response","326","2.0.0","272342","phwtws43a2j","ono","antelope","23\","female","no","no","0","10","null","","null","","","","","","",""
"","","","","","image-keyboard-response","327","2.0.0","272955","phwtws43a2j","ono","antelope","23\","female","no","no","0","10","611","stimuli/pictures/drop_single_2.jpg","1","1","","true","yes","sound","stimuli/sounds/drop_sound_A.wav",""
"","","","","","audio-keyboard-response","328","2.0.0","273913","phwtws43a2j","ono","antelope","23\","female","no","no","0","10","955","stimuli/sounds/bleep.wav"," ","","","","","","",""
"","","","","","html-keyboard-response","329","2.0.0","274560","phwtws43a2j","ono","antelope","23\","female","no","no","0","10","539","<div style=""font-size:30px;"">Press space to start the trial</div>"," ","","","","","","",""
"","","","","","html-keyboard-response","330","2.0.0","274813","phwtws43a2j","ono","antelope","23\","female","no","no","0","10","null","<div style=""font-size:60px;"">+</div>","null","","","","","","",""
"","","","","","audio-keyboard-response","331","2.0.0","275422","phwtws43a2j","ono","antelope","23\","female","no","no","0","10","null","stimuli/sounds/hiccup_label_B.wav","null","","","","","","",""
"","","","","","html-keyboard-response","332","2.0.0","276431","phwtws43a2j","ono","antelope","23\","female","no","no","0","10","null","","null","","","","","","",""
"","","","","","image-keyboard-response","333","2.0.0","276932","phwtws43a2j","ono","antelope","23\","female","no","no","0","10","498","stimuli/pictures/hiccup_wom_1.jpg","1","1","","true","yes","sound","stimuli/sounds/hiccup_label_B.wav",""
"","","","","","audio-keyboard-response","334","2.0.0","277945","phwtws43a2j","ono","antelope","23\","female","no","no","0","10","null","stimuli/sounds/bleep.wav","null","","","","","","",""
"","","","","","html-keyboard-response","335","2.0.0","278392","phwtws43a2j","ono","antelope","23\","female","no","no","0","10","337","<div style=""font-size:30px;"">Press space to start the trial</div>"," ","","","","","","",""
"","","","","","html-keyboard-response","336","2.0.0","278645","phwtws43a2j","ono","antelope","23\","female","no","no","0","10","null","<div style=""font-size:60px;"">+</div>","null","","","","","","",""
"","","","","","audio-keyboard-response","337","2.0.0","279252","phwtws43a2j","ono","antelope","23\","female","no","no","0","10","null","stimuli/sounds/hiccup_sound_A.wav","null","","","","","","",""
"","","","","","html-keyboard-response","338","2.0.0","280267","phwtws43a2j","ono","antelope","23\","female","no","no","0","10","null","","null","","","","","","",""
"","","","","","image-keyboard-response","339","2.0.0","280952","phwtws43a2j","ono","antelope","23\","female","no","no","0","10","683","stimuli/pictures/hiccup_wom_2.jpg","1","1","","true","yes","sound","stimuli/sounds/hiccup_sound_A.wav",""
"","","","","","audio-keyboard-response","340","2.0.0","281961","phwtws43a2j","ono","antelope","23\","female","no","no","0","10","null","stimuli/sounds/bleep.wav","null","","","","","","",""
"","","","","","html-keyboard-response","341","2.0.0","282776","phwtws43a2j","ono","antelope","23\","female","no","no","0","10","704","<div style=""font-size:30px;"">Press space to start the trial</div>"," ","","","","","","",""
"","","","","","html-keyboard-response","342","2.0.0","283035","phwtws43a2j","ono","antelope","23\","female","no","no","0","10","null","<div style=""font-size:60px;"">+</div>","null","","","","","","",""
"","","","","","audio-keyboard-response","343","2.0.0","283641","phwtws43a2j","ono","antelope","23\","female","no","no","0","10","null","stimuli/sounds/hiccup_sound_A.wav","null","","","","","","",""
"","","","","","html-keyboard-response","344","2.0.0","284658","phwtws43a2j","ono","antelope","23\","female","no","no","0","10","null","","null","","","","","","",""
"","","","","","image-keyboard-response","345","2.0.0","285278","phwtws43a2j","ono","antelope","23\","female","no","no","0","10","618","stimuli/pictures/motor_harley_1.jpg","0","0","","true","no","sound","stimuli/sounds/hiccup_sound_A.wav",""
"","","","","","audio-keyboard-response","346","2.0.0","286292","phwtws43a2j","ono","antelope","23\","female","no","no","0","10","null","stimuli/sounds/bleep.wav","null","","","","","","",""
"","","","","","html-keyboard-response","347","2.0.0","287176","phwtws43a2j","ono","antelope","23\","female","no","no","0","10","773","<div style=""font-size:30px;"">Press space to start the trial</div>"," ","","","","","","",""
"","","","","","html-keyboard-response","348","2.0.0","287430","phwtws43a2j","ono","antelope","23\","female","no","no","0","10","null","<div style=""font-size:60px;"">+</div>","null","","","","","","",""
"","","","","","audio-keyboard-response","349","2.0.0","288031","phwtws43a2j","ono","antelope","23\","female","no","no","0","10","null","stimuli/sounds/dog_label_B.wav","null","","","","","","",""
"","","","","","html-keyboard-response","350","2.0.0","289046","phwtws43a2j","ono","antelope","23\","female","no","no","0","10","null","","null","","","","","","",""
"","","","","","image-keyboard-response","351","2.0.0","289810","phwtws43a2j","ono","antelope","23\","female","no","no","0","10","762","stimuli/pictures/cough_man_1.jpg","0","0","","true","no","sound","stimuli/sounds/dog_label_B.wav",""
"","","","","","audio-keyboard-response","352","2.0.0","290823","phwtws43a2j","ono","antelope","23\","female","no","no","0","10","null","stimuli/sounds/bleep.wav","null","","","","","","",""
"","","","","","html-keyboard-response","353","2.0.0","291454","phwtws43a2j","ono","antelope","23\","female","no","no","0","10","522","<div style=""font-size:30px;"">Press space to start the trial</div>"," ","","","","","","",""
"","","","","","html-keyboard-response","354","2.0.0","291709","phwtws43a2j","ono","antelope","23\","female","no","no","0","10","null","<div style=""font-size:60px;"">+</div>","null","","","","","","",""
"","","","","","audio-keyboard-response","355","2.0.0","292321","phwtws43a2j","ono","antelope","23\","female","no","no","0","10","null","stimuli/sounds/cough_label_B.wav","null","","","","","","",""
"","","","","","html-keyboard-response","356","2.0.0","293330","phwtws43a2j","ono","antelope","23\","female","no","no","0","10","null","","null","","","","","","",""
"","","","","","image-keyboard-response","357","2.0.0","294611","phwtws43a2j","ono","antelope","23\","female","no","no","0","10","1278","stimuli/pictures/cough_man_2.jpg","1","1","","true","yes","sound","stimuli/sounds/cough_label_B.wav",""
"","","","","","audio-keyboard-response","358","2.0.0","295621","phwtws43a2j","ono","antelope","23\","female","no","no","0","10","null","stimuli/sounds/bleep.wav","null","","","","","","",""
"","","","","","html-keyboard-response","359","2.0.0","296323","phwtws43a2j","ono","antelope","23\","female","no","no","0","10","591","<div style=""font-size:30px;"">Press space to start the trial</div>"," ","","","","","","",""
"","","","","","html-keyboard-response","360","2.0.0","296589","phwtws43a2j","ono","antelope","23\","female","no","no","0","10","null","<div style=""font-size:60px;"">+</div>","null","","","","","","",""
"","","","","","audio-keyboard-response","361","2.0.0","297201","phwtws43a2j","ono","antelope","23\","female","no","no","0","10","null","stimuli/sounds/hiccup_label_B.wav","null","","","","","","",""
"","","","","","html-keyboard-response","362","2.0.0","298214","phwtws43a2j","ono","antelope","23\","female","no","no","0","10","null","","null","","","","","","",""
"","","","","","image-keyboard-response","363","2.0.0","298916","phwtws43a2j","ono","antelope","23\","female","no","no","0","10","695","stimuli/pictures/dog_york_1.jpg","0","0","","true","no","sound","stimuli/sounds/hiccup_label_B.wav",""
"","","","","","audio-keyboard-response","364","2.0.0","299920","phwtws43a2j","ono","antelope","23\","female","no","no","0","10","null","stimuli/sounds/bleep.wav","null","","","","","","",""
"","","","","","html-keyboard-response","365","2.0.0","300763","phwtws43a2j","ono","antelope","23\","female","no","no","0","10","734","<div style=""font-size:30px;"">Press space to start the trial</div>"," ","","","","","","",""
"","","","","","html-keyboard-response","366","2.0.0","301027","phwtws43a2j","ono","antelope","23\","female","no","no","0","10","null","<div style=""font-size:60px;"">+</div>","null","","","","","","",""
"","","","","","audio-keyboard-response","367","2.0.0","301631","phwtws43a2j","ono","antelope","23\","female","no","no","0","10","null","stimuli/sounds/dog_label_B.wav","null","","","","","","",""
"","","","","","html-keyboard-response","368","2.0.0","302647","phwtws43a2j","ono","antelope","23\","female","no","no","0","10","null","","null","","","","","","",""
"","","","","","image-keyboard-response","369","2.0.0","303539","phwtws43a2j","ono","antelope","23\","female","no","no","0","10","890","stimuli/pictures/cough_man_2.jpg","0","0","","true","no","sound","stimuli/sounds/dog_label_B.wav",""
"","","","","","audio-keyboard-response","370","2.0.0","304542","phwtws43a2j","ono","antelope","23\","female","no","no","0","10","null","stimuli/sounds/bleep.wav","null","","","","","","",""
"","","","","","html-keyboard-response","371","2.0.0","305344","phwtws43a2j","ono","antelope","23\","female","no","no","0","10","691","<div style=""font-size:30px;"">Press space to start the trial</div>"," ","","","","","","",""
"","","","","","html-keyboard-response","372","2.0.0","305602","phwtws43a2j","ono","antelope","23\","female","no","no","0","10","null","<div style=""font-size:60px;"">+</div>","null","","","","","","",""
"","","","","","audio-keyboard-response","373","2.0.0","306261","phwtws43a2j","ono","antelope","23\","female","no","no","0","10","null","stimuli/sounds/cough_sound_A.wav","null","","","","","","",""
"","","","","","html-keyboard-response","374","2.0.0","307265","phwtws43a2j","ono","antelope","23\","female","no","no","0","10","null","","null","","","","","","",""
"","","","","","image-keyboard-response","375","2.0.0","308573","phwtws43a2j","ono","antelope","23\","female","no","no","0","10","1307","stimuli/pictures/dog_rott_1.jpg","1","0","","false","no","sound","stimuli/sounds/cough_sound_A.wav",""
"","","","","","audio-keyboard-response","376","2.0.0","309582","phwtws43a2j","ono","antelope","23\","female","no","no","0","10","null","stimuli/sounds/buzz.wav","null","","","","","","",""
"","","","","","html-keyboard-response","377","2.0.0","309982","phwtws43a2j","ono","antelope","23\","female","no","no","0","10","292","<div style=""font-size:30px;"">Press space to start the trial</div>"," ","","","","","","",""
"","","","","","html-keyboard-response","378","2.0.0","310234","phwtws43a2j","ono","antelope","23\","female","no","no","0","10","null","<div style=""font-size:60px;"">+</div>","null","","","","","","",""
"","","","","","audio-keyboard-response","379","2.0.0","310781","phwtws43a2j","ono","antelope","23\","female","no","no","0","10","null","stimuli/sounds/drop_label_A.wav","null","","","","","","",""
"","","","","","html-keyboard-response","380","2.0.0","311794","phwtws43a2j","ono","antelope","23\","female","no","no","0","10","null","","null","","","","","","",""
"","","","","","image-keyboard-response","381","2.0.0","313345","phwtws43a2j","ono","antelope","23\","female","no","no","0","10","1548","stimuli/pictures/drop_single_2.jpg","0","1","","false","yes","sound","stimuli/sounds/drop_label_A.wav",""
"","","","","","audio-keyboard-response","382","2.0.0","314349","phwtws43a2j","ono","antelope","23\","female","no","no","0","10","null","stimuli/sounds/buzz.wav","null","","","","","","",""
"","","","","","html-keyboard-response","383","2.0.0","315127","phwtws43a2j","ono","antelope","23\","female","no","no","0","10","669","<div style=""font-size:30px;"">Press space to start the trial</div>"," ","","","","","","",""
"","","","","","html-keyboard-response","384","2.0.0","315388","phwtws43a2j","ono","antelope","23\","female","no","no","0","10","null","<div style=""font-size:60px;"">+</div>","null","","","","","","",""
"","","","","","audio-keyboard-response","385","2.0.0","315991","phwtws43a2j","ono","antelope","23\","female","no","no","0","10","null","stimuli/sounds/dog_label_A.wav","null","","","","","","",""
"","","","","","html-keyboard-response","386","2.0.0","317008","phwtws43a2j","ono","antelope","23\","female","no","no","0","10","null","","null","","","","","","",""
"","","","","","image-keyboard-response","387","2.0.0","318499","phwtws43a2j","ono","antelope","23\","female","no","no","0","10","1488","stimuli/pictures/dog_rott_1.jpg","1","1","","true","yes","sound","stimuli/sounds/dog_label_A.wav",""
"","","","","","audio-keyboard-response","388","2.0.0","319515","phwtws43a2j","ono","antelope","23\","female","no","no","0","10","null","stimuli/sounds/bleep.wav","null","","","","","","",""
"","","","","","html-keyboard-response","389","2.0.0","320783","phwtws43a2j","ono","antelope","23\","female","no","no","0","10","1159","<p>You have completed a block. Press R when you are ready to continue</p>","r","","","","","","",""
"","","","","","html-keyboard-response","390","2.0.0","321483","phwtws43a2j","ono","antelope","23\","female","no","no","0","10","699","<div style=""font-size:30px;"">Press space to start the trial</div>"," ","","","","","","",""
"","","","","","html-keyboard-response","391","2.0.0","321742","phwtws43a2j","ono","antelope","23\","female","no","no","0","10","null","<div style=""font-size:60px;"">+</div>","null","","","","","","",""
"","","","","","audio-keyboard-response","392","2.0.0","322361","phwtws43a2j","ono","antelope","23\","female","no","no","0","10","null","stimuli/sounds/cough_label_B.wav","null","","","","","","",""
"","","","","","html-keyboard-response","393","2.0.0","323374","phwtws43a2j","ono","antelope","23\","female","no","no","0","10","null","","null","","","","","","",""
"","","","","","image-keyboard-response","394","2.0.0","324054","phwtws43a2j","ono","antelope","23\","female","no","no","0","10","677","stimuli/pictures/cough_man_1.jpg","1","1","","true","yes","sound","stimuli/sounds/cough_label_B.wav",""
"","","","","","audio-keyboard-response","395","2.0.0","325057","phwtws43a2j","ono","antelope","23\","female","no","no","0","10","null","stimuli/sounds/bleep.wav","null","","","","","","",""
"","","","","","html-keyboard-response","396","2.0.0","325838","phwtws43a2j","ono","antelope","23\","female","no","no","0","10","672","<div style=""font-size:30px;"">Press space to start the trial</div>"," ","","","","","","",""
"","","","","","html-keyboard-response","397","2.0.0","326097","phwtws43a2j","ono","antelope","23\","female","no","no","0","10","null","<div style=""font-size:60px;"">+</div>","null","","","","","","",""
"","","","","","audio-keyboard-response","398","2.0.0","326701","phwtws43a2j","ono","antelope","23\","female","no","no","0","10","null","stimuli/sounds/hiccup_sound_B.wav","null","","","","","","",""
"","","","","","html-keyboard-response","399","2.0.0","327713","phwtws43a2j","ono","antelope","23\","female","no","no","0","10","null","","null","","","","","","",""
"","","","","","image-keyboard-response","400","2.0.0","328372","phwtws43a2j","ono","antelope","23\","female","no","no","0","10","657","stimuli/pictures/drop_multi_2.jpg","0","0","","true","no","sound","stimuli/sounds/hiccup_sound_B.wav",""
"","","","","","audio-keyboard-response","401","2.0.0","329382","phwtws43a2j","ono","antelope","23\","female","no","no","0","10","null","stimuli/sounds/bleep.wav","null","","","","","","",""
"","","","","","html-keyboard-response","402","2.0.0","329789","phwtws43a2j","ono","antelope","23\","female","no","no","0","10","299","<div style=""font-size:30px;"">Press space to start the trial</div>"," ","","","","","","",""
"","","","","","html-keyboard-response","403","2.0.0","330051","phwtws43a2j","ono","antelope","23\","female","no","no","0","10","null","<div style=""font-size:60px;"">+</div>","null","","","","","","",""
"","","","","","audio-keyboard-response","404","2.0.0","330651","phwtws43a2j","ono","antelope","23\","female","no","no","0","10","null","stimuli/sounds/dog_label_A.wav","null","","","","","","",""
"","","","","","html-keyboard-response","405","2.0.0","331664","phwtws43a2j","ono","antelope","23\","female","no","no","0","10","null","","null","","","","","","",""
"","","","","","image-keyboard-response","406","2.0.0","332113","phwtws43a2j","ono","antelope","23\","female","no","no","0","10","447","stimuli/pictures/drop_single_1.jpg","0","0","","true","no","sound","stimuli/sounds/dog_label_A.wav",""
"","","","","","audio-keyboard-response","407","2.0.0","333127","phwtws43a2j","ono","antelope","23\","female","no","no","0","10","null","stimuli/sounds/bleep.wav","null","","","","","","",""
"","","","","","html-keyboard-response","408","2.0.0","333549","phwtws43a2j","ono","antelope","23\","female","no","no","0","10","311","<div style=""font-size:30px;"">Press space to start the trial</div>"," ","","","","","","",""
"","","","","","html-keyboard-response","409","2.0.0","333813","phwtws43a2j","ono","antelope","23\","female","no","no","0","10","null","<div style=""font-size:60px;"">+</div>","null","","","","","","",""
"","","","","","audio-keyboard-response","410","2.0.0","334491","phwtws43a2j","ono","antelope","23\","female","no","no","0","10","null","stimuli/sounds/cough_sound_B.wav","null","","","","","","",""
"","","","","","html-keyboard-response","411","2.0.0","335497","phwtws43a2j","ono","antelope","23\","female","no","no","0","10","null","","null","","","","","","",""
"","","","","","image-keyboard-response","412","2.0.0","336144","phwtws43a2j","ono","antelope","23\","female","no","no","0","10","645","stimuli/pictures/cough_wom_2.jpg","1","1","","true","no","sound","stimuli/sounds/cough_sound_B.wav",""
"","","","","","audio-keyboard-response","413","2.0.0","337160","phwtws43a2j","ono","antelope","23\","female","no","no","0","10","null","stimuli/sounds/bleep.wav","null","","","","","","",""
"","","","","","html-keyboard-response","414","2.0.0","337772","phwtws43a2j","ono","antelope","23\","female","no","no","0","10","503","<div style=""font-size:30px;"">Press space to start the trial</div>"," ","","","","","","",""
"","","","","","html-keyboard-response","415","2.0.0","338034","phwtws43a2j","ono","antelope","23\","female","no","no","0","10","null","<div style=""font-size:60px;"">+</div>","null","","","","","","",""
"","","","","","audio-keyboard-response","416","2.0.0","338591","phwtws43a2j","ono","antelope","23\","female","no","no","0","10","null","stimuli/sounds/drop_label_A.wav","null","","","","","","",""
"","","","","","html-keyboard-response","417","2.0.0","339602","phwtws43a2j","ono","antelope","23\","female","no","no","0","10","null","","null","","","","","","",""
"","","","","","image-keyboard-response","418","2.0.0","340426","phwtws43a2j","ono","antelope","23\","female","no","no","0","10","822","stimuli/pictures/drop_single_1.jpg","1","1","","true","yes","sound","stimuli/sounds/drop_label_A.wav",""
"","","","","","audio-keyboard-response","419","2.0.0","341442","phwtws43a2j","ono","antelope","23\","female","no","no","0","10","null","stimuli/sounds/bleep.wav","null","","","","","","",""
"","","","","","html-keyboard-response","420","2.0.0","341832","phwtws43a2j","ono","antelope","23\","female","no","no","0","10","281","<div style=""font-size:30px;"">Press space to start the trial</div>"," ","","","","","","",""
"","","","","","html-keyboard-response","421","2.0.0","342095","phwtws43a2j","ono","antelope","23\","female","no","no","0","10","null","<div style=""font-size:60px;"">+</div>","null","","","","","","",""
"","","","","","audio-keyboard-response","422","2.0.0","342701","phwtws43a2j","ono","antelope","23\","female","no","no","0","10","null","stimuli/sounds/motor_sound_A.wav","null","","","","","","",""
"","","","","","html-keyboard-response","423","2.0.0","343713","phwtws43a2j","ono","antelope","23\","female","no","no","0","10","null","","null","","","","","","",""
"","","","","","image-keyboard-response","424","2.0.0","344329","phwtws43a2j","ono","antelope","23\","female","no","no","0","10","614","stimuli/pictures/motor_dirt_2.jpg","1","1","","true","yes","sound","stimuli/sounds/motor_sound_A.wav",""
"","","","","","audio-keyboard-response","425","2.0.0","345344","phwtws43a2j","ono","antelope","23\","female","no","no","0","10","null","stimuli/sounds/bleep.wav","null","","","","","","",""
"","","","","","html-keyboard-response","426","2.0.0","345838","phwtws43a2j","ono","antelope","23\","female","no","no","0","10","383","<div style=""font-size:30px;"">Press space to start the trial</div>"," ","","","","","","",""
"","","","","","html-keyboard-response","427","2.0.0","346095","phwtws43a2j","ono","antelope","23\","female","no","no","0","10","null","<div style=""font-size:60px;"">+</div>","null","","","","","","",""
"","","","","","audio-keyboard-response","428","2.0.0","346701","phwtws43a2j","ono","antelope","23\","female","no","no","0","10","null","stimuli/sounds/drop_label_B.wav","null","","","","","","",""
"","","","","","html-keyboard-response","429","2.0.0","347713","phwtws43a2j","ono","antelope","23\","female","no","no","0","10","null","","null","","","","","","",""
"","","","","","image-keyboard-response","430","2.0.0","348226","phwtws43a2j","ono","antelope","23\","female","no","no","0","10","511","stimuli/pictures/motor_harley_2.jpg","1","0","","false","no","sound","stimuli/sounds/drop_label_B.wav",""
"","","","","","audio-keyboard-response","431","2.0.0","349242","phwtws43a2j","ono","antelope","23\","female","no","no","0","10","null","stimuli/sounds/buzz.wav","null","","","","","","",""
"","","","","","html-keyboard-response","432","2.0.0","349909","phwtws43a2j","ono","antelope","23\","female","no","no","0","10","557","<div style=""font-size:30px;"">Press space to start the trial</div>"," ","","","","","","",""
"","","","","","html-keyboard-response","433","2.0.0","350175","phwtws43a2j","ono","antelope","23\","female","no","no","0","10","null","<div style=""font-size:60px;"">+</div>","null","","","","","","",""
"","","","","","audio-keyboard-response","434","2.0.0","350771","phwtws43a2j","ono","antelope","23\","female","no","no","0","10","null","stimuli/sounds/dog_sound_B.wav","null","","","","","","",""
"","","","","","html-keyboard-response","435","2.0.0","351775","phwtws43a2j","ono","antelope","23\","female","no","no","0","10","null","","null","","","","","","",""
"","","","","","image-keyboard-response","436","2.0.0","352522","phwtws43a2j","ono","antelope","23\","female","no","no","0","10","745","stimuli/pictures/motor_dirt_2.jpg","0","0","","true","no","sound","stimuli/sounds/dog_sound_B.wav",""
"","","","","","audio-keyboard-response","437","2.0.0","353533","phwtws43a2j","ono","antelope","23\","female","no","no","0","10","null","stimuli/sounds/bleep.wav","null","","","","","","",""
"","","","","","html-keyboard-response","438","2.0.0","354105","phwtws43a2j","ono","antelope","23\","female","no","no","0","10","464","<div style=""font-size:30px;"">Press space to start the trial</div>"," ","","","","","","",""
"","","","","","html-keyboard-response","439","2.0.0","354372","phwtws43a2j","ono","antelope","23\","female","no","no","0","10","null","<div style=""font-size:60px;"">+</div>","null","","","","","","",""
"","","","","","audio-keyboard-response","440","2.0.0","354981","phwtws43a2j","ono","antelope","23\","female","no","no","0","10","null","stimuli/sounds/motor_label_A.wav","null","","","","","","",""
"","","","","","html-keyboard-response","441","2.0.0","355994","phwtws43a2j","ono","antelope","23\","female","no","no","0","10","null","","null","","","","","","",""
"","","","","","image-keyboard-response","442","2.0.0","357134","phwtws43a2j","ono","antelope","23\","female","no","no","0","10","1138","stimuli/pictures/motor_harley_2.jpg","1","1","","true","yes","sound","stimuli/sounds/motor_label_A.wav",""
"","","","","","audio-keyboard-response","443","2.0.0","358138","phwtws43a2j","ono","antelope","23\","female","no","no","0","10","null","stimuli/sounds/bleep.wav","null","","","","","","",""
"","","","","","html-keyboard-response","444","2.0.0","359030","phwtws43a2j","ono","antelope","23\","female","no","no","0","10","784","<div style=""font-size:30px;"">Press space to start the trial</div>"," ","","","","","","",""
"","","","","","html-keyboard-response","445","2.0.0","359287","phwtws43a2j","ono","antelope","23\","female","no","no","0","10","null","<div style=""font-size:60px;"">+</div>","null","","","","","","",""
"","","","","","audio-keyboard-response","446","2.0.0","359872","phwtws43a2j","ono","antelope","23\","female","no","no","0","10","null","stimuli/sounds/drop_sound_A.wav","null","","","","","","",""
"","","","","","html-keyboard-response","447","2.0.0","360874","phwtws43a2j","ono","antelope","23\","female","no","no","0","10","null","","null","","","","","","",""
"","","","","","image-keyboard-response","448","2.0.0","361615","phwtws43a2j","ono","antelope","23\","female","no","no","0","10","739","stimuli/pictures/cough_man_1.jpg","1","0","","false","no","sound","stimuli/sounds/drop_sound_A.wav",""
"","","","","","audio-keyboard-response","449","2.0.0","362632","phwtws43a2j","ono","antelope","23\","female","no","no","0","10","null","stimuli/sounds/buzz.wav","null","","","","","","",""
"","","","","","html-keyboard-response","450","2.0.0","363056","phwtws43a2j","ono","antelope","23\","female","no","no","0","10","314","<div style=""font-size:30px;"">Press space to start the trial</div>"," ","","","","","","",""
"","","","","","html-keyboard-response","451","2.0.0","363315","phwtws43a2j","ono","antelope","23\","female","no","no","0","10","null","<div style=""font-size:60px;"">+</div>","null","","","","","","",""
"","","","","","audio-keyboard-response","452","2.0.0","363911","phwtws43a2j","ono","antelope","23\","female","no","no","0","10","null","stimuli/sounds/motor_label_A.wav","null","","","","","","",""
"","","","","","html-keyboard-response","453","2.0.0","364916","phwtws43a2j","ono","antelope","23\","female","no","no","0","10","null","","null","","","","","","",""
"","","","","","image-keyboard-response","454","2.0.0","365384","phwtws43a2j","ono","antelope","23\","female","no","no","0","10","466","stimuli/pictures/motor_dirt_1.jpg","1","1","","true","yes","sound","stimuli/sounds/motor_label_A.wav",""
"","","","","","audio-keyboard-response","455","2.0.0","366386","phwtws43a2j","ono","antelope","23\","female","no","no","0","10","null","stimuli/sounds/bleep.wav","null","","","","","","",""
"","","","","","html-keyboard-response","456","2.0.0","367019","phwtws43a2j","ono","antelope","23\","female","no","no","0","10","522","<div style=""font-size:30px;"">Press space to start the trial</div>"," ","","","","","","",""
"","","","","","html-keyboard-response","457","2.0.0","367272","phwtws43a2j","ono","antelope","23\","female","no","no","0","10","null","<div style=""font-size:60px;"">+</div>","null","","","","","","",""
"","","","","","audio-keyboard-response","458","2.0.0","367881","phwtws43a2j","ono","antelope","23\","female","no","no","0","10","null","stimuli/sounds/motor_sound_A.wav","null","","","","","","",""
"","","","","","html-keyboard-response","459","2.0.0","368886","phwtws43a2j","ono","antelope","23\","female","no","no","0","10","null","","null","","","","","","",""
"","","","","","image-keyboard-response","460","2.0.0","369605","phwtws43a2j","ono","antelope","23\","female","no","no","0","10","716","stimuli/pictures/drop_single_1.jpg","0","0","","true","no","sound","stimuli/sounds/motor_sound_A.wav",""
"","","","","","audio-keyboard-response","461","2.0.0","370618","phwtws43a2j","ono","antelope","23\","female","no","no","0","10","null","stimuli/sounds/bleep.wav","null","","","","","","",""
"","","","","","html-keyboard-response","462","2.0.0","371301","phwtws43a2j","ono","antelope","23\","female","no","no","0","10","572","<div style=""font-size:30px;"">Press space to start the trial</div>"," ","","","","","","",""
"","","","","","html-keyboard-response","463","2.0.0","371565","phwtws43a2j","ono","antelope","23\","female","no","no","0","10","null","<div style=""font-size:60px;"">+</div>","null","","","","","","",""
"","","","","","audio-keyboard-response","464","2.0.0","372161","phwtws43a2j","ono","antelope","23\","female","no","no","0","10","null","stimuli/sounds/motor_sound_B.wav","null","","","","","","",""
"","","","","","html-keyboard-response","465","2.0.0","373166","phwtws43a2j","ono","antelope","23\","female","no","no","0","10","null","","null","","","","","","",""
"","","","","","image-keyboard-response","466","2.0.0","374593","phwtws43a2j","ono","antelope","23\","female","no","no","0","10","1425","stimuli/pictures/cough_man_2.jpg","0","0","","true","no","sound","stimuli/sounds/motor_sound_B.wav",""
"","","","","","audio-keyboard-response","467","2.0.0","375599","phwtws43a2j","ono","antelope","23\","female","no","no","0","10","null","stimuli/sounds/bleep.wav","null","","","","","","",""
"","","","","","html-keyboard-response","468","2.0.0","376057","phwtws43a2j","ono","antelope","23\","female","no","no","0","10","349","<div style=""font-size:30px;"">Press space to start the trial</div>"," ","","","","","","",""
"","","","","","html-keyboard-response","469","2.0.0","376311","phwtws43a2j","ono","antelope","23\","female","no","no","0","10","null","<div style=""font-size:60px;"">+</div>","null","","","","","","",""
"","","","","","audio-keyboard-response","470","2.0.0","376931","phwtws43a2j","ono","antelope","23\","female","no","no","0","10","null","stimuli/sounds/hiccup_label_B.wav","null","","","","","","",""
"","","","","","html-keyboard-response","471","2.0.0","377934","phwtws43a2j","ono","antelope","23\","female","no","no","0","10","null","","null","","","","","","",""
"","","","","","image-keyboard-response","472","2.0.0","378490","phwtws43a2j","ono","antelope","23\","female","no","no","0","10","554","stimuli/pictures/dog_rott_1.jpg","0","0","","true","no","sound","stimuli/sounds/hiccup_label_B.wav",""
"","","","","","audio-keyboard-response","473","2.0.0","379507","phwtws43a2j","ono","antelope","23\","female","no","no","0","10","null","stimuli/sounds/bleep.wav","null","","","","","","",""
"","","","","","html-keyboard-response","474","2.0.0","380284","phwtws43a2j","ono","antelope","23\","female","no","no","0","10","667","<div style=""font-size:30px;"">Press space to start the trial</div>"," ","","","","","","",""
"","","","","","html-keyboard-response","475","2.0.0","380550","phwtws43a2j","ono","antelope","23\","female","no","no","0","10","null","<div style=""font-size:60px;"">+</div>","null","","","","","","",""
"","","","","","audio-keyboard-response","476","2.0.0","381242","phwtws43a2j","ono","antelope","23\","female","no","no","0","10","null","stimuli/sounds/cough_sound_B.wav","null","","","","","","",""
"","","","","","html-keyboard-response","477","2.0.0","382247","phwtws43a2j","ono","antelope","23\","female","no","no","0","10","null","","null","","","","","","",""
"","","","","","image-keyboard-response","478","2.0.0","383028","phwtws43a2j","ono","antelope","23\","female","no","no","0","10","779","stimuli/pictures/hiccup_man_1.jpg","1","0","","false","no","sound","stimuli/sounds/cough_sound_B.wav",""
"","","","","","audio-keyboard-response","479","2.0.0","384038","phwtws43a2j","ono","antelope","23\","female","no","no","0","10","null","stimuli/sounds/buzz.wav","null","","","","","","",""
"","","","","","html-keyboard-response","480","2.0.0","384418","phwtws43a2j","ono","antelope","23\","female","no","no","0","10","271","<div style=""font-size:30px;"">Press space to start the trial</div>"," ","","","","","","",""
"","","","","","html-keyboard-response","481","2.0.0","384676","phwtws43a2j","ono","antelope","23\","female","no","no","0","10","null","<div style=""font-size:60px;"">+</div>","null","","","","","","",""
