"success","timeout","failed_images","failed_audio","failed_video","trial_type","trial_index","plugin_version","time_elapsed","random_id","condition","participant","age","gender_id","mus_exp","inst_exp","years_exp","mus_listening","rt","stimulus","response","correct_response","practice","correct","congruent","sound_type","audio","question_order"
"true","false","[]","[]","[]","preload","0","2.0.0","639","pjvh8pgrgmo","ono","bear","20","female","no","no","0","3","","","","","","","","","",""
"","","","","","html-keyboard-response","1","2.0.0","1754","pjvh8pgrgmo","ono","bear","20","female","no","no","0","3","1115","Welcome to the experiment! Press any key to begin."," ","","","","","","",""
"true","","","","","fullscreen","2","null","3892","pjvh8pgrgmo","ono","bear","20","female","no","no","0","3","1136","","","","","","","","",""
"","","","","","survey-text","3","2.0.0","5537","pjvh8pgrgmo","ono","bear","20","female","no","no","0","3","1642","","{""participant_id"":""bear""}","","","","","","",""
"","","","","","html-keyboard-response","4","2.0.0","12171","pjvh8pgrgmo","ono","bear","20","female","no","no","0","3","6632","
    <p> Please use headphones for the duration of the study.</p>
    <p> Within each trial, you will hear a sound and then be presented with an image in the center of your screen.</p>
    <p>Press the <b>'1'</b> key if what you hear <u>matches</u> what you see.</p>
    <p>Press the <b>'0'</b> key if what you hear <u>does not match</u> what you see.</p>
    <p>Try to respond as quickly and accurately as you can.</p>
    <p> Press any key to begin.</p>
    "," ","","","","","","",""
"","","","","","html-keyboard-response","5","2.0.0","15087","pjvh8pgrgmo","ono","bear","20","female","no","no","0","3","2915","
    <div style=""font-size:28px;"">
      <p>You will now complete 4 short practice trials.</p>
      <p>This is just to help you get familiar with the task.</p>
      <p>Press any key to begin.</p>
    </div>
  "," ","","","","","","",""
"","","","","","html-keyboard-response","6","2.0.0","15588","pjvh8pgrgmo","ono","bear","20","female","no","no","0","3","null","<div style=""font-size:60px;"">+</div>","null","","","","","","",""
"","","","","","audio-keyboard-response","7","2.0.0","16286","pjvh8pgrgmo","ono","bear","20","female","no","no","0","3","null","stimuli/sounds/guitar_label_A.wav","null","","","","","","",""
"","","","","","image-keyboard-response","8","2.0.0","18457","pjvh8pgrgmo","ono","bear","20","female","no","no","0","3","2169","stimuli/pictures/guitar_acoustic_1.jpg","1","1","true","true","","","",""
"","","","","","audio-keyboard-response","9","2.0.0","19260","pjvh8pgrgmo","ono","bear","20","female","no","no","0","3","null","stimuli/sounds/bleep.wav","null","","","","","","",""
"","","","","","html-keyboard-response","10","2.0.0","19962","pjvh8pgrgmo","ono","bear","20","female","no","no","0","3","null","<p style='color:green; font-size:30px;'>Correct!</p>","null","","","","","","",""
"","","","","","html-keyboard-response","11","2.0.0","20465","pjvh8pgrgmo","ono","bear","20","female","no","no","0","3","null","<div style=""font-size:60px;"">+</div>","null","","","","","","",""
"","","","","","audio-keyboard-response","12","2.0.0","21070","pjvh8pgrgmo","ono","bear","20","female","no","no","0","3","null","stimuli/sounds/guitar_sound_B.wav","null","","","","","","",""
"","","","","","image-keyboard-response","13","2.0.0","25979","pjvh8pgrgmo","ono","bear","20","female","no","no","0","3","4909","stimuli/pictures/guitar_acoustic_2.jpg","0","1","true","false","","","",""
"","","","","","audio-keyboard-response","14","2.0.0","26782","pjvh8pgrgmo","ono","bear","20","female","no","no","0","3","null","stimuli/sounds/buzz.wav","null","","","","","","",""
"","","","","","html-keyboard-response","15","2.0.0","27485","pjvh8pgrgmo","ono","bear","20","female","no","no","0","3","null","<p style='color:red; font-size:30px;'>Incorrect</p>","null","","","","","","",""
"","","","","","html-keyboard-response","16","2.0.0","27987","pjvh8pgrgmo","ono","bear","20","female","no","no","0","3","null","<div style=""font-size:60px;"">+</div>","null","","","","","","",""
"","","","","","audio-keyboard-response","17","2.0.0","28589","pjvh8pgrgmo","ono","bear","20","female","no","no","0","3","null","stimuli/sounds/flute_sound_A.wav","null","","","","","","",""
"","","","","","image-keyboard-response","18","2.0.0","30590","pjvh8pgrgmo","ono","bear","20","female","no","no","0","3","1999","stimuli/pictures/guitar_electric_1.jpg","0","0","true","true","","","",""
"","","","","","audio-keyboard-response","19","2.0.0","31391","pjvh8pgrgmo","ono","bear","20","female","no","no","0","3","null","stimuli/sounds/bleep.wav","null","","","","","","",""
"","","","","","html-keyboard-response","20","2.0.0","32093","pjvh8pgrgmo","ono","bear","20","female","no","no","0","3","null","<p style='color:green; font-size:30px;'>Correct!</p>","null","","","","","","",""
"","","","","","html-keyboard-response","21","2.0.0","32594","pjvh8pgrgmo","ono","bear","20","female","no","no","0","3","null","<div style=""font-size:60px;"">+</div>","null","","","","","","",""
"","","","","","audio-keyboard-response","22","2.0.0","33196","pjvh8pgrgmo","ono","bear","20","female","no","no","0","3","null","stimuli/sounds/guitar_sound_A.wav","null","","","","","","",""
"","","","","","image-keyboard-response","23","2.0.0","34838","pjvh8pgrgmo","ono","bear","20","female","no","no","0","3","1641","stimuli/pictures/guitar_acoustic_1.jpg","0","1","true","false","","","",""
"","","","","","audio-keyboard-response","24","2.0.0","35641","pjvh8pgrgmo","ono","bear","20","female","no","no","0","3","null","stimuli/sounds/buzz.wav","null","","","","","","",""
"","","","","","html-keyboard-response","25","2.0.0","36344","pjvh8pgrgmo","ono","bear","20","female","no","no","0","3","null","<p style='color:red; font-size:30px;'>Incorrect</p>","null","","","","","","",""
"","","","","","html-keyboard-response","26","2.0.0","37777","pjvh8pgrgmo","ono","bear","20","female","no","no","0","3","1432","<p>Practice complete. Press any key to begin the real experiment.</p>"," ","","","","","","",""
"","","","","","html-keyboard-response","27","2.0.0","40002","pjvh8pgrgmo","ono","bear","20","female","no","no","0","3","2224","<div style=""font-size:30px;"">Press space to start the trial</div>"," ","","","","","","",""
"","","","","","html-keyboard-response","28","2.0.0","40254","pjvh8pgrgmo","ono","bear","20","female","no","no","0","3","null","<div style=""font-size:60px;"">+</div>","null","","","","","","",""
"","","","","","audio-keyboard-response","29","2.0.0","40791","pjvh8pgrgmo","ono","bear","20","female","no","no","0","3","null","stimuli/sounds/hiccup_label_A.wav","null","","","","","","",""
"","","","","","html-keyboard-response","30","2.0.0","41793","pjvh8pgrgmo","ono","bear","20","female","no","no","0","3","null","","null","","","","","","",""
"","","","","","image-keyboard-response","31","2.0.0","43966","pjvh8pgrgmo","ono","bear","20","female","no","no","0","3","2171","stimuli/pictures/cough_wom_2.jpg","1","0","","false","no","sound","stimuli/sounds/hiccup_label_A.wav",""
"","","","","","audio-keyboard-response","32","2.0.0","44968","pjvh8pgrgmo","ono","bear","20","female","no","no","0","3","null","stimuli/sounds/buzz.wav","null","","","","","","",""
"","","","","","html-keyboard-response","33","2.0.0","47265","pjvh8pgrgmo","ono","bear","20","female","no","no","0","3","2194","<div style=""font-size:30px;"">Press space to start the trial</div>"," ","","","","","","",""
"","","","","","html-keyboard-response","34","2.0.0","47518","pjvh8pgrgmo","ono","bear","20","female","no","no","0","3","null","<div style=""font-size:60px;"">+</div>","null","","","","","","",""
"","","","","","audio-keyboard-response","35","2.0.0","48151","pjvh8pgrgmo","ono","bear","20","female","no","no","0","3","null","stimuli/sounds/cough_label_A.wav","null","","","","","","",""
"","","","","","html-keyboard-response","36","2.0.0","49153","pjvh8pgrgmo","ono","bear","20","female","no","no","0","3","null","","null","","","","","","",""
"","","","","","image-keyboard-response","37","2.0.0","49921","pjvh8pgrgmo","ono","bear","20","female","no","no","0","3","766","stimuli/pictures/motor_dirt_2.jpg","0","0","","true","no","sound","stimuli/sounds/cough_label_A.wav",""
"","","","","","audio-keyboard-response","38","2.0.0","50923","pjvh8pgrgmo","ono","bear","20","female","no","no","0","3","null","stimuli/sounds/bleep.wav","null","","","","","","",""
"","","","","","html-keyboard-response","39","2.0.0","51706","pjvh8pgrgmo","ono","bear","20","female","no","no","0","3","680","<div style=""font-size:30px;"">Press space to start the trial</div>"," ","","","","","","",""
"","","","","","html-keyboard-response","40","2.0.0","51959","pjvh8pgrgmo","ono","bear","20","female","no","no","0","3","null","<div style=""font-size:60px;"">+</div>","null","","","","","","",""
"","","","","","audio-keyboard-response","41","2.0.0","52561","pjvh8pgrgmo","ono","bear","20","female","no","no","0","3","null","stimuli/sounds/hiccup_sound_B.wav","null","","","","","","",""
"","","","","","html-keyboard-response","42","2.0.0","53563","pjvh8pgrgmo","ono","bear","20","female","no","no","0","3","null","","null","","","","","","",""
"","","","","","image-keyboard-response","43","2.0.0","54324","pjvh8pgrgmo","ono","bear","20","female","no","no","0","3","759","stimuli/pictures/hiccup_man_2.jpg","1","1","","true","yes","sound","stimuli/sounds/hiccup_sound_B.wav",""
"","","","","","audio-keyboard-response","44","2.0.0","55325","pjvh8pgrgmo","ono","bear","20","female","no","no","0","3","null","stimuli/sounds/bleep.wav","null","","","","","","",""
"","","","","","html-keyboard-response","45","2.0.0","55770","pjvh8pgrgmo","ono","bear","20","female","no","no","0","3","343","<div style=""font-size:30px;"">Press space to start the trial</div>"," ","","","","","","",""
"","","","","","html-keyboard-response","46","2.0.0","56022","pjvh8pgrgmo","ono","bear","20","female","no","no","0","3","null","<div style=""font-size:60px;"">+</div>","null","","","","","","",""
"","","","","","audio-keyboard-response","47","2.0.0","56630","pjvh8pgrgmo","ono","bear","20","female","no","no","0","3","null","stimuli/sounds/hiccup_label_B.wav","null","","","","","","",""
"","","","","","html-keyboard-response","48","2.0.0","57631","pjvh8pgrgmo","ono","bear","20","female","no","no","0","3","null","","null","","","","","","",""
"","","","","","image-keyboard-response","49","2.0.0","58014","pjvh8pgrgmo","ono","bear","20","female","no","no","0","3","381","stimuli/pictures/hiccup_wom_2.jpg","0","1","","false","yes","sound","stimuli/sounds/hiccup_label_B.wav",""
"","","","","","audio-keyboard-response","50","2.0.0","59016","pjvh8pgrgmo","ono","bear","20","female","no","no","0","3","null","stimuli/sounds/buzz.wav","null","","","","","","",""
"","","","","","html-keyboard-response","51","2.0.0","59462","pjvh8pgrgmo","ono","bear","20","female","no","no","0","3","343","<div style=""font-size:30px;"">Press space to start the trial</div>"," ","","","","","","",""
"","","","","","html-keyboard-response","52","2.0.0","59714","pjvh8pgrgmo","ono","bear","20","female","no","no","0","3","null","<div style=""font-size:60px;"">+</div>","null","","","","","","",""
"","","","","","audio-keyboard-response","53","2.0.0","60320","pjvh8pgrgmo","ono","bear","20","female","no","no","0","3","null","stimuli/sounds/drop_sound_B.wav","null","","","","","","",""
"","","","","","html-keyboard-response","54","2.0.0","61322","pjvh8pgrgmo","ono","bear","20","female","no","no","0","3","null","","null","","","","","","",""
"","","","","","image-keyboard-response","55","2.0.0","61669","pjvh8pgrgmo","ono","bear","20","female","no","no","0","3","346","stimuli/pictures/drop_single_1.jpg","0","1","","false","no","sound","stimuli/sounds/drop_sound_B.wav",""
"","","","","","audio-keyboard-response","56","2.0.0","62671","pjvh8pgrgmo","ono","bear","20","female","no","no","0","3","null","stimuli/sounds/buzz.wav","null","","","","","","",""
"","","","","","html-keyboard-response","57","2.0.0","63190","pjvh8pgrgmo","ono","bear","20","female","no","no","0","3","416","<div style=""font-size:30px;"">Press space to start the trial</div>"," ","","","","","","",""
"","","","","","html-keyboard-response","58","2.0.0","63441","pjvh8pgrgmo","ono","bear","20","female","no","no","0","3","null","<div style=""font-size:60px;"">+</div>","null","","","","","","",""
"","","","","","audio-keyboard-response","59","2.0.0","64043","pjvh8pgrgmo","ono","bear","20","female","no","no","0","3","null","stimuli/sounds/dog_label_B.wav","null","","","","","","",""
"","","","","","html-keyboard-response","60","2.0.0","65045","pjvh8pgrgmo","ono","bear","20","female","no","no","0","3","null","","null","","","","","","",""
"","","","","","image-keyboard-response","61","2.0.0","65544","pjvh8pgrgmo","ono","bear","20","female","no","no","0","3","497","stimuli/pictures/cough_wom_1.jpg","1","0","","false","no","sound","stimuli/sounds/dog_label_B.wav",""
"","","","","","audio-keyboard-response","62","2.0.0","66546","pjvh8pgrgmo","ono","bear","20","female","no","no","0","3","null","stimuli/sounds/buzz.wav","null","","","","","","",""
"","","","","","html-keyboard-response","63","2.0.0","67363","pjvh8pgrgmo","ono","bear","20","female","no","no","0","3","715","<div style=""font-size:30px;"">Press space to start the trial</div>"," ","","","","","","",""
"","","","","","html-keyboard-response","64","2.0.0","67616","pjvh8pgrgmo","ono","bear","20","female","no","no","0","3","null","<div style=""font-size:60px;"">+</div>","null","","","","","","",""
"","","","","","audio-keyboard-response","65","2.0.0","68219","pjvh8pgrgmo","ono","bear","20","female","no","no","0","3","null","stimuli/sounds/dog_sound_A.wav","null","","","","","","",""
"","","","","","html-keyboard-response","66","2.0.0","69221","pjvh8pgrgmo","ono","bear","20","female","no","no","0","3","null","","null","","","","","","",""
"","","","","","image-keyboard-response","67","2.0.0","69489","pjvh8pgrgmo","ono","bear","20","female","no","no","0","3","266","stimuli/pictures/dog_york_1.jpg","0","1","","false","no","sound","stimuli/sounds/dog_sound_A.wav",""
"","","","","","audio-keyboard-response","68","2.0.0","70490","pjvh8pgrgmo","ono","bear","20","female","no","no","0","3","null","stimuli/sounds/buzz.wav","null","","","","","","",""
"","","","","","html-keyboard-response","69","2.0.0","70929","pjvh8pgrgmo","ono","bear","20","female","no","no","0","3","337","<div style=""font-size:30px;"">Press space to start the trial</div>"," ","","","","","","",""
"","","","","","html-keyboard-response","70","2.0.0","71181","pjvh8pgrgmo","ono","bear","20","female","no","no","0","3","null","<div style=""font-size:60px;"">+</div>","null","","","","","","",""
"","","","","","audio-keyboard-response","71","2.0.0","71862","pjvh8pgrgmo","ono","bear","20","female","no","no","0","3","null","stimuli/sounds/cough_sound_B.wav","null","","","","","","",""
"","","","","","html-keyboard-response","72","2.0.0","72863","pjvh8pgrgmo","ono","bear","20","female","no","no","0","3","null","","null","","","","","","",""
"","","","","","image-keyboard-response","73","2.0.0","73531","pjvh8pgrgmo","ono","bear","20","female","no","no","0","3","666","stimuli/pictures/cough_wom_1.jpg","1","1","","true","no","sound","stimuli/sounds/cough_sound_B.wav",""
"","","","","","audio-keyboard-response","74","2.0.0","74533","pjvh8pgrgmo","ono","bear","20","female","no","no","0","3","null","stimuli/sounds/bleep.wav","null","","","","","","",""
"","","","","","html-keyboard-response","75","2.0.0","74763","pjvh8pgrgmo","ono","bear","20","female","no","no","0","3","129","<div style=""font-size:30px;"">Press space to start the trial</div>"," ","","","","","","",""
"","","","","","html-keyboard-response","76","2.0.0","75015","pjvh8pgrgmo","ono","bear","20","female","no","no","0","3","null","<div style=""font-size:60px;"">+</div>","null","","","","","","",""
"","","","","","audio-keyboard-response","77","2.0.0","75626","pjvh8pgrgmo","ono","bear","20","female","no","no","0","3","null","stimuli/sounds/drop_label_B.wav","null","","","","","","",""
"","","","","","html-keyboard-response","78","2.0.0","76629","pjvh8pgrgmo","ono","bear","20","female","no","no","0","3","null","","null","","","","","","",""
"","","","","","image-keyboard-response","79","2.0.0","76976","pjvh8pgrgmo","ono","bear","20","female","no","no","0","3","345","stimuli/pictures/motor_harley_1.jpg","0","0","","true","no","sound","stimuli/sounds/drop_label_B.wav",""
"","","","","","audio-keyboard-response","80","2.0.0","77978","pjvh8pgrgmo","ono","bear","20","female","no","no","0","3","null","stimuli/sounds/bleep.wav","null","","","","","","",""
"","","","","","html-keyboard-response","81","2.0.0","78152","pjvh8pgrgmo","ono","bear","20","female","no","no","0","3","73","<div style=""font-size:30px;"">Press space to start the trial</div>"," ","","","","","","",""
"","","","","","html-keyboard-response","82","2.0.0","78404","pjvh8pgrgmo","ono","bear","20","female","no","no","0","3","null","<div style=""font-size:60px;"">+</div>","null","","","","","","",""
"","","","","","audio-keyboard-response","83","2.0.0","79007","pjvh8pgrgmo","ono","bear","20","female","no","no","0","3","null","stimuli/sounds/dog_sound_B.wav","null","","","","","","",""
"","","","","","html-keyboard-response","84","2.0.0","80009","pjvh8pgrgmo","ono","bear","20","female","no","no","0","3","null","","null","","","","","","",""
"","","","","","image-keyboard-response","85","2.0.0","80426","pjvh8pgrgmo","ono","bear","20","female","no","no","0","3","416","stimuli/pictures/dog_rott_2.jpg","1","1","","true","no","sound","stimuli/sounds/dog_sound_B.wav",""
"","","","","","audio-keyboard-response","86","2.0.0","81428","pjvh8pgrgmo","ono","bear","20","female","no","no","0","3","null","stimuli/sounds/bleep.wav","null","","","","","","",""
"","","","","","html-keyboard-response","87","2.0.0","81926","pjvh8pgrgmo","ono","bear","20","female","no","no","0","3","397","<div style=""font-size:30px;"">Press space to start the trial</div>"," ","","","","","","",""
"","","","","","html-keyboard-response","88","2.0.0","82178","pjvh8pgrgmo","ono","bear","20","female","no","no","0","3","null","<div style=""font-size:60px;"">+</div>","null","","","","","","",""
"","","","","","audio-keyboard-response","89","2.0.0","82778","pjvh8pgrgmo","ono","bear","20","female","no","no","0","3","null","stimuli/sounds/motor_sound_B.wav","null","","","","","","",""
"","","","","","html-keyboard-response","90","2.0.0","83779","pjvh8pgrgmo","ono","bear","20","female","no","no","0","3","null","","null","","","","","","",""
"","","","","","image-keyboard-response","91","2.0.0","83999","pjvh8pgrgmo","ono","bear","20","female","no","no","0","3","218","stimuli/pictures/motor_dirt_2.jpg","1","1","","true","no","sound","stimuli/sounds/motor_sound_B.wav",""
"","","","","","audio-keyboard-response","92","2.0.0","85002","pjvh8pgrgmo","ono","bear","20","female","no","no","0","3","null","stimuli/sounds/bleep.wav","null","","","","","","",""
"","","","","","html-keyboard-response","93","2.0.0","85178","pjvh8pgrgmo","ono","bear","20","female","no","no","0","3","75","<div style=""font-size:30px;"">Press space to start the trial</div>"," ","","","","","","",""
"","","","","","html-keyboard-response","94","2.0.0","85430","pjvh8pgrgmo","ono","bear","20","female","no","no","0","3","null","<div style=""font-size:60px;"">+</div>","null","","","","","","",""
"","","","","","audio-keyboard-response","95","2.0.0","86031","pjvh8pgrgmo","ono","bear","20","female","no","no","0","3","null","stimuli/sounds/motor_label_B.wav","null","","","","","","",""
"","","","","","html-keyboard-response","96","2.0.0","87033","pjvh8pgrgmo","ono","bear","20","female","no","no","0","3","null","","null","","","","","","",""
"","","","","","image-keyboard-response","97","2.0.0","87568","pjvh8pgrgmo","ono","bear","20","female","no","no","0","3","533","stimuli/pictures/hiccup_man_2.jpg","0","0","","true","no","sound","stimuli/sounds/motor_label_B.wav",""
"","","","","","audio-keyboard-response","98","2.0.0","88569","pjvh8pgrgmo","ono","bear","20","female","no","no","0","3","null","stimuli/sounds/bleep.wav","null","","","","","","",""
"","","","","","html-keyboard-response","99","2.0.0","89257","pjvh8pgrgmo","ono","bear","20","female","no","no","0","3","586","<div style=""font-size:30px;"">Press space to start the trial</div>"," ","","","","","","",""
"","","","","","html-keyboard-response","100","2.0.0","89509","pjvh8pgrgmo","ono","bear","20","female","no","no","0","3","null","<div style=""font-size:60px;"">+</div>","null","","","","","","",""
"","","","","","audio-keyboard-response","101","2.0.0","90111","pjvh8pgrgmo","ono","bear","20","female","no","no","0","3","null","stimuli/sounds/motor_sound_A.wav","null","","","","","","",""
"","","","","","html-keyboard-response","102","2.0.0","91114","pjvh8pgrgmo","ono","bear","20","female","no","no","0","3","null","","null","","","","","","",""
"","","","","","image-keyboard-response","103","2.0.0","91705","pjvh8pgrgmo","ono","bear","20","female","no","no","0","3","589","stimuli/pictures/motor_harley_2.jpg","0","1","","false","no","sound","stimuli/sounds/motor_sound_A.wav",""
"","","","","","audio-keyboard-response","104","2.0.0","92708","pjvh8pgrgmo","ono","bear","20","female","no","no","0","3","null","stimuli/sounds/buzz.wav","null","","","","","","",""
"","","","","","html-keyboard-response","105","2.0.0","93246","pjvh8pgrgmo","ono","bear","20","female","no","no","0","3","437","<div style=""font-size:30px;"">Press space to start the trial</div>"," ","","","","","","",""
"","","","","","html-keyboard-response","106","2.0.0","93497","pjvh8pgrgmo","ono","bear","20","female","no","no","0","3","null","<div style=""font-size:60px;"">+</div>","null","","","","","","",""
"","","","","","audio-keyboard-response","107","2.0.0","94105","pjvh8pgrgmo","ono","bear","20","female","no","no","0","3","null","stimuli/sounds/hiccup_label_B.wav","null","","","","","","",""
"","","","","","html-keyboard-response","108","2.0.0","95107","pjvh8pgrgmo","ono","bear","20","female","no","no","0","3","null","","null","","","","","","",""
"","","","","","image-keyboard-response","109","2.0.0","95407","pjvh8pgrgmo","ono","bear","20","female","no","no","0","3","299","stimuli/pictures/dog_york_2.jpg","1","0","","false","no","sound","stimuli/sounds/hiccup_label_B.wav",""
"","","","","","audio-keyboard-response","110","2.0.0","96409","pjvh8pgrgmo","ono","bear","20","female","no","no","0","3","null","stimuli/sounds/buzz.wav","null","","","","","","",""
"","","","","","html-keyboard-response","111","2.0.0","96904","pjvh8pgrgmo","ono","bear","20","female","no","no","0","3","393","<div style=""font-size:30px;"">Press space to start the trial</div>"," ","","","","","","",""
"","","","","","html-keyboard-response","112","2.0.0","97157","pjvh8pgrgmo","ono","bear","20","female","no","no","0","3","null","<div style=""font-size:60px;"">+</div>","null","","","","","","",""
"","","","","","audio-keyboard-response","113","2.0.0","97705","pjvh8pgrgmo","ono","bear","20","female","no","no","0","3","null","stimuli/sounds/drop_label_A.wav","null","","","","","","",""
"","","","","","html-keyboard-response","114","2.0.0","98707","pjvh8pgrgmo","ono","bear","20","female","no","no","0","3","null","","null","","","","","","",""
"","","","","","image-keyboard-response","115","2.0.0","98783","pjvh8pgrgmo","ono","bear","20","female","no","no","0","3","74","stimuli/pictures/hiccup_wom_1.jpg","1","0","","false","no","sound","stimuli/sounds/drop_label_A.wav",""
"","","","","","audio-keyboard-response","116","2.0.0","99785","pjvh8pgrgmo","ono","bear","20","female","no","no","0","3","null","stimuli/sounds/buzz.wav","null","","","","","","",""
"","","","","","html-keyboard-response","117","2.0.0","100276","pjvh8pgrgmo","ono","bear","20","female","no","no","0","3","389","<div style=""font-size:30px;"">Press space to start the trial</div>"," ","","","","","","",""
"","","","","","html-keyboard-response","118","2.0.0","100527","pjvh8pgrgmo","ono","bear","20","female","no","no","0","3","null","<div style=""font-size:60px;"">+</div>","null","","","","","","",""
"","","","","","audio-keyboard-response","119","2.0.0","101075","pjvh8pgrgmo","ono","bear","20","female","no","no","0","3","null","stimuli/sounds/drop_label_A.wav","null","","","","","","",""
"","","","","","html-keyboard-response","120","2.0.0","102078","pjvh8pgrgmo","ono","bear","20","female","no","no","0","3","null","","null","","","","","","",""
"","","","","","image-keyboard-response","121","2.0.0","102289","pjvh8pgrgmo","ono","bear","20","female","no","no","0","3","209","stimuli/pictures/drop_single_1.jpg","1","1","","true","yes","sound","stimuli/sounds/drop_label_A.wav",""
"","","","","","audio-keyboard-response","122","2.0.0","103223","pjvh8pgrgmo","ono","bear","20","female","no","no","0","3","933","stimuli/sounds/bleep.wav"," ","","","","","","",""
"","","","","","html-keyboard-response","123","2.0.0","103469","pjvh8pgrgmo","ono","bear","20","female","no","no","0","3","145","<div style=""font-size:30px;"">Press space to start the trial</div>"," ","","","","","","",""
"","","","","","html-keyboard-response","124","2.0.0","103722","pjvh8pgrgmo","ono","bear","20","female","no","no","0","3","null","<div style=""font-size:60px;"">+</div>","null","","","","","","",""
"","","","","","audio-keyboard-response","125","2.0.0","104328","pjvh8pgrgmo","ono","bear","20","female","no","no","0","3","null","stimuli/sounds/drop_sound_B.wav","null","","","","","","",""
"","","","","","html-keyboard-response","126","2.0.0","105331","pjvh8pgrgmo","ono","bear","20","female","no","no","0","3","null","","null","","","","","","",""
"","","","","","image-keyboard-response","127","2.0.0","105433","pjvh8pgrgmo","ono","bear","20","female","no","no","0","3","101","stimuli/pictures/dog_rott_1.jpg","1","0","","false","no","sound","stimuli/sounds/drop_sound_B.wav",""
"","","","","","audio-keyboard-response","128","2.0.0","106435","pjvh8pgrgmo","ono","bear","20","female","no","no","0","3","null","stimuli/sounds/buzz.wav","null","","","","","","",""
"","","","","","html-keyboard-response","129","2.0.0","106782","pjvh8pgrgmo","ono","bear","20","female","no","no","0","3","244","<div style=""font-size:30px;"">Press space to start the trial</div>"," ","","","","","","",""
"","","","","","html-keyboard-response","130","2.0.0","107034","pjvh8pgrgmo","ono","bear","20","female","no","no","0","3","null","<div style=""font-size:60px;"">+</div>","null","","","","","","",""
"","","","","","audio-keyboard-response","131","2.0.0","107635","pjvh8pgrgmo","ono","bear","20","female","no","no","0","3","null","stimuli/sounds/motor_sound_A.wav","null","","","","","","",""
"","","","","","html-keyboard-response","132","2.0.0","108637","pjvh8pgrgmo","ono","bear","20","female","no","no","0","3","null","","null","","","","","","",""
"","","","","","image-keyboard-response","133","2.0.0","108654","pjvh8pgrgmo","ono","bear","20","female","no","no","0","3","16","stimuli/pictures/drop_single_2.jpg","0","0","","true","no","sound","stimuli/sounds/motor_sound_A.wav",""
"","","","","","audio-keyboard-response","134","2.0.0","108866","pjvh8pgrgmo","ono","bear","20","female","no","no","0","3","208","stimuli/sounds/bleep.wav","0","","","","","","",""
"","","","","","html-keyboard-response","135","2.0.0","109398","pjvh8pgrgmo","ono","bear","20","female","no","no","0","3","430","<div style=""font-size:30px;"">Press space to start the trial</div>"," ","","","","","","",""
"","","","","","html-keyboard-response","136","2.0.0","109651","pjvh8pgrgmo","ono","bear","20","female","no","no","0","3","null","<div style=""font-size:60px;"">+</div>","null","","","","","","",""
"","","","","","audio-keyboard-response","137","2.0.0","110254","pjvh8pgrgmo","ono","bear","20","female","no","no","0","3","null","stimuli/sounds/motor_sound_A.wav","null","","","","","","",""
"","","","","","html-keyboard-response","138","2.0.0","111256","pjvh8pgrgmo","ono","bear","20","female","no","no","0","3","null","","null","","","","","","",""
"","","","","","image-keyboard-response","139","2.0.0","111533","pjvh8pgrgmo","ono","bear","20","female","no","no","0","3","276","stimuli/pictures/motor_dirt_1.jpg","0","1","","false","yes","sound","stimuli/sounds/motor_sound_A.wav",""
"","","","","","audio-keyboard-response","140","2.0.0","111722","pjvh8pgrgmo","ono","bear","20","female","no","no","0","3","187","stimuli/sounds/buzz.wav","0","","","","","","",""
"","","","","","html-keyboard-response","141","2.0.0","112280","pjvh8pgrgmo","ono","bear","20","female","no","no","0","3","456","<div style=""font-size:30px;"">Press space to start the trial</div>"," ","","","","","","",""
"","","","","","html-keyboard-response","142","2.0.0","112532","pjvh8pgrgmo","ono","bear","20","female","no","no","0","3","null","<div style=""font-size:60px;"">+</div>","null","","","","","","",""
"","","","","","audio-keyboard-response","143","2.0.0","113139","pjvh8pgrgmo","ono","bear","20","female","no","no","0","3","null","stimuli/sounds/cough_label_B.wav","null","","","","","","",""
"","","","","","html-keyboard-response","144","2.0.0","114141","pjvh8pgrgmo","ono","bear","20","female","no","no","0","3","null","","null","","","","","","",""
"","","","","","image-keyboard-response","145","2.0.0","114216","pjvh8pgrgmo","ono","bear","20","female","no","no","0","3","74","stimuli/pictures/cough_man_1.jpg","0","1","","false","yes","sound","stimuli/sounds/cough_label_B.wav",""
"","","","","","audio-keyboard-response","146","2.0.0","114412","pjvh8pgrgmo","ono","bear","20","female","no","no","0","3","192","stimuli/sounds/buzz.wav","0","","","","","","",""
"","","","","","html-keyboard-response","147","2.0.0","117230","pjvh8pgrgmo","ono","bear","20","female","no","no","0","3","2716","<p>You have completed a block. Press R when you are ready to continue</p>","r","","","","","","",""
"","","","","","html-keyboard-response","148","2.0.0","117907","pjvh8pgrgmo","ono","bear","20","female","no","no","0","3","676","<div style=""font-size:30px;"">Press space to start the trial</div>"," ","","","","","","",""
"","","","","","html-keyboard-response","149","2.0.0","118159","pjvh8pgrgmo","ono","bear","20","female","no","no","0","3","null","<div style=""font-size:60px;"">+</div>","null","","","","","","",""
"","","","","","audio-keyboard-response","150","2.0.0","118744","pjvh8pgrgmo","ono","bear","20","female","no","no","0","3","null","stimuli/sounds/drop_sound_A.wav","null","","","","","","",""
"","","","","","html-keyboard-response","151","2.0.0","119745","pjvh8pgrgmo","ono","bear","20","female","no","no","0","3","null","","null","","","","","","",""
"","","","","","image-keyboard-response","152","2.0.0","119981","pjvh8pgrgmo","ono","bear","20","female","no","no","0","3","235","stimuli/pictures/cough_man_1.jpg","1","0","","false","no","sound","stimuli/sounds/drop_sound_A.wav",""
"","","","","","audio-keyboard-response","153","2.0.0","120982","pjvh8pgrgmo","ono","bear","20","female","no","no","0","3","null","stimuli/sounds/buzz.wav","null","","","","","","",""
"","","","","","html-keyboard-response","154","2.0.0","121177","pjvh8pgrgmo","ono","bear","20","female","no","no","0","3","93","<div style=""font-size:30px;"">Press space to start the trial</div>"," ","","","","","","",""
"","","","","","html-keyboard-response","155","2.0.0","121429","pjvh8pgrgmo","ono","bear","20","female","no","no","0","3","null","<div style=""font-size:60px;"">+</div>","null","","","","","","",""
"","","","","","audio-keyboard-response","156","2.0.0","122028","pjvh8pgrgmo","ono","bear","20","female","no","no","0","3","null","stimuli/sounds/dog_sound_A.wav","null","","","","","","",""
"","","","","","html-keyboard-response","157","2.0.0","123030","pjvh8pgrgmo","ono","bear","20","female","no","no","0","3","null","","null","","","","","","",""
"","","","","","image-keyboard-response","158","2.0.0","168952","pjvh8pgrgmo","ono","bear","20","female","no","no","0","3","45923","stimuli/pictures/hiccup_wom_2.jpg","0","0","","true","no","sound","stimuli/sounds/dog_sound_A.wav",""
"","","","","","audio-keyboard-response","159","2.0.0","169956","pjvh8pgrgmo","ono","bear","20","female","no","no","0","3","null","stimuli/sounds/bleep.wav","null","","","","","","",""
"","","","","","html-keyboard-response","160","2.0.0","170784","pjvh8pgrgmo","ono","bear","20","female","no","no","0","3","726","<div style=""font-size:30px;"">Press space to start the trial</div>"," ","","","","","","",""
"","","","","","html-keyboard-response","161","2.0.0","171035","pjvh8pgrgmo","ono","bear","20","female","no","no","0","3","null","<div style=""font-size:60px;"">+</div>","null","","","","","","",""
"","","","","","audio-keyboard-response","162","2.0.0","171641","pjvh8pgrgmo","ono","bear","20","female","no","no","0","3","null","stimuli/sounds/hiccup_sound_A.wav","null","","","","","","",""
"","","","","","html-keyboard-response","163","2.0.0","172643","pjvh8pgrgmo","ono","bear","20","female","no","no","0","3","null","","null","","","","","","",""
"","","","","","image-keyboard-response","164","2.0.0","172943","pjvh8pgrgmo","ono","bear","20","female","no","no","0","3","299","stimuli/pictures/hiccup_wom_1.jpg","0","1","","false","yes","sound","stimuli/sounds/hiccup_sound_A.wav",""
"","","","","","audio-keyboard-response","165","2.0.0","173945","pjvh8pgrgmo","ono","bear","20","female","no","no","0","3","null","stimuli/sounds/buzz.wav","null","","","","","","",""
"","","","","","html-keyboard-response","166","2.0.0","174321","pjvh8pgrgmo","ono","bear","20","female","no","no","0","3","276","<div style=""font-size:30px;"">Press space to start the trial</div>"," ","","","","","","",""
"","","","","","html-keyboard-response","167","2.0.0","174574","pjvh8pgrgmo","ono","bear","20","female","no","no","0","3","null","<div style=""font-size:60px;"">+</div>","null","","","","","","",""
"","","","","","audio-keyboard-response","168","2.0.0","175183","pjvh8pgrgmo","ono","bear","20","female","no","no","0","3","null","stimuli/sounds/hiccup_sound_A.wav","null","","","","","","",""
"","","","","","html-keyboard-response","169","2.0.0","176185","pjvh8pgrgmo","ono","bear","20","female","no","no","0","3","null","","null","","","","","","",""
"","","","","","image-keyboard-response","170","2.0.0","176636","pjvh8pgrgmo","ono","bear","20","female","no","no","0","3","450","stimuli/pictures/motor_dirt_2.jpg","1","0","","false","no","sound","stimuli/sounds/hiccup_sound_A.wav",""
"","","","","","audio-keyboard-response","171","2.0.0","177638","pjvh8pgrgmo","ono","bear","20","female","no","no","0","3","null","stimuli/sounds/buzz.wav","null","","","","","","",""
"","","","","","html-keyboard-response","172","2.0.0","178145","pjvh8pgrgmo","ono","bear","20","female","no","no","0","3","404","<div style=""font-size:30px;"">Press space to start the trial</div>"," ","","","","","","",""
"","","","","","html-keyboard-response","173","2.0.0","178397","pjvh8pgrgmo","ono","bear","20","female","no","no","0","3","null","<div style=""font-size:60px;"">+</div>","null","","","","","","",""
"","","","","","audio-keyboard-response","174","2.0.0","179006","pjvh8pgrgmo","ono","bear","20","female","no","no","0","3","null","stimuli/sounds/hiccup_sound_A.wav","null","","","","","","",""
"","","","","","html-keyboard-response","175","2.0.0","180008","pjvh8pgrgmo","ono","bear","20","female","no","no","0","3","null","","null","","","","","","",""
"","","","","","image-keyboard-response","176","2.0.0","180296","pjvh8pgrgmo","ono","bear","20","female","no","no","0","3","287","stimuli/pictures/motor_dirt_1.jpg","1","0","","false","no","sound","stimuli/sounds/hiccup_sound_A.wav",""
"","","","","","audio-keyboard-response","177","2.0.0","181298","pjvh8pgrgmo","ono","bear","20","female","no","no","0","3","null","stimuli/sounds/buzz.wav","null","","","","","","",""
"","","","","","html-keyboard-response","178","2.0.0","181422","pjvh8pgrgmo","ono","bear","20","female","no","no","0","3","21","<div style=""font-size:30px;"">Press space to start the trial</div>"," ","","","","","","",""
"","","","","","html-keyboard-response","179","2.0.0","181673","pjvh8pgrgmo","ono","bear","20","female","no","no","0","3","null","<div style=""font-size:60px;"">+</div>","null","","","","","","",""
"","","","","","audio-keyboard-response","180","2.0.0","182307","pjvh8pgrgmo","ono","bear","20","female","no","no","0","3","null","stimuli/sounds/cough_label_A.wav","null","","","","","","",""
"","","","","","html-keyboard-response","181","2.0.0","183309","pjvh8pgrgmo","ono","bear","20","female","no","no","0","3","null","","null","","","","","","",""
"","","","","","image-keyboard-response","182","2.0.0","183641","pjvh8pgrgmo","ono","bear","20","female","no","no","0","3","330","stimuli/pictures/motor_harley_1.jpg","1","0","","false","no","sound","stimuli/sounds/cough_label_A.wav",""
"","","","","","audio-keyboard-response","183","2.0.0","184643","pjvh8pgrgmo","ono","bear","20","female","no","no","0","3","null","stimuli/sounds/buzz.wav","null","","","","","","",""
"","","","","","html-keyboard-response","184","2.0.0","184921","pjvh8pgrgmo","ono","bear","20","female","no","no","0","3","174","<div style=""font-size:30px;"">Press space to start the trial</div>"," ","","","","","","",""
"","","","","","html-keyboard-response","185","2.0.0","185173","pjvh8pgrgmo","ono","bear","20","female","no","no","0","3","null","<div style=""font-size:60px;"">+</div>","null","","","","","","",""
"","","","","","audio-keyboard-response","186","2.0.0","185774","pjvh8pgrgmo","ono","bear","20","female","no","no","0","3","null","stimuli/sounds/hiccup_sound_B.wav","null","","","","","","",""
"","","","","","html-keyboard-response","187","2.0.0","186776","pjvh8pgrgmo","ono","bear","20","female","no","no","0","3","null","","null","","","","","","",""
"","","","","","image-keyboard-response","188","2.0.0","187086","pjvh8pgrgmo","ono","bear","20","female","no","no","0","3","309","stimuli/pictures/hiccup_man_1.jpg","1","1","","true","yes","sound","stimuli/sounds/hiccup_sound_B.wav",""
"","","","","","audio-keyboard-response","189","2.0.0","188088","pjvh8pgrgmo","ono","bear","20","female","no","no","0","3","null","stimuli/sounds/bleep.wav","null","","","","","","",""
"","","","","","html-keyboard-response","190","2.0.0","188385","pjvh8pgrgmo","ono","bear","20","female","no","no","0","3","195","<div style=""font-size:30px;"">Press space to start the trial</div>"," ","","","","","","",""
"","","","","","html-keyboard-response","191","2.0.0","188637","pjvh8pgrgmo","ono","bear","20","female","no","no","0","3","null","<div style=""font-size:60px;"">+</div>","null","","","","","","",""
"","","","","","audio-keyboard-response","192","2.0.0","189240","pjvh8pgrgmo","ono","bear","20","female","no","no","0","3","null","stimuli/sounds/dog_label_B.wav","null","","","","","","",""
"","","","","","html-keyboard-response","193","2.0.0","190242","pjvh8pgrgmo","ono","bear","20","female","no","no","0","3","null","","null","","","","","","",""
"","","","","","image-keyboard-response","194","2.0.0","190774","pjvh8pgrgmo","ono","bear","20","female","no","no","0","3","531","stimuli/pictures/cough_wom_2.jpg","1","0","","false","no","sound","stimuli/sounds/dog_label_B.wav",""
"","","","","","audio-keyboard-response","195","2.0.0","191775","pjvh8pgrgmo","ono","bear","20","female","no","no","0","3","null","stimuli/sounds/buzz.wav","null","","","","","","",""
"","","","","","html-keyboard-response","196","2.0.0","192257","pjvh8pgrgmo","ono","bear","20","female","no","no","0","3","380","<div style=""font-size:30px;"">Press space to start the trial</div>"," ","","","","","","",""
"","","","","","html-keyboard-response","197","2.0.0","192509","pjvh8pgrgmo","ono","bear","20","female","no","no","0","3","null","<div style=""font-size:60px;"">+</div>","null","","","","","","",""
"","","","","","audio-keyboard-response","198","2.0.0","193117","pjvh8pgrgmo","ono","bear","20","female","no","no","0","3","null","stimuli/sounds/cough_label_B.wav","null","","","","","","",""
"","","","","","html-keyboard-response","199","2.0.0","194119","pjvh8pgrgmo","ono","bear","20","female","no","no","0","3","null","","null","","","","","","",""
"","","","","","image-keyboard-response","200","2.0.0","194255","pjvh8pgrgmo","ono","bear","20","female","no","no","0","3","135","stimuli/pictures/drop_multi_2.jpg","0","0","","true","no","sound","stimuli/sounds/cough_label_B.wav",""
"","","","","","audio-keyboard-response","201","2.0.0","195257","pjvh8pgrgmo","ono","bear","20","female","no","no","0","3","null","stimuli/sounds/bleep.wav","null","","","","","","",""
"","","","","","html-keyboard-response","202","2.0.0","201124","pjvh8pgrgmo","ono","bear","20","female","no","no","0","3","5764","<div style=""font-size:30px;"">Press space to start the trial</div>"," ","","","","","","",""
"","","","","","html-keyboard-response","203","2.0.0","201375","pjvh8pgrgmo","ono","bear","20","female","no","no","0","3","null","<div style=""font-size:60px;"">+</div>","null","","","","","","",""
"","","","","","audio-keyboard-response","204","2.0.0","202039","pjvh8pgrgmo","ono","bear","20","female","no","no","0","3","null","stimuli/sounds/cough_sound_A.wav","null","","","","","","",""
"","","","","","html-keyboard-response","205","2.0.0","203042","pjvh8pgrgmo","ono","bear","20","female","no","no","0","3","null","","null","","","","","","",""
"","","","","","image-keyboard-response","206","2.0.0","203945","pjvh8pgrgmo","ono","bear","20","female","no","no","0","3","902","stimuli/pictures/dog_york_2.jpg","0","0","","true","no","sound","stimuli/sounds/cough_sound_A.wav",""
"","","","","","audio-keyboard-response","207","2.0.0","204947","pjvh8pgrgmo","ono","bear","20","female","no","no","0","3","null","stimuli/sounds/bleep.wav","null","","","","","","",""
"","","","","","html-keyboard-response","208","2.0.0","206804","pjvh8pgrgmo","ono","bear","20","female","no","no","0","3","1754","<div style=""font-size:30px;"">Press space to start the trial</div>"," ","","","","","","",""
"","","","","","html-keyboard-response","209","2.0.0","207056","pjvh8pgrgmo","ono","bear","20","female","no","no","0","3","null","<div style=""font-size:60px;"">+</div>","null","","","","","","",""
"","","","","","audio-keyboard-response","210","2.0.0","207719","pjvh8pgrgmo","ono","bear","20","female","no","no","0","3","null","stimuli/sounds/cough_sound_A.wav","null","","","","","","",""
"","","","","","html-keyboard-response","211","2.0.0","208721","pjvh8pgrgmo","ono","bear","20","female","no","no","0","3","null","","null","","","","","","",""
"","","","","","image-keyboard-response","212","2.0.0","211802","pjvh8pgrgmo","ono","bear","20","female","no","no","0","3","3079","stimuli/pictures/cough_wom_1.jpg","0","1","","false","yes","sound","stimuli/sounds/cough_sound_A.wav",""
"","","","","","audio-keyboard-response","213","2.0.0","212805","pjvh8pgrgmo","ono","bear","20","female","no","no","0","3","null","stimuli/sounds/buzz.wav","null","","","","","","",""
"","","","","","html-keyboard-response","214","2.0.0","215197","pjvh8pgrgmo","ono","bear","20","female","no","no","0","3","2290","<div style=""font-size:30px;"">Press space to start the trial</div>"," ","","","","","","",""
"","","","","","html-keyboard-response","215","2.0.0","215450","pjvh8pgrgmo","ono","bear","20","female","no","no","0","3","null","<div style=""font-size:60px;"">+</div>","null","","","","","","",""
"","","","","","audio-keyboard-response","216","2.0.0","216054","pjvh8pgrgmo","ono","bear","20","female","no","no","0","3","null","stimuli/sounds/drop_sound_B.wav","null","","","","","","",""
"","","","","","html-keyboard-response","217","2.0.0","217056","pjvh8pgrgmo","ono","bear","20","female","no","no","0","3","null","","null","","","","","","",""
"","","","","","image-keyboard-response","218","2.0.0","217401","pjvh8pgrgmo","ono","bear","20","female","no","no","0","3","344","stimuli/pictures/drop_single_2.jpg","1","1","","true","no","sound","stimuli/sounds/drop_sound_B.wav",""
"","","","","","audio-keyboard-response","219","2.0.0","218403","pjvh8pgrgmo","ono","bear","20","female","no","no","0","3","null","stimuli/sounds/bleep.wav","null","","","","","","",""
"","","","","","html-keyboard-response","220","2.0.0","219128","pjvh8pgrgmo","ono","bear","20","female","no","no","0","3","624","<div style=""font-size:30px;"">Press space to start the trial</div>"," ","","","","","","",""
"","","","","","html-keyboard-response","221","2.0.0","219381","pjvh8pgrgmo","ono","bear","20","female","no","no","0","3","null","<div style=""font-size:60px;"">+</div>","null","","","","","","",""
"","","","","","audio-keyboard-response","222","2.0.0","220059","pjvh8pgrgmo","ono","bear","20","female","no","no","0","3","null","stimuli/sounds/cough_sound_B.wav","null","","","","","","",""
"","","","","","html-keyboard-response","223","2.0.0","221061","pjvh8pgrgmo","ono","bear","20","female","no","no","0","3","null","","null","","","","","","",""
"","","","","","image-keyboard-response","224","2.0.0","221566","pjvh8pgrgmo","ono","bear","20","female","no","no","0","3","504","stimuli/pictures/hiccup_wom_2.jpg","1","0","","false","no","sound","stimuli/sounds/cough_sound_B.wav",""
"","","","","","audio-keyboard-response","225","2.0.0","222371","pjvh8pgrgmo","ono","bear","20","female","no","no","0","3","805","stimuli/sounds/buzz.wav"," ","","","","","","",""
"","","","","","html-keyboard-response","226","2.0.0","222597","pjvh8pgrgmo","ono","bear","20","female","no","no","0","3","124","<div style=""font-size:30px;"">Press space to start the trial</div>"," ","","","","","","",""
"","","","","","html-keyboard-response","227","2.0.0","222849","pjvh8pgrgmo","ono","bear","20","female","no","no","0","3","null","<div style=""font-size:60px;"">+</div>","null","","","","","","",""
"","","","","","audio-keyboard-response","228","2.0.0","223515","pjvh8pgrgmo","ono","bear","20","female","no","no","0","3","null","stimuli/sounds/cough_sound_A.wav","null","","","","","","",""
"","","","","","html-keyboard-response","229","2.0.0","224518","pjvh8pgrgmo","ono","bear","20","female","no","no","0","3","null","","null","","","","","","",""
"","","","","","image-keyboard-response","230","2.0.0","224642","pjvh8pgrgmo","ono","bear","20","female","no","no","0","3","123","stimuli/pictures/dog_rott_1.jpg","0","0","","true","no","sound","stimuli/sounds/cough_sound_A.wav",""
"","","","","","audio-keyboard-response","231","2.0.0","225644","pjvh8pgrgmo","ono","bear","20","female","no","no","0","3","null","stimuli/sounds/bleep.wav","null","","","","","","",""
"","","","","","html-keyboard-response","232","2.0.0","227554","pjvh8pgrgmo","ono","bear","20","female","no","no","0","3","1808","<div style=""font-size:30px;"">Press space to start the trial</div>"," ","","","","","","",""
"","","","","","html-keyboard-response","233","2.0.0","227806","pjvh8pgrgmo","ono","bear","20","female","no","no","0","3","null","<div style=""font-size:60px;"">+</div>","null","","","","","","",""
"","","","","","audio-keyboard-response","234","2.0.0","228406","pjvh8pgrgmo","ono","bear","20","female","no","no","0","3","null","stimuli/sounds/motor_label_B.wav","null","","","","","","",""
"","","","","","html-keyboard-response","235","2.0.0","229407","pjvh8pgrgmo","ono","bear","20","female","no","no","0","3","null","","null","","","","","","",""
"","","","","","image-keyboard-response","236","2.0.0","229883","pjvh8pgrgmo","ono","bear","20","female","no","no","0","3","473","stimuli/pictures/motor_dirt_2.jpg","0","1","","false","yes","sound","stimuli/sounds/motor_label_B.wav",""
"","","","","","audio-keyboard-response","237","2.0.0","230885","pjvh8pgrgmo","ono","bear","20","female","no","no","0","3","null","stimuli/sounds/buzz.wav","null","","","","","","",""
"","","","","","html-keyboard-response","238","2.0.0","233499","pjvh8pgrgmo","ono","bear","20","female","no","no","0","3","2512","<div style=""font-size:30px;"">Press space to start the trial</div>"," ","","","","","","",""
"","","","","","html-keyboard-response","239","2.0.0","233751","pjvh8pgrgmo","ono","bear","20","female","no","no","0","3","null","<div style=""font-size:60px;"">+</div>","null","","","","","","",""
"","","","","","audio-keyboard-response","240","2.0.0","234352","pjvh8pgrgmo","ono","bear","20","female","no","no","0","3","null","stimuli/sounds/dog_sound_B.wav","null","","","","","","",""
"","","","","","html-keyboard-response","241","2.0.0","235354","pjvh8pgrgmo","ono","bear","20","female","no","no","0","3","null","","null","","","","","","",""
"","","","","","image-keyboard-response","242","2.0.0","235835","pjvh8pgrgmo","ono","bear","20","female","no","no","0","3","480","stimuli/pictures/motor_harley_2.jpg","1","0","","false","no","sound","stimuli/sounds/dog_sound_B.wav",""
"","","","","","audio-keyboard-response","243","2.0.0","236838","pjvh8pgrgmo","ono","bear","20","female","no","no","0","3","null","stimuli/sounds/buzz.wav","null","","","","","","",""
"","","","","","html-keyboard-response","244","2.0.0","238567","pjvh8pgrgmo","ono","bear","20","female","no","no","0","3","1628","<div style=""font-size:30px;"">Press space to start the trial</div>"," ","","","","","","",""
"","","","","","html-keyboard-response","245","2.0.0","238818","pjvh8pgrgmo","ono","bear","20","female","no","no","0","3","null","<div style=""font-size:60px;"">+</div>","null","","","","","","",""
"","","","","","audio-keyboard-response","246","2.0.0","239418","pjvh8pgrgmo","ono","bear","20","female","no","no","0","3","null","stimuli/sounds/hiccup_sound_B.wav","null","","","","","","",""
"","","","","","html-keyboard-response","247","2.0.0","240421","pjvh8pgrgmo","ono","bear","20","female","no","no","0","3","null","","null","","","","","","",""
"","","","","","image-keyboard-response","248","2.0.0","240992","pjvh8pgrgmo","ono","bear","20","female","no","no","0","3","571","stimuli/pictures/drop_single_1.jpg","1","0","","false","no","sound","stimuli/sounds/hiccup_sound_B.wav",""
"","","","","","audio-keyboard-response","249","2.0.0","241994","pjvh8pgrgmo","ono","bear","20","female","no","no","0","3","null","stimuli/sounds/buzz.wav","null","","","","","","",""
"","","","","","html-keyboard-response","250","2.0.0","243469","pjvh8pgrgmo","ono","bear","20","female","no","no","0","3","1373","<div style=""font-size:30px;"">Press space to start the trial</div>"," ","","","","","","",""
"","","","","","html-keyboard-response","251","2.0.0","243720","pjvh8pgrgmo","ono","bear","20","female","no","no","0","3","null","<div style=""font-size:60px;"">+</div>","null","","","","","","",""
"","","","","","audio-keyboard-response","252","2.0.0","244320","pjvh8pgrgmo","ono","bear","20","female","no","no","0","3","null","stimuli/sounds/dog_label_A.wav","null","","","","","","",""
"","","","","","html-keyboard-response","253","2.0.0","245322","pjvh8pgrgmo","ono","bear","20","female","no","no","0","3","null","","null","","","","","","",""
"","","","","","image-keyboard-response","254","2.0.0","245717","pjvh8pgrgmo","ono","bear","20","female","no","no","0","3","395","stimuli/pictures/drop_single_2.jpg","0","0","","true","no","sound","stimuli/sounds/dog_label_A.wav",""
"","","","","","audio-keyboard-response","255","2.0.0","246720","pjvh8pgrgmo","ono","bear","20","female","no","no","0","3","null","stimuli/sounds/bleep.wav","null","","","","","","",""
"","","","","","html-keyboard-response","256","2.0.0","247340","pjvh8pgrgmo","ono","bear","20","female","no","no","0","3","518","<div style=""font-size:30px;"">Press space to start the trial</div>"," ","","","","","","",""
"","","","","","html-keyboard-response","257","2.0.0","247592","pjvh8pgrgmo","ono","bear","20","female","no","no","0","3","null","<div style=""font-size:60px;"">+</div>","null","","","","","","",""
"","","","","","audio-keyboard-response","258","2.0.0","248202","pjvh8pgrgmo","ono","bear","20","female","no","no","0","3","null","stimuli/sounds/drop_label_B.wav","null","","","","","","",""
"","","","","","html-keyboard-response","259","2.0.0","249204","pjvh8pgrgmo","ono","bear","20","female","no","no","0","3","null","","null","","","","","","",""
"","","","","","image-keyboard-response","260","2.0.0","250086","pjvh8pgrgmo","ono","bear","20","female","no","no","0","3","881","stimuli/pictures/drop_multi_1.jpg","1","1","","true","yes","sound","stimuli/sounds/drop_label_B.wav",""
"","","","","","audio-keyboard-response","261","2.0.0","251089","pjvh8pgrgmo","ono","bear","20","female","no","no","0","3","null","stimuli/sounds/bleep.wav","null","","","","","","",""
"","","","","","html-keyboard-response","262","2.0.0","251514","pjvh8pgrgmo","ono","bear","20","female","no","no","0","3","323","<div style=""font-size:30px;"">Press space to start the trial</div>"," ","","","","","","",""
"","","","","","html-keyboard-response","263","2.0.0","251767","pjvh8pgrgmo","ono","bear","20","female","no","no","0","3","null","<div style=""font-size:60px;"">+</div>","null","","","","","","",""
"","","","","","audio-keyboard-response","264","2.0.0","252314","pjvh8pgrgmo","ono","bear","20","female","no","no","0","3","null","stimuli/sounds/drop_label_A.wav","null","","","","","","",""
"","","","","","html-keyboard-response","265","2.0.0","253317","pjvh8pgrgmo","ono","bear","20","female","no","no","0","3","null","","null","","","","","","",""
"","","","","","image-keyboard-response","266","2.0.0","253653","pjvh8pgrgmo","ono","bear","20","female","no","no","0","3","335","stimuli/pictures/drop_multi_1.jpg","0","1","","false","yes","sound","stimuli/sounds/drop_label_A.wav",""
"","","","","","audio-keyboard-response","267","2.0.0","254655","pjvh8pgrgmo","ono","bear","20","female","no","no","0","3","null","stimuli/sounds/buzz.wav","null","","","","","","",""
"","","","","","html-keyboard-response","268","2.0.0","256568","pjvh8pgrgmo","ono","bear","20","female","no","no","0","3","1811","<p>You have completed a block. Press R when you are ready to continue</p>","r","","","","","","",""
"","","","","","html-keyboard-response","269","2.0.0","257048","pjvh8pgrgmo","ono","bear","20","female","no","no","0","3","480","<div style=""font-size:30px;"">Press space to start the trial</div>"," ","","","","","","",""
"","","","","","html-keyboard-response","270","2.0.0","257300","pjvh8pgrgmo","ono","bear","20","female","no","no","0","3","null","<div style=""font-size:60px;"">+</div>","null","","","","","","",""
"","","","","","audio-keyboard-response","271","2.0.0","257903","pjvh8pgrgmo","ono","bear","20","female","no","no","0","3","null","stimuli/sounds/dog_label_B.wav","null","","","","","","",""
"","","","","","html-keyboard-response","272","2.0.0","258904","pjvh8pgrgmo","ono","bear","20","female","no","no","0","3","null","","null","","","","","","",""
"","","","","","image-keyboard-response","273","2.0.0","259226","pjvh8pgrgmo","ono","bear","20","female","no","no","0","3","321","stimuli/pictures/dog_rott_2.jpg","1","1","","true","yes","sound","stimuli/sounds/dog_label_B.wav",""
"","","","","","audio-keyboard-response","274","2.0.0","260229","pjvh8pgrgmo","ono","bear","20","female","no","no","0","3","null","stimuli/sounds/bleep.wav","null","","","","","","",""
"","","","","","html-keyboard-response","275","2.0.0","260617","pjvh8pgrgmo","ono","bear","20","female","no","no","0","3","286","<div style=""font-size:30px;"">Press space to start the trial</div>"," ","","","","","","",""
"","","","","","html-keyboard-response","276","2.0.0","260869","pjvh8pgrgmo","ono","bear","20","female","no","no","0","3","null","<div style=""font-size:60px;"">+</div>","null","","","","","","",""
"","","","","","audio-keyboard-response","277","2.0.0","261551","pjvh8pgrgmo","ono","bear","20","female","no","no","0","3","null","stimuli/sounds/cough_sound_B.wav","null","","","","","","",""
"","","","","","html-keyboard-response","278","2.0.0","262553","pjvh8pgrgmo","ono","bear","20","female","no","no","0","3","null","","null","","","","","","",""
"","","","","","image-keyboard-response","279","2.0.0","262696","pjvh8pgrgmo","ono","bear","20","female","no","no","0","3","143","stimuli/pictures/cough_man_2.jpg","0","1","","false","yes","sound","stimuli/sounds/cough_sound_B.wav",""
"","","","","","audio-keyboard-response","280","2.0.0","263698","pjvh8pgrgmo","ono","bear","20","female","no","no","0","3","null","stimuli/sounds/buzz.wav","null","","","","","","",""
"","","","","","html-keyboard-response","281","2.0.0","264312","pjvh8pgrgmo","ono","bear","20","female","no","no","0","3","511","<div style=""font-size:30px;"">Press space to start the trial</div>"," ","","","","","","",""
"","","","","","html-keyboard-response","282","2.0.0","264564","pjvh8pgrgmo","ono","bear","20","female","no","no","0","3","null","<div style=""font-size:60px;"">+</div>","null","","","","","","",""
"","","","","","audio-keyboard-response","283","2.0.0","265178","pjvh8pgrgmo","ono","bear","20","female","no","no","0","3","null","stimuli/sounds/drop_label_B.wav","null","","","","","","",""
"","","","","","html-keyboard-response","284","2.0.0","266179","pjvh8pgrgmo","ono","bear","20","female","no","no","0","3","null","","null","","","","","","",""
"","","","","","image-keyboard-response","285","2.0.0","266446","pjvh8pgrgmo","ono","bear","20","female","no","no","0","3","266","stimuli/pictures/drop_single_1.jpg","1","1","","true","yes","sound","stimuli/sounds/drop_label_B.wav",""
"","","","","","audio-keyboard-response","286","2.0.0","267180","pjvh8pgrgmo","ono","bear","20","female","no","no","0","3","731","stimuli/sounds/bleep.wav"," ","","","","","","",""
"","","","","","html-keyboard-response","287","2.0.0","267566","pjvh8pgrgmo","ono","bear","20","female","no","no","0","3","284","<div style=""font-size:30px;"">Press space to start the trial</div>"," ","","","","","","",""
"","","","","","html-keyboard-response","288","2.0.0","267818","pjvh8pgrgmo","ono","bear","20","female","no","no","0","3","null","<div style=""font-size:60px;"">+</div>","null","","","","","","",""
"","","","","","audio-keyboard-response","289","2.0.0","268419","pjvh8pgrgmo","ono","bear","20","female","no","no","0","3","null","stimuli/sounds/dog_sound_A.wav","null","","","","","","",""
"","","","","","html-keyboard-response","290","2.0.0","269422","pjvh8pgrgmo","ono","bear","20","female","no","no","0","3","null","","null","","","","","","",""
"","","","","","image-keyboard-response","291","2.0.0","269708","pjvh8pgrgmo","ono","bear","20","female","no","no","0","3","285","stimuli/pictures/hiccup_wom_1.jpg","1","0","","false","no","sound","stimuli/sounds/dog_sound_A.wav",""
"","","","","","audio-keyboard-response","292","2.0.0","270308","pjvh8pgrgmo","ono","bear","20","female","no","no","0","3","603","stimuli/sounds/buzz.wav"," ","","","","","","",""
"","","","","","html-keyboard-response","293","2.0.0","270528","pjvh8pgrgmo","ono","bear","20","female","no","no","0","3","117","<div style=""font-size:30px;"">Press space to start the trial</div>"," ","","","","","","",""
"","","","","","html-keyboard-response","294","2.0.0","270780","pjvh8pgrgmo","ono","bear","20","female","no","no","0","3","null","<div style=""font-size:60px;"">+</div>","null","","","","","","",""
"","","","","","audio-keyboard-response","295","2.0.0","271378","pjvh8pgrgmo","ono","bear","20","female","no","no","0","3","null","stimuli/sounds/motor_label_B.wav","null","","","","","","",""
"","","","","","html-keyboard-response","296","2.0.0","272380","pjvh8pgrgmo","ono","bear","20","female","no","no","0","3","null","","null","","","","","","",""
"","","","","","image-keyboard-response","297","2.0.0","273044","pjvh8pgrgmo","ono","bear","20","female","no","no","0","3","663","stimuli/pictures/motor_harley_2.jpg","0","1","","false","yes","sound","stimuli/sounds/motor_label_B.wav",""
"","","","","","audio-keyboard-response","298","2.0.0","274046","pjvh8pgrgmo","ono","bear","20","female","no","no","0","3","null","stimuli/sounds/buzz.wav","null","","","","","","",""
"","","","","","html-keyboard-response","299","2.0.0","274542","pjvh8pgrgmo","ono","bear","20","female","no","no","0","3","395","<div style=""font-size:30px;"">Press space to start the trial</div>"," ","","","","","","",""
"","","","","","html-keyboard-response","300","2.0.0","274793","pjvh8pgrgmo","ono","bear","20","female","no","no","0","3","null","<div style=""font-size:60px;"">+</div>","null","","","","","","",""
"","","","","","audio-keyboard-response","301","2.0.0","275400","pjvh8pgrgmo","ono","bear","20","female","no","no","0","3","null","stimuli/sounds/hiccup_label_B.wav","null","","","","","","",""
"","","","","","html-keyboard-response","302","2.0.0","276401","pjvh8pgrgmo","ono","bear","20","female","no","no","0","3","null","","null","","","","","","",""
"","","","","","image-keyboard-response","303","2.0.0","277064","pjvh8pgrgmo","ono","bear","20","female","no","no","0","3","662","stimuli/pictures/hiccup_man_1.jpg","0","1","","false","yes","sound","stimuli/sounds/hiccup_label_B.wav",""
"","","","","","audio-keyboard-response","304","2.0.0","278066","pjvh8pgrgmo","ono","bear","20","female","no","no","0","3","null","stimuli/sounds/buzz.wav","null","","","","","","",""
"","","","","","html-keyboard-response","305","2.0.0","279141","pjvh8pgrgmo","ono","bear","20","female","no","no","0","3","973","<div style=""font-size:30px;"">Press space to start the trial</div>"," ","","","","","","",""
"","","","","","html-keyboard-response","306","2.0.0","279392","pjvh8pgrgmo","ono","bear","20","female","no","no","0","3","null","<div style=""font-size:60px;"">+</div>","null","","","","","","",""
"","","","","","audio-keyboard-response","307","2.0.0","279992","pjvh8pgrgmo","ono","bear","20","female","no","no","0","3","null","stimuli/sounds/dog_label_B.wav","null","","","","","","",""
"","","","","","html-keyboard-response","308","2.0.0","280994","pjvh8pgrgmo","ono","bear","20","female","no","no","0","3","null","","null","","","","","","",""
"","","","","","image-keyboard-response","309","2.0.0","281822","pjvh8pgrgmo","ono","bear","20","female","no","no","0","3","826","stimuli/pictures/dog_york_2.jpg","0","1","","false","yes","sound","stimuli/sounds/dog_label_B.wav",""
"","","","","","audio-keyboard-response","310","2.0.0","282824","pjvh8pgrgmo","ono","bear","20","female","no","no","0","3","null","stimuli/sounds/buzz.wav","null","","","","","","",""
"","","","","","html-keyboard-response","311","2.0.0","283328","pjvh8pgrgmo","ono","bear","20","female","no","no","0","3","403","<div style=""font-size:30px;"">Press space to start the trial</div>"," ","","","","","","",""
"","","","","","html-keyboard-response","312","2.0.0","283581","pjvh8pgrgmo","ono","bear","20","female","no","no","0","3","null","<div style=""font-size:60px;"">+</div>","null","","","","","","",""
"","","","","","audio-keyboard-response","313","2.0.0","284168","pjvh8pgrgmo","ono","bear","20","female","no","no","0","3","null","stimuli/sounds/drop_sound_A.wav","null","","","","","","",""
"","","","","","html-keyboard-response","314","2.0.0","285170","pjvh8pgrgmo","ono","bear","20","female","no","no","0","3","null","","null","","","","","","",""
"","","","","","image-keyboard-response","315","2.0.0","285376","pjvh8pgrgmo","ono","bear","20","female","no","no","0","3","205","stimuli/pictures/cough_man_2.jpg","1","0","","false","no","sound","stimuli/sounds/drop_sound_A.wav",""
"","","","","","audio-keyboard-response","316","2.0.0","286379","pjvh8pgrgmo","ono","bear","20","female","no","no","0","3","null","stimuli/sounds/buzz.wav","null","","","","","","",""
"","","","","","html-keyboard-response","317","2.0.0","286667","pjvh8pgrgmo","ono","bear","20","female","no","no","0","3","186","<div style=""font-size:30px;"">Press space to start the trial</div>"," ","","","","","","",""
"","","","","","html-keyboard-response","318","2.0.0","286919","pjvh8pgrgmo","ono","bear","20","female","no","no","0","3","null","<div style=""font-size:60px;"">+</div>","null","","","","","","",""
"","","","","","audio-keyboard-response","319","2.0.0","287522","pjvh8pgrgmo","ono","bear","20","female","no","no","0","3","null","stimuli/sounds/motor_sound_B.wav","null","","","","","","",""
"","","","","","html-keyboard-response","320","2.0.0","288524","pjvh8pgrgmo","ono","bear","20","female","no","no","0","3","null","","null","","","","","","",""
"","","","","","image-keyboard-response","321","2.0.0","288541","pjvh8pgrgmo","ono","bear","20","female","no","no","0","3","16","stimuli/pictures/cough_wom_2.jpg","1","0","","false","no","sound","stimuli/sounds/motor_sound_B.wav",""
"","","","","","audio-keyboard-response","322","2.0.0","288928","pjvh8pgrgmo","ono","bear","20","female","no","no","0","3","384","stimuli/sounds/buzz.wav","1","","","","","","",""
"","","","","","html-keyboard-response","323","2.0.0","289665","pjvh8pgrgmo","ono","bear","20","female","no","no","0","3","633","<div style=""font-size:30px;"">Press space to start the trial</div>"," ","","","","","","",""
"","","","","","html-keyboard-response","324","2.0.0","289917","pjvh8pgrgmo","ono","bear","20","female","no","no","0","3","null","<div style=""font-size:60px;"">+</div>","null","","","","","","",""
"","","","","","audio-keyboard-response","325","2.0.0","290584","pjvh8pgrgmo","ono","bear","20","female","no","no","0","3","null","stimuli/sounds/cough_sound_A.wav","null","","","","","","",""
"","","","","","html-keyboard-response","326","2.0.0","291586","pjvh8pgrgmo","ono","bear","20","female","no","no","0","3","null","","null","","","","","","",""
"","","","","","image-keyboard-response","327","2.0.0","291860","pjvh8pgrgmo","ono","bear","20","female","no","no","0","3","274","stimuli/pictures/dog_rott_1.jpg","1","0","","false","no","sound","stimuli/sounds/cough_sound_A.wav",""
"","","","","","audio-keyboard-response","328","2.0.0","292863","pjvh8pgrgmo","ono","bear","20","female","no","no","0","3","null","stimuli/sounds/buzz.wav","null","","","","","","",""
"","","","","","html-keyboard-response","329","2.0.0","297701","pjvh8pgrgmo","ono","bear","20","female","no","no","0","3","4736","<div style=""font-size:30px;"">Press space to start the trial</div>"," ","","","","","","",""
"","","","","","html-keyboard-response","330","2.0.0","297952","pjvh8pgrgmo","ono","bear","20","female","no","no","0","3","null","<div style=""font-size:60px;"">+</div>","null","","","","","","",""
"","","","","","audio-keyboard-response","331","2.0.0","298615","pjvh8pgrgmo","ono","bear","20","female","no","no","0","3","null","stimuli/sounds/cough_sound_A.wav","null","","","","","","",""
"","","","","","html-keyboard-response","332","2.0.0","299617","pjvh8pgrgmo","ono","bear","20","female","no","no","0","3","null","","null","","","","","","",""
"","","","","","image-keyboard-response","333","2.0.0","300050","pjvh8pgrgmo","ono","bear","20","female","no","no","0","3","432","stimuli/pictures/cough_man_1.jpg","0","1","","false","no","sound","stimuli/sounds/cough_sound_A.wav",""
"","","","","","audio-keyboard-response","334","2.0.0","301052","pjvh8pgrgmo","ono","bear","20","female","no","no","0","3","null","stimuli/sounds/buzz.wav","null","","","","","","",""
"","","","","","html-keyboard-response","335","2.0.0","301755","pjvh8pgrgmo","ono","bear","20","female","no","no","0","3","601","<div style=""font-size:30px;"">Press space to start the trial</div>"," ","","","","","","",""
"","","","","","html-keyboard-response","336","2.0.0","302007","pjvh8pgrgmo","ono","bear","20","female","no","no","0","3","null","<div style=""font-size:60px;"">+</div>","null","","","","","","",""
"","","","","","audio-keyboard-response","337","2.0.0","302609","pjvh8pgrgmo","ono","bear","20","female","no","no","0","3","null","stimuli/sounds/motor_sound_B.wav","null","","","","","","",""
"","","","","","html-keyboard-response","338","2.0.0","303612","pjvh8pgrgmo","ono","bear","20","female","no","no","0","3","null","","null","","","","","","",""
"","","","","","image-keyboard-response","339","2.0.0","304011","pjvh8pgrgmo","ono","bear","20","female","no","no","0","3","399","stimuli/pictures/motor_harley_2.jpg","1","1","","true","yes","sound","stimuli/sounds/motor_sound_B.wav",""
"","","","","","audio-keyboard-response","340","2.0.0","304949","pjvh8pgrgmo","ono","bear","20","female","no","no","0","3","933","stimuli/sounds/bleep.wav"," ","","","","","","",""
"","","","","","html-keyboard-response","341","2.0.0","305154","pjvh8pgrgmo","ono","bear","20","female","no","no","0","3","102","<div style=""font-size:30px;"">Press space to start the trial</div>"," ","","","","","","",""
"","","","","","html-keyboard-response","342","2.0.0","305407","pjvh8pgrgmo","ono","bear","20","female","no","no","0","3","null","<div style=""font-size:60px;"">+</div>","null","","","","","","",""
"","","","","","audio-keyboard-response","343","2.0.0","306017","pjvh8pgrgmo","ono","bear","20","female","no","no","0","3","null","stimuli/sounds/drop_label_B.wav","null","","","","","","",""
"","","","","","html-keyboard-response","344","2.0.0","307019","pjvh8pgrgmo","ono","bear","20","female","no","no","0","3","null","","null","","","","","","",""
"","","","","","image-keyboard-response","345","2.0.0","307111","pjvh8pgrgmo","ono","bear","20","female","no","no","0","3","91","stimuli/pictures/drop_single_2.jpg","1","1","","true","yes","sound","stimuli/sounds/drop_label_B.wav",""
"","","","","","audio-keyboard-response","346","2.0.0","308113","pjvh8pgrgmo","ono","bear","20","female","no","no","0","3","null","stimuli/sounds/bleep.wav","null","","","","","","",""
"","","","","","html-keyboard-response","347","2.0.0","309260","pjvh8pgrgmo","ono","bear","20","female","no","no","0","3","1045","<div style=""font-size:30px;"">Press space to start the trial</div>"," ","","","","","","",""
"","","","","","html-keyboard-response","348","2.0.0","309512","pjvh8pgrgmo","ono","bear","20","female","no","no","0","3","null","<div style=""font-size:60px;"">+</div>","null","","","","","","",""
"","","","","","audio-keyboard-response","349","2.0.0","310049","pjvh8pgrgmo","ono","bear","20","female","no","no","0","3","null","stimuli/sounds/hiccup_label_A.wav","null","","","","","","",""
"","","","","","html-keyboard-response","350","2.0.0","311051","pjvh8pgrgmo","ono","bear","20","female","no","no","0","3","null","","null","","","","","","",""
"","","","","","image-keyboard-response","351","2.0.0","315443","pjvh8pgrgmo","ono","bear","20","female","no","no","0","3","4391","stimuli/pictures/hiccup_man_1.jpg","0","1","","false","yes","sound","stimuli/sounds/hiccup_label_A.wav",""
"","","","","","audio-keyboard-response","352","2.0.0","316446","pjvh8pgrgmo","ono","bear","20","female","no","no","0","3","null","stimuli/sounds/buzz.wav","null","","","","","","",""
"","","","","","html-keyboard-response","353","2.0.0","317374","pjvh8pgrgmo","ono","bear","20","female","no","no","0","3","825","<div style=""font-size:30px;"">Press space to start the trial</div>"," ","","","","","","",""
"","","","","","html-keyboard-response","354","2.0.0","317626","pjvh8pgrgmo","ono","bear","20","female","no","no","0","3","null","<div style=""font-size:60px;"">+</div>","null","","","","","","",""
"","","","","","audio-keyboard-response","355","2.0.0","318235","pjvh8pgrgmo","ono","bear","20","female","no","no","0","3","null","stimuli/sounds/drop_sound_B.wav","null","","","","","","",""
"","","","","","html-keyboard-response","356","2.0.0","319237","pjvh8pgrgmo","ono","bear","20","female","no","no","0","3","null","","null","","","","","","",""
"","","","","","image-keyboard-response","357","2.0.0","320315","pjvh8pgrgmo","ono","bear","20","female","no","no","0","3","1076","stimuli/pictures/dog_york_2.jpg","1","0","","false","no","sound","stimuli/sounds/drop_sound_B.wav",""
"","","","","","audio-keyboard-response","358","2.0.0","321318","pjvh8pgrgmo","ono","bear","20","female","no","no","0","3","null","stimuli/sounds/buzz.wav","null","","","","","","",""
"","","","","","html-keyboard-response","359","2.0.0","322236","pjvh8pgrgmo","ono","bear","20","female","no","no","0","3","816","<div style=""font-size:30px;"">Press space to start the trial</div>"," ","","","","","","",""
"","","","","","html-keyboard-response","360","2.0.0","322488","pjvh8pgrgmo","ono","bear","20","female","no","no","0","3","null","<div style=""font-size:60px;"">+</div>","null","","","","","","",""
"","","","","","audio-keyboard-response","361","2.0.0","323089","pjvh8pgrgmo","ono","bear","20","female","no","no","0","3","null","stimuli/sounds/dog_label_B.wav","null","","","","","","",""
"","","","","","html-keyboard-response","362","2.0.0","324091","pjvh8pgrgmo","ono","bear","20","female","no","no","0","3","null","","null","","","","","","",""
"","","","","","image-keyboard-response","363","2.0.0","324727","pjvh8pgrgmo","ono","bear","20","female","no","no","0","3","635","stimuli/pictures/dog_rott_1.jpg","0","1","","false","yes","sound","stimuli/sounds/dog_label_B.wav",""
"","","","","","audio-keyboard-response","364","2.0.0","325729","pjvh8pgrgmo","ono","bear","20","female","no","no","0","3","null","stimuli/sounds/buzz.wav","null","","","","","","",""
"","","","","","html-keyboard-response","365","2.0.0","326711","pjvh8pgrgmo","ono","bear","20","female","no","no","0","3","880","<div style=""font-size:30px;"">Press space to start the trial</div>"," ","","","","","","",""
"","","","","","html-keyboard-response","366","2.0.0","326964","pjvh8pgrgmo","ono","bear","20","female","no","no","0","3","null","<div style=""font-size:60px;"">+</div>","null","","","","","","",""
"","","","","","audio-keyboard-response","367","2.0.0","327568","pjvh8pgrgmo","ono","bear","20","female","no","no","0","3","null","stimuli/sounds/motor_sound_B.wav","null","","","","","","",""
"","","","","","html-keyboard-response","368","2.0.0","328570","pjvh8pgrgmo","ono","bear","20","female","no","no","0","3","null","","null","","","","","","",""
"","","","","","image-keyboard-response","369","2.0.0","330640","pjvh8pgrgmo","ono","bear","20","female","no","no","0","3","2069","stimuli/pictures/cough_man_1.jpg","1","0","","false","no","sound","stimuli/sounds/motor_sound_B.wav",""
"","","","","","audio-keyboard-response","370","2.0.0","331643","pjvh8pgrgmo","ono","bear","20","female","no","no","0","3","null","stimuli/sounds/buzz.wav","null","","","","","","",""
"","","","","","html-keyboard-response","371","2.0.0","332987","pjvh8pgrgmo","ono","bear","20","female","no","no","0","3","1241","<div style=""font-size:30px;"">Press space to start the trial</div>"," ","","","","","","",""
"","","","","","html-keyboard-response","372","2.0.0","333239","pjvh8pgrgmo","ono","bear","20","female","no","no","0","3","null","<div style=""font-size:60px;"">+</div>","null","","","","","","",""
"","","","","","audio-keyboard-response","373","2.0.0","333919","pjvh8pgrgmo","ono","bear","20","female","no","no","0","3","null","stimuli/sounds/cough_sound_B.wav","null","","","","","","",""
"","","","","","html-keyboard-response","374","2.0.0","334922","pjvh8pgrgmo","ono","bear","20","female","no","no","0","3","null","","null","","","","","","",""
"","","","","","image-keyboard-response","375","2.0.0","335381","pjvh8pgrgmo","ono","bear","20","female","no","no","0","3","458","stimuli/pictures/hiccup_man_2.jpg","1","0","","false","no","sound","stimuli/sounds/cough_sound_B.wav",""
"","","","","","audio-keyboard-response","376","2.0.0","336383","pjvh8pgrgmo","ono","bear","20","female","no","no","0","3","null","stimuli/sounds/buzz.wav","null","","","","","","",""
"","","","","","html-keyboard-response","377","2.0.0","337087","pjvh8pgrgmo","ono","bear","20","female","no","no","0","3","600","<div style=""font-size:30px;"">Press space to start the trial</div>"," ","","","","","","",""
"","","","","","html-keyboard-response","378","2.0.0","337338","pjvh8pgrgmo","ono","bear","20","female","no","no","0","3","null","<div style=""font-size:60px;"">+</div>","null","","","","","","",""
"","","","","","audio-keyboard-response","379","2.0.0","337946","pjvh8pgrgmo","ono","bear","20","female","no","no","0","3","null","stimuli/sounds/hiccup_sound_A.wav","null","","","","","","",""
"","","","","","html-keyboard-response","380","2.0.0","338948","pjvh8pgrgmo","ono","bear","20","female","no","no","0","3","null","","null","","","","","","",""
"","","","","","image-keyboard-response","381","2.0.0","339248","pjvh8pgrgmo","ono","bear","20","female","no","no","0","3","298","stimuli/pictures/hiccup_man_1.jpg","0","1","","false","no","sound","stimuli/sounds/hiccup_sound_A.wav",""
"","","","","","audio-keyboard-response","382","2.0.0","340250","pjvh8pgrgmo","ono","bear","20","female","no","no","0","3","null","stimuli/sounds/buzz.wav","null","","","","","","",""
"","","","","","html-keyboard-response","383","2.0.0","341477","pjvh8pgrgmo","ono","bear","20","female","no","no","0","3","1127","<div style=""font-size:30px;"">Press space to start the trial</div>"," ","","","","","","",""
"","","","","","html-keyboard-response","384","2.0.0","341730","pjvh8pgrgmo","ono","bear","20","female","no","no","0","3","null","<div style=""font-size:60px;"">+</div>","null","","","","","","",""
"","","","","","audio-keyboard-response","385","2.0.0","342314","pjvh8pgrgmo","ono","bear","20","female","no","no","0","3","null","stimuli/sounds/drop_sound_A.wav","null","","","","","","",""
"","","","","","html-keyboard-response","386","2.0.0","343316","pjvh8pgrgmo","ono","bear","20","female","no","no","0","3","null","","null","","","","","","",""
"","","","","","image-keyboard-response","387","2.0.0","343756","pjvh8pgrgmo","ono","bear","20","female","no","no","0","3","439","stimuli/pictures/drop_single_2.jpg","0","1","","false","yes","sound","stimuli/sounds/drop_sound_A.wav",""
"","","","","","audio-keyboard-response","388","2.0.0","343965","pjvh8pgrgmo","ono","bear","20","female","no","no","0","3","208","stimuli/sounds/buzz.wav","0","","","","","","",""
"","","","","","html-keyboard-response","389","2.0.0","346750","pjvh8pgrgmo","ono","bear","20","female","no","no","0","3","2684","<p>You have completed a block. Press R when you are ready to continue</p>","r","","","","","","",""
"","","","","","html-keyboard-response","390","2.0.0","347533","pjvh8pgrgmo","ono","bear","20","female","no","no","0","3","782","<div style=""font-size:30px;"">Press space to start the trial</div>"," ","","","","","","",""
"","","","","","html-keyboard-response","391","2.0.0","347785","pjvh8pgrgmo","ono","bear","20","female","no","no","0","3","null","<div style=""font-size:60px;"">+</div>","null","","","","","","",""
"","","","","","audio-keyboard-response","392","2.0.0","348324","pjvh8pgrgmo","ono","bear","20","female","no","no","0","3","null","stimuli/sounds/hiccup_label_A.wav","null","","","","","","",""
"","","","","","html-keyboard-response","393","2.0.0","349326","pjvh8pgrgmo","ono","bear","20","female","no","no","0","3","null","","null","","","","","","",""
"","","","","","image-keyboard-response","394","2.0.0","349792","pjvh8pgrgmo","ono","bear","20","female","no","no","0","3","465","stimuli/pictures/hiccup_man_2.jpg","1","1","","true","yes","sound","stimuli/sounds/hiccup_label_A.wav",""
"","","","","","audio-keyboard-response","395","2.0.0","350795","pjvh8pgrgmo","ono","bear","20","female","no","no","0","3","null","stimuli/sounds/bleep.wav","null","","","","","","",""
"","","","","","html-keyboard-response","396","2.0.0","351175","pjvh8pgrgmo","ono","bear","20","female","no","no","0","3","278","<div style=""font-size:30px;"">Press space to start the trial</div>"," ","","","","","","",""
"","","","","","html-keyboard-response","397","2.0.0","351426","pjvh8pgrgmo","ono","bear","20","female","no","no","0","3","null","<div style=""font-size:60px;"">+</div>","null","","","","","","",""
"","","","","","audio-keyboard-response","398","2.0.0","352030","pjvh8pgrgmo","ono","bear","20","female","no","no","0","3","null","stimuli/sounds/motor_label_A.wav","null","","","","","","",""
"","","","","","html-keyboard-response","399","2.0.0","353032","pjvh8pgrgmo","ono","bear","20","female","no","no","0","3","null","","null","","","","","","",""
"","","","","","image-keyboard-response","400","2.0.0","353065","pjvh8pgrgmo","ono","bear","20","female","no","no","0","3","32","stimuli/pictures/motor_dirt_1.jpg","1","1","","true","yes","sound","stimuli/sounds/motor_label_A.wav",""
"","","","","","audio-keyboard-response","401","2.0.0","353365","pjvh8pgrgmo","ono","bear","20","female","no","no","0","3","299","stimuli/sounds/bleep.wav","1","","","","","","",""
"","","","","","html-keyboard-response","402","2.0.0","354271","pjvh8pgrgmo","ono","bear","20","female","no","no","0","3","803","<div style=""font-size:30px;"">Press space to start the trial</div>"," ","","","","","","",""
"","","","","","html-keyboard-response","403","2.0.0","354524","pjvh8pgrgmo","ono","bear","20","female","no","no","0","3","null","<div style=""font-size:60px;"">+</div>","null","","","","","","",""
"","","","","","audio-keyboard-response","404","2.0.0","355124","pjvh8pgrgmo","ono","bear","20","female","no","no","0","3","null","stimuli/sounds/motor_sound_A.wav","null","","","","","","",""
"","","","","","html-keyboard-response","405","2.0.0","356126","pjvh8pgrgmo","ono","bear","20","female","no","no","0","3","null","","null","","","","","","",""
"","","","","","image-keyboard-response","406","2.0.0","356217","pjvh8pgrgmo","ono","bear","20","female","no","no","0","3","90","stimuli/pictures/drop_multi_2.jpg","0","0","","true","no","sound","stimuli/sounds/motor_sound_A.wav",""
"","","","","","audio-keyboard-response","407","2.0.0","357219","pjvh8pgrgmo","ono","bear","20","female","no","no","0","3","null","stimuli/sounds/bleep.wav","null","","","","","","",""
"","","","","","html-keyboard-response","408","2.0.0","358723","pjvh8pgrgmo","ono","bear","20","female","no","no","0","3","1402","<div style=""font-size:30px;"">Press space to start the trial</div>"," ","","","","","","",""
"","","","","","html-keyboard-response","409","2.0.0","358975","pjvh8pgrgmo","ono","bear","20","female","no","no","0","3","null","<div style=""font-size:60px;"">+</div>","null","","","","","","",""
"","","","","","audio-keyboard-response","410","2.0.0","359577","pjvh8pgrgmo","ono","bear","20","female","no","no","0","3","null","stimuli/sounds/motor_label_B.wav","null","","","","","","",""
"","","","","","html-keyboard-response","411","2.0.0","360577","pjvh8pgrgmo","ono","bear","20","female","no","no","0","3","null","","null","","","","","","",""
"","","","","","image-keyboard-response","412","2.0.0","361158","pjvh8pgrgmo","ono","bear","20","female","no","no","0","3","579","stimuli/pictures/motor_dirt_1.jpg","0","1","","false","yes","sound","stimuli/sounds/motor_label_B.wav",""
"","","","","","audio-keyboard-response","413","2.0.0","362161","pjvh8pgrgmo","ono","bear","20","female","no","no","0","3","null","stimuli/sounds/buzz.wav","null","","","","","","",""
"","","","","","html-keyboard-response","414","2.0.0","363663","pjvh8pgrgmo","ono","bear","20","female","no","no","0","3","1402","<div style=""font-size:30px;"">Press space to start the trial</div>"," ","","","","","","",""
"","","","","","html-keyboard-response","415","2.0.0","363915","pjvh8pgrgmo","ono","bear","20","female","no","no","0","3","null","<div style=""font-size:60px;"">+</div>","null","","","","","","",""
"","","","","","audio-keyboard-response","416","2.0.0","364515","pjvh8pgrgmo","ono","bear","20","female","no","no","0","3","null","stimuli/sounds/dog_label_A.wav","null","","","","","","",""
"","","","","","html-keyboard-response","417","2.0.0","365517","pjvh8pgrgmo","ono","bear","20","female","no","no","0","3","null","","null","","","","","","",""
"","","","","","image-keyboard-response","418","2.0.0","366240","pjvh8pgrgmo","ono","bear","20","female","no","no","0","3","722","stimuli/pictures/drop_multi_1.jpg","1","0","","false","no","sound","stimuli/sounds/dog_label_A.wav",""
"","","","","","audio-keyboard-response","419","2.0.0","367243","pjvh8pgrgmo","ono","bear","20","female","no","no","0","3","null","stimuli/sounds/buzz.wav","null","","","","","","",""
"","","","","","html-keyboard-response","420","2.0.0","368122","pjvh8pgrgmo","ono","bear","20","female","no","no","0","3","777","<div style=""font-size:30px;"">Press space to start the trial</div>"," ","","","","","","",""
"","","","","","html-keyboard-response","421","2.0.0","368372","pjvh8pgrgmo","ono","bear","20","female","no","no","0","3","null","<div style=""font-size:60px;"">+</div>","null","","","","","","",""
"","","","","","audio-keyboard-response","422","2.0.0","368973","pjvh8pgrgmo","ono","bear","20","female","no","no","0","3","null","stimuli/sounds/motor_label_A.wav","null","","","","","","",""
"","","","","","html-keyboard-response","423","2.0.0","369976","pjvh8pgrgmo","ono","bear","20","female","no","no","0","3","null","","null","","","","","","",""
"","","","","","image-keyboard-response","424","2.0.0","370333","pjvh8pgrgmo","ono","bear","20","female","no","no","0","3","356","stimuli/pictures/dog_york_2.jpg","1","0","","false","no","sound","stimuli/sounds/motor_label_A.wav",""
"","","","","","audio-keyboard-response","425","2.0.0","371336","pjvh8pgrgmo","ono","bear","20","female","no","no","0","3","null","stimuli/sounds/buzz.wav","null","","","","","","",""
"","","","","","html-keyboard-response","426","2.0.0","372394","pjvh8pgrgmo","ono","bear","20","female","no","no","0","3","956","<div style=""font-size:30px;"">Press space to start the trial</div>"," ","","","","","","",""
"","","","","","html-keyboard-response","427","2.0.0","372646","pjvh8pgrgmo","ono","bear","20","female","no","no","0","3","null","<div style=""font-size:60px;"">+</div>","null","","","","","","",""
"","","","","","audio-keyboard-response","428","2.0.0","373246","pjvh8pgrgmo","ono","bear","20","female","no","no","0","3","null","stimuli/sounds/dog_label_A.wav","null","","","","","","",""
"","","","","","html-keyboard-response","429","2.0.0","374247","pjvh8pgrgmo","ono","bear","20","female","no","no","0","3","null","","null","","","","","","",""
"","","","","","image-keyboard-response","430","2.0.0","374810","pjvh8pgrgmo","ono","bear","20","female","no","no","0","3","562","stimuli/pictures/drop_multi_2.jpg","0","0","","true","no","sound","stimuli/sounds/dog_label_A.wav",""
"","","","","","audio-keyboard-response","431","2.0.0","375812","pjvh8pgrgmo","ono","bear","20","female","no","no","0","3","null","stimuli/sounds/bleep.wav","null","","","","","","",""
"","","","","","html-keyboard-response","432","2.0.0","378582","pjvh8pgrgmo","ono","bear","20","female","no","no","0","3","2669","<div style=""font-size:30px;"">Press space to start the trial</div>"," ","","","","","","",""
"","","","","","html-keyboard-response","433","2.0.0","378834","pjvh8pgrgmo","ono","bear","20","female","no","no","0","3","null","<div style=""font-size:60px;"">+</div>","null","","","","","","",""
"","","","","","audio-keyboard-response","434","2.0.0","379517","pjvh8pgrgmo","ono","bear","20","female","no","no","0","3","null","stimuli/sounds/cough_sound_B.wav","null","","","","","","",""
"","","","","","html-keyboard-response","435","2.0.0","380519","pjvh8pgrgmo","ono","bear","20","female","no","no","0","3","null","","null","","","","","","",""
"","","","","","image-keyboard-response","436","2.0.0","381389","pjvh8pgrgmo","ono","bear","20","female","no","no","0","3","869","stimuli/pictures/hiccup_man_1.jpg","0","0","","true","no","sound","stimuli/sounds/cough_sound_B.wav",""
"","","","","","audio-keyboard-response","437","2.0.0","382392","pjvh8pgrgmo","ono","bear","20","female","no","no","0","3","null","stimuli/sounds/bleep.wav","null","","","","","","",""
"","","","","","html-keyboard-response","438","2.0.0","406294","pjvh8pgrgmo","ono","bear","20","female","no","no","0","3","23802","<div style=""font-size:30px;"">Press space to start the trial</div>"," ","","","","","","",""
"","","","","","html-keyboard-response","439","2.0.0","406546","pjvh8pgrgmo","ono","bear","20","female","no","no","0","3","null","<div style=""font-size:60px;"">+</div>","null","","","","","","",""
"","","","","","audio-keyboard-response","440","2.0.0","407152","pjvh8pgrgmo","ono","bear","20","female","no","no","0","3","null","stimuli/sounds/cough_label_B.wav","null","","","","","","",""
"","","","","","html-keyboard-response","441","2.0.0","408155","pjvh8pgrgmo","ono","bear","20","female","no","no","0","3","null","","null","","","","","","",""
"","","","","","image-keyboard-response","442","2.0.0","411316","pjvh8pgrgmo","ono","bear","20","female","no","no","0","3","3161","stimuli/pictures/drop_multi_1.jpg","0","0","","true","no","sound","stimuli/sounds/cough_label_B.wav",""
"","","","","","audio-keyboard-response","443","2.0.0","412318","pjvh8pgrgmo","ono","bear","20","female","no","no","0","3","null","stimuli/sounds/bleep.wav","null","","","","","","",""
"","","","","","html-keyboard-response","444","2.0.0","413210","pjvh8pgrgmo","ono","bear","20","female","no","no","0","3","789","<div style=""font-size:30px;"">Press space to start the trial</div>"," ","","","","","","",""
"","","","","","html-keyboard-response","445","2.0.0","413463","pjvh8pgrgmo","ono","bear","20","female","no","no","0","3","null","<div style=""font-size:60px;"">+</div>","null","","","","","","",""
"","","","","","audio-keyboard-response","446","2.0.0","414070","pjvh8pgrgmo","ono","bear","20","female","no","no","0","3","null","stimuli/sounds/cough_label_B.wav","null","","","","","","",""
"","","","","","html-keyboard-response","447","2.0.0","415072","pjvh8pgrgmo","ono","bear","20","female","no","no","0","3","null","","null","","","","","","",""
"","","","","","image-keyboard-response","448","2.0.0","416239","pjvh8pgrgmo","ono","bear","20","female","no","no","0","3","1166","stimuli/pictures/drop_single_1.jpg","0","0","","true","no","sound","stimuli/sounds/cough_label_B.wav",""
"","","","","","audio-keyboard-response","449","2.0.0","417242","pjvh8pgrgmo","ono","bear","20","female","no","no","0","3","null","stimuli/sounds/bleep.wav","null","","","","","","",""
"","","","","","html-keyboard-response","450","2.0.0","424100","pjvh8pgrgmo","ono","bear","20","female","no","no","0","3","6756","<div style=""font-size:30px;"">Press space to start the trial</div>"," ","","","","","","",""
"","","","","","html-keyboard-response","451","2.0.0","424351","pjvh8pgrgmo","ono","bear","20","female","no","no","0","3","null","<div style=""font-size:60px;"">+</div>","null","","","","","","",""
"","","","","","audio-keyboard-response","452","2.0.0","424954","pjvh8pgrgmo","ono","bear","20","female","no","no","0","3","null","stimuli/sounds/motor_label_B.wav","null","","","","","","",""
"","","","","","html-keyboard-response","453","2.0.0","425956","pjvh8pgrgmo","ono","bear","20","female","no","no","0","3","null","","null","","","","","","",""
"","","","","","image-keyboard-response","454","2.0.0","426295","pjvh8pgrgmo","ono","bear","20","female","no","no","0","3","338","stimuli/pictures/hiccup_man_1.jpg","0","0","","true","no","sound","stimuli/sounds/motor_label_B.wav",""
"","","","","","audio-keyboard-response","455","2.0.0","427298","pjvh8pgrgmo","ono","bear","20","female","no","no","0","3","null","stimuli/sounds/bleep.wav","null","","","","","","",""
"","","","","","html-keyboard-response","456","2.0.0","427985","pjvh8pgrgmo","ono","bear","20","female","no","no","0","3","585","<div style=""font-size:30px;"">Press space to start the trial</div>"," ","","","","","","",""
"","","","","","html-keyboard-response","457","2.0.0","428237","pjvh8pgrgmo","ono","bear","20","female","no","no","0","3","null","<div style=""font-size:60px;"">+</div>","null","","","","","","",""
"","","","","","audio-keyboard-response","458","2.0.0","428837","pjvh8pgrgmo","ono","bear","20","female","no","no","0","3","null","stimuli/sounds/motor_sound_A.wav","null","","","","","","",""
"","","","","","html-keyboard-response","459","2.0.0","429839","pjvh8pgrgmo","ono","bear","20","female","no","no","0","3","null","","null","","","","","","",""
"","","","","","image-keyboard-response","460","2.0.0","430235","pjvh8pgrgmo","ono","bear","20","female","no","no","0","3","395","stimuli/pictures/drop_multi_1.jpg","0","0","","true","no","sound","stimuli/sounds/motor_sound_A.wav",""
"","","","","","audio-keyboard-response","461","2.0.0","431238","pjvh8pgrgmo","ono","bear","20","female","no","no","0","3","null","stimuli/sounds/bleep.wav","null","","","","","","",""
"","","","","","html-keyboard-response","462","2.0.0","431877","pjvh8pgrgmo","ono","bear","20","female","no","no","0","3","538","<div style=""font-size:30px;"">Press space to start the trial</div>"," ","","","","","","",""
"","","","","","html-keyboard-response","463","2.0.0","432130","pjvh8pgrgmo","ono","bear","20","female","no","no","0","3","null","<div style=""font-size:60px;"">+</div>","null","","","","","","",""
"","","","","","audio-keyboard-response","464","2.0.0","432730","pjvh8pgrgmo","ono","bear","20","female","no","no","0","3","null","stimuli/sounds/motor_sound_A.wav","null","","","","","","",""
"","","","","","html-keyboard-response","465","2.0.0","433732","pjvh8pgrgmo","ono","bear","20","female","no","no","0","3","null","","null","","","","","","",""
"","","","","","image-keyboard-response","466","2.0.0","434023","pjvh8pgrgmo","ono","bear","20","female","no","no","0","3","290","stimuli/pictures/drop_single_1.jpg","0","0","","true","no","sound","stimuli/sounds/motor_sound_A.wav",""
"","","","","","audio-keyboard-response","467","2.0.0","435026","pjvh8pgrgmo","ono","bear","20","female","no","no","0","3","null","stimuli/sounds/bleep.wav","null","","","","","","",""
"","","","","","html-keyboard-response","468","2.0.0","435703","pjvh8pgrgmo","ono","bear","20","female","no","no","0","3","575","<div style=""font-size:30px;"">Press space to start the trial</div>"," ","","","","","","",""
"","","","","","html-keyboard-response","469","2.0.0","435954","pjvh8pgrgmo","ono","bear","20","female","no","no","0","3","null","<div style=""font-size:60px;"">+</div>","null","","","","","","",""
"","","","","","audio-keyboard-response","470","2.0.0","436554","pjvh8pgrgmo","ono","bear","20","female","no","no","0","3","null","stimuli/sounds/dog_sound_B.wav","null","","","","","","",""
"","","","","","html-keyboard-response","471","2.0.0","437556","pjvh8pgrgmo","ono","bear","20","female","no","no","0","3","null","","null","","","","","","",""
"","","","","","image-keyboard-response","472","2.0.0","437968","pjvh8pgrgmo","ono","bear","20","female","no","no","0","3","411","stimuli/pictures/dog_rott_1.jpg","0","1","","false","no","sound","stimuli/sounds/dog_sound_B.wav",""
"","","","","","audio-keyboard-response","473","2.0.0","438971","pjvh8pgrgmo","ono","bear","20","female","no","no","0","3","null","stimuli/sounds/buzz.wav","null","","","","","","",""
"","","","","","html-keyboard-response","474","2.0.0","439213","pjvh8pgrgmo","ono","bear","20","female","no","no","0","3","140","<div style=""font-size:30px;"">Press space to start the trial</div>"," ","","","","","","",""
"","","","","","html-keyboard-response","475","2.0.0","439465","pjvh8pgrgmo","ono","bear","20","female","no","no","0","3","null","<div style=""font-size:60px;"">+</div>","null","","","","","","",""
"","","","","","audio-keyboard-response","476","2.0.0","440068","pjvh8pgrgmo","ono","bear","20","female","no","no","0","3","null","stimuli/sounds/motor_sound_B.wav","null","","","","","","",""
"","","","","","html-keyboard-response","477","2.0.0","441070","pjvh8pgrgmo","ono","bear","20","female","no","no","0","3","null","","null","","","","","","",""
"","","","","","image-keyboard-response","478","2.0.0","441804","pjvh8pgrgmo","ono","bear","20","female","no","no","0","3","733","stimuli/pictures/motor_harley_1.jpg","1","1","","true","yes","sound","stimuli/sounds/motor_sound_B.wav",""
"","","","","","audio-keyboard-response","479","2.0.0","442806","pjvh8pgrgmo","ono","bear","20","female","no","no","0","3","null","stimuli/sounds/bleep.wav","null","","","","","","",""
"","","","","","html-keyboard-response","480","2.0.0","443356","pjvh8pgrgmo","ono","bear","20","female","no","no","0","3","447","<div style=""font-size:30px;"">Press space to start the trial</div>"," ","","","","","","",""
"","","","","","html-keyboard-response","481","2.0.0","443609","pjvh8pgrgmo","ono","bear","20","female","no","no","0","3","null","<div style=""font-size:60px;"">+</div>","null","","","","","","",""
"","","","","","audio-keyboard-response","482","2.0.0","444217","pjvh8pgrgmo","ono","bear","20","female","no","no","0","3","null","stimuli/sounds/hiccup_label_B.wav","null","","","","","","",""
"","","","","","html-keyboard-response","483","2.0.0","445220","pjvh8pgrgmo","ono","bear","20","female","no","no","0","3","null","","null","","","","","","",""
"","","","","","image-keyboard-response","484","2.0.0","445380","pjvh8pgrgmo","ono","bear","20","female","no","no","0","3","159","stimuli/pictures/dog_rott_1.jpg","0","0","","true","no","sound","stimuli/sounds/hiccup_label_B.wav",""
"","","","","","audio-keyboard-response","485","2.0.0","446382","pjvh8pgrgmo","ono","bear","20","female","no","no","0","3","null","stimuli/sounds/bleep.wav","null","","","","","","",""
"","","","","","html-keyboard-response","486","2.0.0","447075","pjvh8pgrgmo","ono","bear","20","female","no","no","0","3","592","<div style=""font-size:30px;"">Press space to start the trial</div>"," ","","","","","","",""
"","","","","","html-keyboard-response","487","2.0.0","447327","pjvh8pgrgmo","ono","bear","20","female","no","no","0","3","null","<div style=""font-size:60px;"">+</div>","null","","","","","","",""
"","","","","","audio-keyboard-response","488","2.0.0","447961","pjvh8pgrgmo","ono","bear","20","female","no","no","0","3","null","stimuli/sounds/cough_label_A.wav","null","","","","","","",""
"","","","","","html-keyboard-response","489","2.0.0","448963","pjvh8pgrgmo","ono","bear","20","female","no","no","0","3","null","","null","","","","","","",""
"","","","","","image-keyboard-response","490","2.0.0","449614","pjvh8pgrgmo","ono","bear","20","female","no","no","0","3","650","stimuli/pictures/cough_man_1.jpg","1","1","","true","yes","sound","stimuli/sounds/cough_label_A.wav",""
"","","","","","audio-keyboard-response","491","2.0.0","450616","pjvh8pgrgmo","ono","bear","20","female","no","no","0","3","null","stimuli/sounds/bleep.wav","null","","","","","","",""
"","","","","","html-keyboard-response","492","2.0.0","451157","pjvh8pgrgmo","ono","bear","20","female","no","no","0","3","439","<div style=""font-size:30px;"">Press space to start the trial</div>"," ","","","","","","",""
"","","","","","html-keyboard-response","493","2.0.0","451408","pjvh8pgrgmo","ono","bear","20","female","no","no","0","3","null","<div style=""font-size:60px;"">+</div>","null","","","","","","",""
"","","","","","audio-keyboard-response","494","2.0.0","452008","pjvh8pgrgmo","ono","bear","20","female","no","no","0","3","null","stimuli/sounds/motor_sound_B.wav","null","","","","","","",""
"","","","","","html-keyboard-response","495","2.0.0","453011","pjvh8pgrgmo","ono","bear","20","female","no","no","0","3","null","","null","","","","","","",""
"","","","","","image-keyboard-response","496","2.0.0","453111","pjvh8pgrgmo","ono","bear","20","female","no","no","0","3","99","stimuli/pictures/cough_man_2.jpg","0","0","","true","no","sound","stimuli/sounds/motor_sound_B.wav",""
