"success","timeout","failed_images","failed_audio","failed_video","trial_type","trial_index","plugin_version","time_elapsed","random_id","condition","participant","age","gender_id","mus_exp","inst_exp","years_exp","mus_listening","rt","stimulus","response","correct_response","practice","correct","congruent","sound_type","audio","question_order"
"true","false","[]","[]","[]","preload","0","2.0.0","53","pk8chspcusg","mus","tortoise","21","","no","yes","less than a year","10","","","","","","","","","",""
"","","","","","html-keyboard-response","1","2.0.0","1256","pk8chspcusg","mus","tortoise","21","","no","yes","less than a year","10","1202","Welcome to the experiment! Press any key to begin.","AudioVolumeDown","","","","","","",""
"true","","","","","fullscreen","2","null","13122","pk8chspcusg","mus","tortoise","21","","no","yes","less than a year","10","10859","","","","","","","","",""
"","","","","","survey-text","3","2.0.0","16321","pk8chspcusg","mus","tortoise","21","","no","yes","less than a year","10","3195","","{""participant_id"":""tortoise""}","","","","","","",""
"","","","","","html-keyboard-response","4","2.0.0","33899","pk8chspcusg","mus","tortoise","21","","no","yes","less than a year","10","17576","
    <p> Please use headphones for the duration of the study.</p>
    <p> Within each trial, you will hear a sound and then be presented with an image in the center of your screen.</p>
    <p>Press the <b>'1'</b> key if what you hear <u>matches</u> what you see.</p>
    <p>Press the <b>'0'</b> key if what you hear <u>does not match</u> what you see.</p>
    <p>Try to respond as quickly and accurately as you can.</p>
    <p> Press any key to begin.</p>
    ","0","","","","","","",""
"","","","","","html-keyboard-response","5","2.0.0","41230","pk8chspcusg","mus","tortoise","21","","no","yes","less than a year","10","7330","
    <div style=""font-size:28px;"">
      <p>You will now complete 4 short practice trials.</p>
      <p>This is just to help you get familiar with the task.</p>
      <p>Press any key to begin.</p>
    </div>
  ","0","","","","","","",""
"","","","","","html-keyboard-response","6","2.0.0","41737","pk8chspcusg","mus","tortoise","21","","no","yes","less than a year","10","null","<div style=""font-size:60px;"">+</div>","null","","","","","","",""
"","","","","","audio-keyboard-response","7","2.0.0","42901","pk8chspcusg","mus","tortoise","21","","no","yes","less than a year","10","null","stimuli/sounds/guitar_label_A.wav","null","","","","","","",""
"","","","","","image-keyboard-response","8","2.0.0","43567","pk8chspcusg","mus","tortoise","21","","no","yes","less than a year","10","663","stimuli/pictures/guitar_acoustic_1.jpg","1","1","true","true","","","",""
"","","","","","audio-keyboard-response","9","2.0.0","44382","pk8chspcusg","mus","tortoise","21","","no","yes","less than a year","10","null","stimuli/sounds/bleep.wav","null","","","","","","",""
"","","","","","html-keyboard-response","10","2.0.0","45097","pk8chspcusg","mus","tortoise","21","","no","yes","less than a year","10","null","<p style='color:green; font-size:30px;'>Correct!</p>","null","","","","","","",""
"","","","","","html-keyboard-response","11","2.0.0","45609","pk8chspcusg","mus","tortoise","21","","no","yes","less than a year","10","null","<div style=""font-size:60px;"">+</div>","null","","","","","","",""
"","","","","","audio-keyboard-response","12","2.0.0","46201","pk8chspcusg","mus","tortoise","21","","no","yes","less than a year","10","null","stimuli/sounds/guitar_sound_B.wav","null","","","","","","",""
"","","","","","image-keyboard-response","13","2.0.0","47122","pk8chspcusg","mus","tortoise","21","","no","yes","less than a year","10","920","stimuli/pictures/guitar_acoustic_2.jpg","1","1","true","true","","","",""
"","","","","","audio-keyboard-response","14","2.0.0","47926","pk8chspcusg","mus","tortoise","21","","no","yes","less than a year","10","null","stimuli/sounds/bleep.wav","null","","","","","","",""
"","","","","","html-keyboard-response","15","2.0.0","48641","pk8chspcusg","mus","tortoise","21","","no","yes","less than a year","10","null","<p style='color:green; font-size:30px;'>Correct!</p>","null","","","","","","",""
"","","","","","html-keyboard-response","16","2.0.0","49155","pk8chspcusg","mus","tortoise","21","","no","yes","less than a year","10","null","<div style=""font-size:60px;"">+</div>","null","","","","","","",""
"","","","","","audio-keyboard-response","17","2.0.0","49761","pk8chspcusg","mus","tortoise","21","","no","yes","less than a year","10","null","stimuli/sounds/flute_sound_A.wav","null","","","","","","",""
"","","","","","image-keyboard-response","18","2.0.0","50875","pk8chspcusg","mus","tortoise","21","","no","yes","less than a year","10","1113","stimuli/pictures/guitar_electric_1.jpg","0","0","true","true","","","",""
"","","","","","audio-keyboard-response","19","2.0.0","51677","pk8chspcusg","mus","tortoise","21","","no","yes","less than a year","10","null","stimuli/sounds/bleep.wav","null","","","","","","",""
"","","","","","html-keyboard-response","20","2.0.0","52382","pk8chspcusg","mus","tortoise","21","","no","yes","less than a year","10","null","<p style='color:green; font-size:30px;'>Correct!</p>","null","","","","","","",""
"","","","","","html-keyboard-response","21","2.0.0","52891","pk8chspcusg","mus","tortoise","21","","no","yes","less than a year","10","null","<div style=""font-size:60px;"">+</div>","null","","","","","","",""
"","","","","","audio-keyboard-response","22","2.0.0","53490","pk8chspcusg","mus","tortoise","21","","no","yes","less than a year","10","null","stimuli/sounds/guitar_sound_A.wav","null","","","","","","",""
"","","","","","image-keyboard-response","23","2.0.0","54420","pk8chspcusg","mus","tortoise","21","","no","yes","less than a year","10","929","stimuli/pictures/guitar_acoustic_1.jpg","0","1","true","false","","","",""
"","","","","","audio-keyboard-response","24","2.0.0","55223","pk8chspcusg","mus","tortoise","21","","no","yes","less than a year","10","null","stimuli/sounds/buzz.wav","null","","","","","","",""
"","","","","","html-keyboard-response","25","2.0.0","55936","pk8chspcusg","mus","tortoise","21","","no","yes","less than a year","10","null","<p style='color:red; font-size:30px;'>Incorrect</p>","null","","","","","","",""
"","","","","","html-keyboard-response","26","2.0.0","56969","pk8chspcusg","mus","tortoise","21","","no","yes","less than a year","10","1031","<p>Practice complete. Press any key to begin the real experiment.</p>","AudioVolumeDown","","","","","","",""
"","","","","","html-keyboard-response","27","2.0.0","66693","pk8chspcusg","mus","tortoise","21","","no","yes","less than a year","10","9723","<div style=""font-size:30px;"">Press space to start the trial</div>"," ","","","","","","",""
"","","","","","html-keyboard-response","28","2.0.0","66944","pk8chspcusg","mus","tortoise","21","","no","yes","less than a year","10","null","<div style=""font-size:60px;"">+</div>","null","","","","","","",""
"","","","","","audio-keyboard-response","29","2.0.0","67551","pk8chspcusg","mus","tortoise","21","","no","yes","less than a year","10","null","stimuli/sounds/piano_label_B.wav","null","","","","","","",""
"","","","","","html-keyboard-response","30","2.0.0","68560","pk8chspcusg","mus","tortoise","21","","no","yes","less than a year","10","null","","null","","","","","","",""
"","","","","","image-keyboard-response","31","2.0.0","69568","pk8chspcusg","mus","tortoise","21","","no","yes","less than a year","10","1007","stimuli/pictures/piano_grand_2.jpg","1","1","","true","yes","sound","stimuli/sounds/piano_label_B.wav",""
"","","","","","audio-keyboard-response","32","2.0.0","70584","pk8chspcusg","mus","tortoise","21","","no","yes","less than a year","10","null","stimuli/sounds/bleep.wav","null","","","","","","",""
"","","","","","html-keyboard-response","33","2.0.0","77310","pk8chspcusg","mus","tortoise","21","","no","yes","less than a year","10","6616","<div style=""font-size:30px;"">Press space to start the trial</div>"," ","","","","","","",""
"","","","","","html-keyboard-response","34","2.0.0","77568","pk8chspcusg","mus","tortoise","21","","no","yes","less than a year","10","null","<div style=""font-size:60px;"">+</div>","null","","","","","","",""
"","","","","","audio-keyboard-response","35","2.0.0","78171","pk8chspcusg","mus","tortoise","21","","no","yes","less than a year","10","null","stimuli/sounds/flute_label_B.wav","null","","","","","","",""
"","","","","","html-keyboard-response","36","2.0.0","79184","pk8chspcusg","mus","tortoise","21","","no","yes","less than a year","10","null","","null","","","","","","",""
"","","","","","image-keyboard-response","37","2.0.0","79778","pk8chspcusg","mus","tortoise","21","","no","yes","less than a year","10","592","stimuli/pictures/drum_bongo_2.jpg","0","0","","true","no","sound","stimuli/sounds/flute_label_B.wav",""
"","","","","","audio-keyboard-response","38","2.0.0","80782","pk8chspcusg","mus","tortoise","21","","no","yes","less than a year","10","null","stimuli/sounds/bleep.wav","null","","","","","","",""
"","","","","","html-keyboard-response","39","2.0.0","82586","pk8chspcusg","mus","tortoise","21","","no","yes","less than a year","10","1697","<div style=""font-size:30px;"">Press space to start the trial</div>"," ","","","","","","",""
"","","","","","html-keyboard-response","40","2.0.0","82847","pk8chspcusg","mus","tortoise","21","","no","yes","less than a year","10","null","<div style=""font-size:60px;"">+</div>","null","","","","","","",""
"","","","","","audio-keyboard-response","41","2.0.0","83441","pk8chspcusg","mus","tortoise","21","","no","yes","less than a year","10","null","stimuli/sounds/phone_label_B.wav","null","","","","","","",""
"","","","","","html-keyboard-response","42","2.0.0","84458","pk8chspcusg","mus","tortoise","21","","no","yes","less than a year","10","null","","null","","","","","","",""
"","","","","","image-keyboard-response","43","2.0.0","85033","pk8chspcusg","mus","tortoise","21","","no","yes","less than a year","10","574","stimuli/pictures/phone_cell_1.jpg","1","1","","true","yes","sound","stimuli/sounds/phone_label_B.wav",""
"","","","","","audio-keyboard-response","44","2.0.0","86044","pk8chspcusg","mus","tortoise","21","","no","yes","less than a year","10","null","stimuli/sounds/bleep.wav","null","","","","","","",""
"","","","","","html-keyboard-response","45","2.0.0","88334","pk8chspcusg","mus","tortoise","21","","no","yes","less than a year","10","2181","<div style=""font-size:30px;"">Press space to start the trial</div>"," ","","","","","","",""
"","","","","","html-keyboard-response","46","2.0.0","88590","pk8chspcusg","mus","tortoise","21","","no","yes","less than a year","10","null","<div style=""font-size:60px;"">+</div>","null","","","","","","",""
"","","","","","audio-keyboard-response","47","2.0.0","89201","pk8chspcusg","mus","tortoise","21","","no","yes","less than a year","10","null","stimuli/sounds/flute_sound_A.wav","null","","","","","","",""
"","","","","","html-keyboard-response","48","2.0.0","90208","pk8chspcusg","mus","tortoise","21","","no","yes","less than a year","10","null","","null","","","","","","",""
"","","","","","image-keyboard-response","49","2.0.0","91027","pk8chspcusg","mus","tortoise","21","","no","yes","less than a year","10","817","stimuli/pictures/phone_rotary_1.jpg","0","0","","true","no","sound","stimuli/sounds/flute_sound_A.wav",""
"","","","","","audio-keyboard-response","50","2.0.0","92039","pk8chspcusg","mus","tortoise","21","","no","yes","less than a year","10","null","stimuli/sounds/bleep.wav","null","","","","","","",""
"","","","","","html-keyboard-response","51","2.0.0","93471","pk8chspcusg","mus","tortoise","21","","no","yes","less than a year","10","1323","<div style=""font-size:30px;"">Press space to start the trial</div>"," ","","","","","","",""
"","","","","","html-keyboard-response","52","2.0.0","93733","pk8chspcusg","mus","tortoise","21","","no","yes","less than a year","10","null","<div style=""font-size:60px;"">+</div>","null","","","","","","",""
"","","","","","audio-keyboard-response","53","2.0.0","94331","pk8chspcusg","mus","tortoise","21","","no","yes","less than a year","10","null","stimuli/sounds/drum_sound_B.wav","null","","","","","","",""
"","","","","","html-keyboard-response","54","2.0.0","95336","pk8chspcusg","mus","tortoise","21","","no","yes","less than a year","10","null","","null","","","","","","",""
"","","","","","image-keyboard-response","55","2.0.0","96368","pk8chspcusg","mus","tortoise","21","","no","yes","less than a year","10","1030","stimuli/pictures/phone_rotary_2.jpg","0","0","","true","no","sound","stimuli/sounds/drum_sound_B.wav",""
"","","","","","audio-keyboard-response","56","2.0.0","97372","pk8chspcusg","mus","tortoise","21","","no","yes","less than a year","10","null","stimuli/sounds/bleep.wav","null","","","","","","",""
"","","","","","html-keyboard-response","57","2.0.0","98325","pk8chspcusg","mus","tortoise","21","","no","yes","less than a year","10","845","<div style=""font-size:30px;"">Press space to start the trial</div>"," ","","","","","","",""
"","","","","","html-keyboard-response","58","2.0.0","98585","pk8chspcusg","mus","tortoise","21","","no","yes","less than a year","10","null","<div style=""font-size:60px;"">+</div>","null","","","","","","",""
"","","","","","audio-keyboard-response","59","2.0.0","99181","pk8chspcusg","mus","tortoise","21","","no","yes","less than a year","10","null","stimuli/sounds/drum_sound_A.wav","null","","","","","","",""
"","","","","","html-keyboard-response","60","2.0.0","100186","pk8chspcusg","mus","tortoise","21","","no","yes","less than a year","10","null","","null","","","","","","",""
"","","","","","image-keyboard-response","61","2.0.0","101180","pk8chspcusg","mus","tortoise","21","","no","yes","less than a year","10","992","stimuli/pictures/drum_kit_2.jpg","1","1","","true","yes","sound","stimuli/sounds/drum_sound_A.wav",""
"","","","","","audio-keyboard-response","62","2.0.0","102194","pk8chspcusg","mus","tortoise","21","","no","yes","less than a year","10","null","stimuli/sounds/bleep.wav","null","","","","","","",""
"","","","","","html-keyboard-response","63","2.0.0","103750","pk8chspcusg","mus","tortoise","21","","no","yes","less than a year","10","1445","<div style=""font-size:30px;"">Press space to start the trial</div>"," ","","","","","","",""
"","","","","","html-keyboard-response","64","2.0.0","104012","pk8chspcusg","mus","tortoise","21","","no","yes","less than a year","10","null","<div style=""font-size:60px;"">+</div>","null","","","","","","",""
"","","","","","audio-keyboard-response","65","2.0.0","104611","pk8chspcusg","mus","tortoise","21","","no","yes","less than a year","10","null","stimuli/sounds/phone_sound_B.wav","null","","","","","","",""
"","","","","","html-keyboard-response","66","2.0.0","105618","pk8chspcusg","mus","tortoise","21","","no","yes","less than a year","10","null","","null","","","","","","",""
"","","","","","image-keyboard-response","67","2.0.0","106923","pk8chspcusg","mus","tortoise","21","","no","yes","less than a year","10","1303","stimuli/pictures/piano_electric_2.jpg","0","0","","true","no","sound","stimuli/sounds/phone_sound_B.wav",""
"","","","","","audio-keyboard-response","68","2.0.0","107927","pk8chspcusg","mus","tortoise","21","","no","yes","less than a year","10","null","stimuli/sounds/bleep.wav","null","","","","","","",""
"","","","","","html-keyboard-response","69","2.0.0","108910","pk8chspcusg","mus","tortoise","21","","no","yes","less than a year","10","874","<div style=""font-size:30px;"">Press space to start the trial</div>"," ","","","","","","",""
"","","","","","html-keyboard-response","70","2.0.0","109172","pk8chspcusg","mus","tortoise","21","","no","yes","less than a year","10","null","<div style=""font-size:60px;"">+</div>","null","","","","","","",""
"","","","","","audio-keyboard-response","71","2.0.0","109781","pk8chspcusg","mus","tortoise","21","","no","yes","less than a year","10","null","stimuli/sounds/piano_sound_A.wav","null","","","","","","",""
"","","","","","html-keyboard-response","72","2.0.0","110791","pk8chspcusg","mus","tortoise","21","","no","yes","less than a year","10","null","","null","","","","","","",""
"","","","","","image-keyboard-response","73","2.0.0","111470","pk8chspcusg","mus","tortoise","21","","no","yes","less than a year","10","678","stimuli/pictures/drum_bongo_1.jpg","0","0","","true","no","sound","stimuli/sounds/piano_sound_A.wav",""
"","","","","","audio-keyboard-response","74","2.0.0","112476","pk8chspcusg","mus","tortoise","21","","no","yes","less than a year","10","null","stimuli/sounds/bleep.wav","null","","","","","","",""
"","","","","","html-keyboard-response","75","2.0.0","113396","pk8chspcusg","mus","tortoise","21","","no","yes","less than a year","10","810","<div style=""font-size:30px;"">Press space to start the trial</div>"," ","","","","","","",""
"","","","","","html-keyboard-response","76","2.0.0","113655","pk8chspcusg","mus","tortoise","21","","no","yes","less than a year","10","null","<div style=""font-size:60px;"">+</div>","null","","","","","","",""
"","","","","","audio-keyboard-response","77","2.0.0","114251","pk8chspcusg","mus","tortoise","21","","no","yes","less than a year","10","null","stimuli/sounds/bird_label_A.wav","null","","","","","","",""
"","","","","","html-keyboard-response","78","2.0.0","115258","pk8chspcusg","mus","tortoise","21","","no","yes","less than a year","10","null","","null","","","","","","",""
"","","","","","image-keyboard-response","79","2.0.0","115785","pk8chspcusg","mus","tortoise","21","","no","yes","less than a year","10","526","stimuli/pictures/bird_song_1.jpg","1","1","","true","yes","sound","stimuli/sounds/bird_label_A.wav",""
"","","","","","audio-keyboard-response","80","2.0.0","116792","pk8chspcusg","mus","tortoise","21","","no","yes","less than a year","10","null","stimuli/sounds/bleep.wav","null","","","","","","",""
"","","","","","html-keyboard-response","81","2.0.0","117825","pk8chspcusg","mus","tortoise","21","","no","yes","less than a year","10","925","<div style=""font-size:30px;"">Press space to start the trial</div>"," ","","","","","","",""
"","","","","","html-keyboard-response","82","2.0.0","118086","pk8chspcusg","mus","tortoise","21","","no","yes","less than a year","10","null","<div style=""font-size:60px;"">+</div>","null","","","","","","",""
"","","","","","audio-keyboard-response","83","2.0.0","118681","pk8chspcusg","mus","tortoise","21","","no","yes","less than a year","10","null","stimuli/sounds/drum_label_A.wav","null","","","","","","",""
"","","","","","html-keyboard-response","84","2.0.0","119696","pk8chspcusg","mus","tortoise","21","","no","yes","less than a year","10","null","","null","","","","","","",""
"","","","","","image-keyboard-response","85","2.0.0","120187","pk8chspcusg","mus","tortoise","21","","no","yes","less than a year","10","489","stimuli/pictures/drum_bongo_1.jpg","1","1","","true","yes","sound","stimuli/sounds/drum_label_A.wav",""
"","","","","","audio-keyboard-response","86","2.0.0","121190","pk8chspcusg","mus","tortoise","21","","no","yes","less than a year","10","null","stimuli/sounds/bleep.wav","null","","","","","","",""
"","","","","","html-keyboard-response","87","2.0.0","121970","pk8chspcusg","mus","tortoise","21","","no","yes","less than a year","10","671","<div style=""font-size:30px;"">Press space to start the trial</div>"," ","","","","","","",""
"","","","","","html-keyboard-response","88","2.0.0","122235","pk8chspcusg","mus","tortoise","21","","no","yes","less than a year","10","null","<div style=""font-size:60px;"">+</div>","null","","","","","","",""
"","","","","","audio-keyboard-response","89","2.0.0","122831","pk8chspcusg","mus","tortoise","21","","no","yes","less than a year","10","null","stimuli/sounds/bird_label_B.wav","null","","","","","","",""
"","","","","","html-keyboard-response","90","2.0.0","123839","pk8chspcusg","mus","tortoise","21","","no","yes","less than a year","10","null","","null","","","","","","",""
"","","","","","image-keyboard-response","91","2.0.0","124405","pk8chspcusg","mus","tortoise","21","","no","yes","less than a year","10","564","stimuli/pictures/phone_rotary_2.jpg","0","0","","true","no","sound","stimuli/sounds/bird_label_B.wav",""
"","","","","","audio-keyboard-response","92","2.0.0","125421","pk8chspcusg","mus","tortoise","21","","no","yes","less than a year","10","null","stimuli/sounds/bleep.wav","null","","","","","","",""
"","","","","","html-keyboard-response","93","2.0.0","125994","pk8chspcusg","mus","tortoise","21","","no","yes","less than a year","10","464","<div style=""font-size:30px;"">Press space to start the trial</div>"," ","","","","","","",""
"","","","","","html-keyboard-response","94","2.0.0","126260","pk8chspcusg","mus","tortoise","21","","no","yes","less than a year","10","null","<div style=""font-size:60px;"">+</div>","null","","","","","","",""
"","","","","","audio-keyboard-response","95","2.0.0","126861","pk8chspcusg","mus","tortoise","21","","no","yes","less than a year","10","null","stimuli/sounds/flute_sound_A.wav","null","","","","","","",""
"","","","","","html-keyboard-response","96","2.0.0","127868","pk8chspcusg","mus","tortoise","21","","no","yes","less than a year","10","null","","null","","","","","","",""
"","","","","","image-keyboard-response","97","2.0.0","128480","pk8chspcusg","mus","tortoise","21","","no","yes","less than a year","10","610","stimuli/pictures/flute_metal_1.jpg","1","1","","true","yes","sound","stimuli/sounds/flute_sound_A.wav",""
"","","","","","audio-keyboard-response","98","2.0.0","129486","pk8chspcusg","mus","tortoise","21","","no","yes","less than a year","10","null","stimuli/sounds/bleep.wav","null","","","","","","",""
"","","","","","html-keyboard-response","99","2.0.0","130892","pk8chspcusg","mus","tortoise","21","","no","yes","less than a year","10","1298","<div style=""font-size:30px;"">Press space to start the trial</div>"," ","","","","","","",""
"","","","","","html-keyboard-response","100","2.0.0","131145","pk8chspcusg","mus","tortoise","21","","no","yes","less than a year","10","null","<div style=""font-size:60px;"">+</div>","null","","","","","","",""
"","","","","","audio-keyboard-response","101","2.0.0","131752","pk8chspcusg","mus","tortoise","21","","no","yes","less than a year","10","null","stimuli/sounds/piano_sound_A.wav","null","","","","","","",""
"","","","","","html-keyboard-response","102","2.0.0","132764","pk8chspcusg","mus","tortoise","21","","no","yes","less than a year","10","null","","null","","","","","","",""
"","","","","","image-keyboard-response","103","2.0.0","133353","pk8chspcusg","mus","tortoise","21","","no","yes","less than a year","10","588","stimuli/pictures/piano_electric_1.jpg","1","1","","true","no","sound","stimuli/sounds/piano_sound_A.wav",""
"","","","","","audio-keyboard-response","104","2.0.0","134370","pk8chspcusg","mus","tortoise","21","","no","yes","less than a year","10","null","stimuli/sounds/bleep.wav","null","","","","","","",""
"","","","","","html-keyboard-response","105","2.0.0","134948","pk8chspcusg","mus","tortoise","21","","no","yes","less than a year","10","469","<div style=""font-size:30px;"">Press space to start the trial</div>"," ","","","","","","",""
"","","","","","html-keyboard-response","106","2.0.0","135209","pk8chspcusg","mus","tortoise","21","","no","yes","less than a year","10","null","<div style=""font-size:60px;"">+</div>","null","","","","","","",""
"","","","","","audio-keyboard-response","107","2.0.0","135812","pk8chspcusg","mus","tortoise","21","","no","yes","less than a year","10","null","stimuli/sounds/piano_sound_B.wav","null","","","","","","",""
"","","","","","html-keyboard-response","108","2.0.0","136818","pk8chspcusg","mus","tortoise","21","","no","yes","less than a year","10","null","","null","","","","","","",""
"","","","","","image-keyboard-response","109","2.0.0","137679","pk8chspcusg","mus","tortoise","21","","no","yes","less than a year","10","859","stimuli/pictures/piano_grand_2.jpg","1","1","","true","no","sound","stimuli/sounds/piano_sound_B.wav",""
"","","","","","audio-keyboard-response","110","2.0.0","138691","pk8chspcusg","mus","tortoise","21","","no","yes","less than a year","10","null","stimuli/sounds/bleep.wav","null","","","","","","",""
"","","","","","html-keyboard-response","111","2.0.0","139674","pk8chspcusg","mus","tortoise","21","","no","yes","less than a year","10","875","<div style=""font-size:30px;"">Press space to start the trial</div>"," ","","","","","","",""
"","","","","","html-keyboard-response","112","2.0.0","139933","pk8chspcusg","mus","tortoise","21","","no","yes","less than a year","10","null","<div style=""font-size:60px;"">+</div>","null","","","","","","",""
"","","","","","audio-keyboard-response","113","2.0.0","140531","pk8chspcusg","mus","tortoise","21","","no","yes","less than a year","10","null","stimuli/sounds/phone_label_A.wav","null","","","","","","",""
"","","","","","html-keyboard-response","114","2.0.0","141547","pk8chspcusg","mus","tortoise","21","","no","yes","less than a year","10","null","","null","","","","","","",""
"","","","","","image-keyboard-response","115","2.0.0","142656","pk8chspcusg","mus","tortoise","21","","no","yes","less than a year","10","1108","stimuli/pictures/drum_kit_1.jpg","0","0","","true","no","sound","stimuli/sounds/phone_label_A.wav",""
"","","","","","audio-keyboard-response","116","2.0.0","143672","pk8chspcusg","mus","tortoise","21","","no","yes","less than a year","10","null","stimuli/sounds/bleep.wav","null","","","","","","",""
"","","","","","html-keyboard-response","117","2.0.0","144284","pk8chspcusg","mus","tortoise","21","","no","yes","less than a year","10","503","<div style=""font-size:30px;"">Press space to start the trial</div>"," ","","","","","","",""
"","","","","","html-keyboard-response","118","2.0.0","144543","pk8chspcusg","mus","tortoise","21","","no","yes","less than a year","10","null","<div style=""font-size:60px;"">+</div>","null","","","","","","",""
"","","","","","audio-keyboard-response","119","2.0.0","145141","pk8chspcusg","mus","tortoise","21","","no","yes","less than a year","10","null","stimuli/sounds/bird_sound_A.wav","null","","","","","","",""
"","","","","","html-keyboard-response","120","2.0.0","146142","pk8chspcusg","mus","tortoise","21","","no","yes","less than a year","10","null","","null","","","","","","",""
"","","","","","image-keyboard-response","121","2.0.0","147436","pk8chspcusg","mus","tortoise","21","","no","yes","less than a year","10","1292","stimuli/pictures/piano_grand_2.jpg","0","0","","true","no","sound","stimuli/sounds/bird_sound_A.wav",""
"","","","","","audio-keyboard-response","122","2.0.0","148452","pk8chspcusg","mus","tortoise","21","","no","yes","less than a year","10","null","stimuli/sounds/bleep.wav","null","","","","","","",""
"","","","","","html-keyboard-response","123","2.0.0","148974","pk8chspcusg","mus","tortoise","21","","no","yes","less than a year","10","413","<div style=""font-size:30px;"">Press space to start the trial</div>"," ","","","","","","",""
"","","","","","html-keyboard-response","124","2.0.0","149227","pk8chspcusg","mus","tortoise","21","","no","yes","less than a year","10","null","<div style=""font-size:60px;"">+</div>","null","","","","","","",""
"","","","","","audio-keyboard-response","125","2.0.0","149821","pk8chspcusg","mus","tortoise","21","","no","yes","less than a year","10","null","stimuli/sounds/phone_label_B.wav","null","","","","","","",""
"","","","","","html-keyboard-response","126","2.0.0","150827","pk8chspcusg","mus","tortoise","21","","no","yes","less than a year","10","null","","null","","","","","","",""
"","","","","","image-keyboard-response","127","2.0.0","151390","pk8chspcusg","mus","tortoise","21","","no","yes","less than a year","10","562","stimuli/pictures/flute_wooden_1.jpg","0","0","","true","no","sound","stimuli/sounds/phone_label_B.wav",""
"","","","","","audio-keyboard-response","128","2.0.0","152401","pk8chspcusg","mus","tortoise","21","","no","yes","less than a year","10","null","stimuli/sounds/bleep.wav","null","","","","","","",""
"","","","","","html-keyboard-response","129","2.0.0","152976","pk8chspcusg","mus","tortoise","21","","no","yes","less than a year","10","467","<div style=""font-size:30px;"">Press space to start the trial</div>"," ","","","","","","",""
"","","","","","html-keyboard-response","130","2.0.0","153236","pk8chspcusg","mus","tortoise","21","","no","yes","less than a year","10","null","<div style=""font-size:60px;"">+</div>","null","","","","","","",""
"","","","","","audio-keyboard-response","131","2.0.0","153830","pk8chspcusg","mus","tortoise","21","","no","yes","less than a year","10","null","stimuli/sounds/phone_label_A.wav","null","","","","","","",""
"","","","","","html-keyboard-response","132","2.0.0","154839","pk8chspcusg","mus","tortoise","21","","no","yes","less than a year","10","null","","null","","","","","","",""
"","","","","","image-keyboard-response","133","2.0.0","155406","pk8chspcusg","mus","tortoise","21","","no","yes","less than a year","10","565","stimuli/pictures/drum_bongo_2.jpg","0","0","","true","no","sound","stimuli/sounds/phone_label_A.wav",""
"","","","","","audio-keyboard-response","134","2.0.0","156411","pk8chspcusg","mus","tortoise","21","","no","yes","less than a year","10","null","stimuli/sounds/bleep.wav","null","","","","","","",""
"","","","","","html-keyboard-response","135","2.0.0","156941","pk8chspcusg","mus","tortoise","21","","no","yes","less than a year","10","421","<div style=""font-size:30px;"">Press space to start the trial</div>"," ","","","","","","",""
"","","","","","html-keyboard-response","136","2.0.0","157204","pk8chspcusg","mus","tortoise","21","","no","yes","less than a year","10","null","<div style=""font-size:60px;"">+</div>","null","","","","","","",""
"","","","","","audio-keyboard-response","137","2.0.0","157811","pk8chspcusg","mus","tortoise","21","","no","yes","less than a year","10","null","stimuli/sounds/flute_label_B.wav","null","","","","","","",""
"","","","","","html-keyboard-response","138","2.0.0","158825","pk8chspcusg","mus","tortoise","21","","no","yes","less than a year","10","null","","null","","","","","","",""
"","","","","","image-keyboard-response","139","2.0.0","159377","pk8chspcusg","mus","tortoise","21","","no","yes","less than a year","10","551","stimuli/pictures/drum_kit_1.jpg","0","0","","true","no","sound","stimuli/sounds/flute_label_B.wav",""
"","","","","","audio-keyboard-response","140","2.0.0","160385","pk8chspcusg","mus","tortoise","21","","no","yes","less than a year","10","null","stimuli/sounds/bleep.wav","null","","","","","","",""
"","","","","","html-keyboard-response","141","2.0.0","161014","pk8chspcusg","mus","tortoise","21","","no","yes","less than a year","10","519","<div style=""font-size:30px;"">Press space to start the trial</div>"," ","","","","","","",""
"","","","","","html-keyboard-response","142","2.0.0","161273","pk8chspcusg","mus","tortoise","21","","no","yes","less than a year","10","null","<div style=""font-size:60px;"">+</div>","null","","","","","","",""
"","","","","","audio-keyboard-response","143","2.0.0","161871","pk8chspcusg","mus","tortoise","21","","no","yes","less than a year","10","null","stimuli/sounds/bird_sound_A.wav","null","","","","","","",""
"","","","","","html-keyboard-response","144","2.0.0","162878","pk8chspcusg","mus","tortoise","21","","no","yes","less than a year","10","null","","null","","","","","","",""
"","","","","","image-keyboard-response","145","2.0.0","163704","pk8chspcusg","mus","tortoise","21","","no","yes","less than a year","10","825","stimuli/pictures/bird_song_2.jpg","1","1","","true","no","sound","stimuli/sounds/bird_sound_A.wav",""
"","","","","","audio-keyboard-response","146","2.0.0","164720","pk8chspcusg","mus","tortoise","21","","no","yes","less than a year","10","null","stimuli/sounds/bleep.wav","null","","","","","","",""
"","","","","","html-keyboard-response","147","2.0.0","168886","pk8chspcusg","mus","tortoise","21","","no","yes","less than a year","10","4057","<p>You have completed a block. Press R when you are ready to continue</p>","r","","","","","","",""
"","","","","","html-keyboard-response","148","2.0.0","170503","pk8chspcusg","mus","tortoise","21","","no","yes","less than a year","10","1616","<div style=""font-size:30px;"">Press space to start the trial</div>"," ","","","","","","",""
"","","","","","html-keyboard-response","149","2.0.0","170760","pk8chspcusg","mus","tortoise","21","","no","yes","less than a year","10","null","<div style=""font-size:60px;"">+</div>","null","","","","","","",""
"","","","","","audio-keyboard-response","150","2.0.0","171361","pk8chspcusg","mus","tortoise","21","","no","yes","less than a year","10","null","stimuli/sounds/piano_sound_B.wav","null","","","","","","",""
"","","","","","html-keyboard-response","151","2.0.0","172376","pk8chspcusg","mus","tortoise","21","","no","yes","less than a year","10","null","","null","","","","","","",""
"","","","","","image-keyboard-response","152","2.0.0","173229","pk8chspcusg","mus","tortoise","21","","no","yes","less than a year","10","852","stimuli/pictures/flute_wooden_2.jpg","0","0","","true","no","sound","stimuli/sounds/piano_sound_B.wav",""
"","","","","","audio-keyboard-response","153","2.0.0","174243","pk8chspcusg","mus","tortoise","21","","no","yes","less than a year","10","null","stimuli/sounds/bleep.wav","null","","","","","","",""
"","","","","","html-keyboard-response","154","2.0.0","175990","pk8chspcusg","mus","tortoise","21","","no","yes","less than a year","10","1636","<div style=""font-size:30px;"">Press space to start the trial</div>"," ","","","","","","",""
"","","","","","html-keyboard-response","155","2.0.0","176251","pk8chspcusg","mus","tortoise","21","","no","yes","less than a year","10","null","<div style=""font-size:60px;"">+</div>","null","","","","","","",""
"","","","","","audio-keyboard-response","156","2.0.0","176861","pk8chspcusg","mus","tortoise","21","","no","yes","less than a year","10","null","stimuli/sounds/flute_label_A.wav","null","","","","","","",""
"","","","","","html-keyboard-response","157","2.0.0","177866","pk8chspcusg","mus","tortoise","21","","no","yes","less than a year","10","null","","null","","","","","","",""
"","","","","","image-keyboard-response","158","2.0.0","179574","pk8chspcusg","mus","tortoise","21","","no","yes","less than a year","10","1707","stimuli/pictures/flute_wooden_2.jpg","1","1","","true","yes","sound","stimuli/sounds/flute_label_A.wav",""
"","","","","","audio-keyboard-response","159","2.0.0","180580","pk8chspcusg","mus","tortoise","21","","no","yes","less than a year","10","null","stimuli/sounds/bleep.wav","null","","","","","","",""
"","","","","","html-keyboard-response","160","2.0.0","181593","pk8chspcusg","mus","tortoise","21","","no","yes","less than a year","10","905","<div style=""font-size:30px;"">Press space to start the trial</div>"," ","","","","","","",""
"","","","","","html-keyboard-response","161","2.0.0","181853","pk8chspcusg","mus","tortoise","21","","no","yes","less than a year","10","null","<div style=""font-size:60px;"">+</div>","null","","","","","","",""
"","","","","","audio-keyboard-response","162","2.0.0","182452","pk8chspcusg","mus","tortoise","21","","no","yes","less than a year","10","null","stimuli/sounds/phone_label_A.wav","null","","","","","","",""
"","","","","","html-keyboard-response","163","2.0.0","183468","pk8chspcusg","mus","tortoise","21","","no","yes","less than a year","10","null","","null","","","","","","",""
"","","","","","image-keyboard-response","164","2.0.0","184158","pk8chspcusg","mus","tortoise","21","","no","yes","less than a year","10","688","stimuli/pictures/phone_cell_2.jpg","1","1","","true","yes","sound","stimuli/sounds/phone_label_A.wav",""
"","","","","","audio-keyboard-response","165","2.0.0","185165","pk8chspcusg","mus","tortoise","21","","no","yes","less than a year","10","null","stimuli/sounds/bleep.wav","null","","","","","","",""
"","","","","","html-keyboard-response","166","2.0.0","185872","pk8chspcusg","mus","tortoise","21","","no","yes","less than a year","10","598","<div style=""font-size:30px;"">Press space to start the trial</div>"," ","","","","","","",""
"","","","","","html-keyboard-response","167","2.0.0","186130","pk8chspcusg","mus","tortoise","21","","no","yes","less than a year","10","null","<div style=""font-size:60px;"">+</div>","null","","","","","","",""
"","","","","","audio-keyboard-response","168","2.0.0","186761","pk8chspcusg","mus","tortoise","21","","no","yes","less than a year","10","null","stimuli/sounds/piano_label_A.wav","null","","","","","","",""
"","","","","","html-keyboard-response","169","2.0.0","187763","pk8chspcusg","mus","tortoise","21","","no","yes","less than a year","10","null","","null","","","","","","",""
"","","","","","image-keyboard-response","170","2.0.0","188310","pk8chspcusg","mus","tortoise","21","","no","yes","less than a year","10","545","stimuli/pictures/piano_electric_2.jpg","1","1","","true","yes","sound","stimuli/sounds/piano_label_A.wav",""
"","","","","","audio-keyboard-response","171","2.0.0","189044","pk8chspcusg","mus","tortoise","21","","no","yes","less than a year","10","731","stimuli/sounds/bleep.wav"," ","","","","","","",""
"","","","","","html-keyboard-response","172","2.0.0","189444","pk8chspcusg","mus","tortoise","21","","no","yes","less than a year","10","296","<div style=""font-size:30px;"">Press space to start the trial</div>"," ","","","","","","",""
"","","","","","html-keyboard-response","173","2.0.0","189702","pk8chspcusg","mus","tortoise","21","","no","yes","less than a year","10","null","<div style=""font-size:60px;"">+</div>","null","","","","","","",""
"","","","","","audio-keyboard-response","174","2.0.0","190301","pk8chspcusg","mus","tortoise","21","","no","yes","less than a year","10","null","stimuli/sounds/phone_sound_B.wav","null","","","","","","",""
"","","","","","html-keyboard-response","175","2.0.0","191317","pk8chspcusg","mus","tortoise","21","","no","yes","less than a year","10","null","","null","","","","","","",""
"","","","","","image-keyboard-response","176","2.0.0","191913","pk8chspcusg","mus","tortoise","21","","no","yes","less than a year","10","594","stimuli/pictures/piano_electric_1.jpg","0","0","","true","no","sound","stimuli/sounds/phone_sound_B.wav",""
"","","","","","audio-keyboard-response","177","2.0.0","192929","pk8chspcusg","mus","tortoise","21","","no","yes","less than a year","10","null","stimuli/sounds/bleep.wav","null","","","","","","",""
"","","","","","html-keyboard-response","178","2.0.0","193263","pk8chspcusg","mus","tortoise","21","","no","yes","less than a year","10","224","<div style=""font-size:30px;"">Press space to start the trial</div>"," ","","","","","","",""
"","","","","","html-keyboard-response","179","2.0.0","193519","pk8chspcusg","mus","tortoise","21","","no","yes","less than a year","10","null","<div style=""font-size:60px;"">+</div>","null","","","","","","",""
"","","","","","audio-keyboard-response","180","2.0.0","194111","pk8chspcusg","mus","tortoise","21","","no","yes","less than a year","10","null","stimuli/sounds/drum_label_A.wav","null","","","","","","",""
"","","","","","html-keyboard-response","181","2.0.0","195121","pk8chspcusg","mus","tortoise","21","","no","yes","less than a year","10","null","","null","","","","","","",""
"","","","","","image-keyboard-response","182","2.0.0","195822","pk8chspcusg","mus","tortoise","21","","no","yes","less than a year","10","699","stimuli/pictures/bird_hawk_1.jpg","0","0","","true","no","sound","stimuli/sounds/drum_label_A.wav",""
"","","","","","audio-keyboard-response","183","2.0.0","196831","pk8chspcusg","mus","tortoise","21","","no","yes","less than a year","10","null","stimuli/sounds/bleep.wav","null","","","","","","",""
"","","","","","html-keyboard-response","184","2.0.0","197375","pk8chspcusg","mus","tortoise","21","","no","yes","less than a year","10","436","<div style=""font-size:30px;"">Press space to start the trial</div>"," ","","","","","","",""
"","","","","","html-keyboard-response","185","2.0.0","197636","pk8chspcusg","mus","tortoise","21","","no","yes","less than a year","10","null","<div style=""font-size:60px;"">+</div>","null","","","","","","",""
"","","","","","audio-keyboard-response","186","2.0.0","198241","pk8chspcusg","mus","tortoise","21","","no","yes","less than a year","10","null","stimuli/sounds/flute_sound_A.wav","null","","","","","","",""
"","","","","","html-keyboard-response","187","2.0.0","199252","pk8chspcusg","mus","tortoise","21","","no","yes","less than a year","10","null","","null","","","","","","",""
"","","","","","image-keyboard-response","188","2.0.0","200009","pk8chspcusg","mus","tortoise","21","","no","yes","less than a year","10","756","stimuli/pictures/phone_cell_2.jpg","0","0","","true","no","sound","stimuli/sounds/flute_sound_A.wav",""
"","","","","","audio-keyboard-response","189","2.0.0","201021","pk8chspcusg","mus","tortoise","21","","no","yes","less than a year","10","null","stimuli/sounds/bleep.wav","null","","","","","","",""
"","","","","","html-keyboard-response","190","2.0.0","201573","pk8chspcusg","mus","tortoise","21","","no","yes","less than a year","10","441","<div style=""font-size:30px;"">Press space to start the trial</div>"," ","","","","","","",""
"","","","","","html-keyboard-response","191","2.0.0","201833","pk8chspcusg","mus","tortoise","21","","no","yes","less than a year","10","null","<div style=""font-size:60px;"">+</div>","null","","","","","","",""
"","","","","","audio-keyboard-response","192","2.0.0","202431","pk8chspcusg","mus","tortoise","21","","no","yes","less than a year","10","null","stimuli/sounds/bird_label_A.wav","null","","","","","","",""
"","","","","","html-keyboard-response","193","2.0.0","203446","pk8chspcusg","mus","tortoise","21","","no","yes","less than a year","10","null","","null","","","","","","",""
"","","","","","image-keyboard-response","194","2.0.0","204232","pk8chspcusg","mus","tortoise","21","","no","yes","less than a year","10","785","stimuli/pictures/bird_hawk_1.jpg","1","1","","true","yes","sound","stimuli/sounds/bird_label_A.wav",""
"","","","","","audio-keyboard-response","195","2.0.0","205244","pk8chspcusg","mus","tortoise","21","","no","yes","less than a year","10","null","stimuli/sounds/bleep.wav","null","","","","","","",""
"","","","","","html-keyboard-response","196","2.0.0","205873","pk8chspcusg","mus","tortoise","21","","no","yes","less than a year","10","519","<div style=""font-size:30px;"">Press space to start the trial</div>"," ","","","","","","",""
"","","","","","html-keyboard-response","197","2.0.0","206129","pk8chspcusg","mus","tortoise","21","","no","yes","less than a year","10","null","<div style=""font-size:60px;"">+</div>","null","","","","","","",""
"","","","","","audio-keyboard-response","198","2.0.0","206731","pk8chspcusg","mus","tortoise","21","","no","yes","less than a year","10","null","stimuli/sounds/flute_label_A.wav","null","","","","","","",""
"","","","","","html-keyboard-response","199","2.0.0","207743","pk8chspcusg","mus","tortoise","21","","no","yes","less than a year","10","null","","null","","","","","","",""
"","","","","","image-keyboard-response","200","2.0.0","208588","pk8chspcusg","mus","tortoise","21","","no","yes","less than a year","10","844","stimuli/pictures/piano_grand_1.jpg","0","0","","true","no","sound","stimuli/sounds/flute_label_A.wav",""
"","","","","","audio-keyboard-response","201","2.0.0","209590","pk8chspcusg","mus","tortoise","21","","no","yes","less than a year","10","null","stimuli/sounds/bleep.wav","null","","","","","","",""
"","","","","","html-keyboard-response","202","2.0.0","210210","pk8chspcusg","mus","tortoise","21","","no","yes","less than a year","10","513","<div style=""font-size:30px;"">Press space to start the trial</div>"," ","","","","","","",""
"","","","","","html-keyboard-response","203","2.0.0","210472","pk8chspcusg","mus","tortoise","21","","no","yes","less than a year","10","null","<div style=""font-size:60px;"">+</div>","null","","","","","","",""
"","","","","","audio-keyboard-response","204","2.0.0","211081","pk8chspcusg","mus","tortoise","21","","no","yes","less than a year","10","null","stimuli/sounds/flute_label_B.wav","null","","","","","","",""
"","","","","","html-keyboard-response","205","2.0.0","212090","pk8chspcusg","mus","tortoise","21","","no","yes","less than a year","10","null","","null","","","","","","",""
"","","","","","image-keyboard-response","206","2.0.0","212766","pk8chspcusg","mus","tortoise","21","","no","yes","less than a year","10","675","stimuli/pictures/flute_metal_1.jpg","1","1","","true","yes","sound","stimuli/sounds/flute_label_B.wav",""
"","","","","","audio-keyboard-response","207","2.0.0","213779","pk8chspcusg","mus","tortoise","21","","no","yes","less than a year","10","null","stimuli/sounds/bleep.wav","null","","","","","","",""
"","","","","","html-keyboard-response","208","2.0.0","214688","pk8chspcusg","mus","tortoise","21","","no","yes","less than a year","10","798","<div style=""font-size:30px;"">Press space to start the trial</div>"," ","","","","","","",""
"","","","","","html-keyboard-response","209","2.0.0","214947","pk8chspcusg","mus","tortoise","21","","no","yes","less than a year","10","null","<div style=""font-size:60px;"">+</div>","null","","","","","","",""
"","","","","","audio-keyboard-response","210","2.0.0","215551","pk8chspcusg","mus","tortoise","21","","no","yes","less than a year","10","null","stimuli/sounds/flute_sound_A.wav","null","","","","","","",""
"","","","","","html-keyboard-response","211","2.0.0","216563","pk8chspcusg","mus","tortoise","21","","no","yes","less than a year","10","null","","null","","","","","","",""
"","","","","","image-keyboard-response","212","2.0.0","217152","pk8chspcusg","mus","tortoise","21","","no","yes","less than a year","10","588","stimuli/pictures/phone_rotary_2.jpg","0","0","","true","no","sound","stimuli/sounds/flute_sound_A.wav",""
"","","","","","audio-keyboard-response","213","2.0.0","218160","pk8chspcusg","mus","tortoise","21","","no","yes","less than a year","10","null","stimuli/sounds/bleep.wav","null","","","","","","",""
"","","","","","html-keyboard-response","214","2.0.0","218894","pk8chspcusg","mus","tortoise","21","","no","yes","less than a year","10","628","<div style=""font-size:30px;"">Press space to start the trial</div>"," ","","","","","","",""
"","","","","","html-keyboard-response","215","2.0.0","219160","pk8chspcusg","mus","tortoise","21","","no","yes","less than a year","10","null","<div style=""font-size:60px;"">+</div>","null","","","","","","",""
"","","","","","audio-keyboard-response","216","2.0.0","219760","pk8chspcusg","mus","tortoise","21","","no","yes","less than a year","10","null","stimuli/sounds/phone_sound_A.wav","null","","","","","","",""
"","","","","","html-keyboard-response","217","2.0.0","220771","pk8chspcusg","mus","tortoise","21","","no","yes","less than a year","10","null","","null","","","","","","",""
"","","","","","image-keyboard-response","218","2.0.0","221310","pk8chspcusg","mus","tortoise","21","","no","yes","less than a year","10","538","stimuli/pictures/bird_song_1.jpg","0","0","","true","no","sound","stimuli/sounds/phone_sound_A.wav",""
"","","","","","audio-keyboard-response","219","2.0.0","222325","pk8chspcusg","mus","tortoise","21","","no","yes","less than a year","10","null","stimuli/sounds/bleep.wav","null","","","","","","",""
"","","","","","html-keyboard-response","220","2.0.0","223356","pk8chspcusg","mus","tortoise","21","","no","yes","less than a year","10","919","<div style=""font-size:30px;"">Press space to start the trial</div>"," ","","","","","","",""
"","","","","","html-keyboard-response","221","2.0.0","223616","pk8chspcusg","mus","tortoise","21","","no","yes","less than a year","10","null","<div style=""font-size:60px;"">+</div>","null","","","","","","",""
"","","","","","audio-keyboard-response","222","2.0.0","224211","pk8chspcusg","mus","tortoise","21","","no","yes","less than a year","10","null","stimuli/sounds/bird_label_A.wav","null","","","","","","",""
"","","","","","html-keyboard-response","223","2.0.0","225213","pk8chspcusg","mus","tortoise","21","","no","yes","less than a year","10","null","","null","","","","","","",""
"","","","","","image-keyboard-response","224","2.0.0","225695","pk8chspcusg","mus","tortoise","21","","no","yes","less than a year","10","481","stimuli/pictures/bird_song_2.jpg","1","1","","true","yes","sound","stimuli/sounds/bird_label_A.wav",""
"","","","","","audio-keyboard-response","225","2.0.0","226703","pk8chspcusg","mus","tortoise","21","","no","yes","less than a year","10","null","stimuli/sounds/bleep.wav","null","","","","","","",""
"","","","","","html-keyboard-response","226","2.0.0","227327","pk8chspcusg","mus","tortoise","21","","no","yes","less than a year","10","514","<div style=""font-size:30px;"">Press space to start the trial</div>"," ","","","","","","",""
"","","","","","html-keyboard-response","227","2.0.0","227586","pk8chspcusg","mus","tortoise","21","","no","yes","less than a year","10","null","<div style=""font-size:60px;"">+</div>","null","","","","","","",""
"","","","","","audio-keyboard-response","228","2.0.0","228181","pk8chspcusg","mus","tortoise","21","","no","yes","less than a year","10","null","stimuli/sounds/phone_sound_B.wav","null","","","","","","",""
"","","","","","html-keyboard-response","229","2.0.0","229185","pk8chspcusg","mus","tortoise","21","","no","yes","less than a year","10","null","","null","","","","","","",""
"","","","","","image-keyboard-response","230","2.0.0","230017","pk8chspcusg","mus","tortoise","21","","no","yes","less than a year","10","830","stimuli/pictures/phone_cell_1.jpg","0","1","","false","no","sound","stimuli/sounds/phone_sound_B.wav",""
"","","","","","audio-keyboard-response","231","2.0.0","231031","pk8chspcusg","mus","tortoise","21","","no","yes","less than a year","10","null","stimuli/sounds/buzz.wav","null","","","","","","",""
"","","","","","html-keyboard-response","232","2.0.0","232532","pk8chspcusg","mus","tortoise","21","","no","yes","less than a year","10","1393","<div style=""font-size:30px;"">Press space to start the trial</div>"," ","","","","","","",""
"","","","","","html-keyboard-response","233","2.0.0","232784","pk8chspcusg","mus","tortoise","21","","no","yes","less than a year","10","null","<div style=""font-size:60px;"">+</div>","null","","","","","","",""
"","","","","","audio-keyboard-response","234","2.0.0","233381","pk8chspcusg","mus","tortoise","21","","no","yes","less than a year","10","null","stimuli/sounds/phone_label_B.wav","null","","","","","","",""
"","","","","","html-keyboard-response","235","2.0.0","234396","pk8chspcusg","mus","tortoise","21","","no","yes","less than a year","10","null","","null","","","","","","",""
"","","","","","image-keyboard-response","236","2.0.0","235381","pk8chspcusg","mus","tortoise","21","","no","yes","less than a year","10","983","stimuli/pictures/flute_metal_2.jpg","0","0","","true","no","sound","stimuli/sounds/phone_label_B.wav",""
"","","","","","audio-keyboard-response","237","2.0.0","236386","pk8chspcusg","mus","tortoise","21","","no","yes","less than a year","10","null","stimuli/sounds/bleep.wav","null","","","","","","",""
"","","","","","html-keyboard-response","238","2.0.0","237108","pk8chspcusg","mus","tortoise","21","","no","yes","less than a year","10","612","<div style=""font-size:30px;"">Press space to start the trial</div>"," ","","","","","","",""
"","","","","","html-keyboard-response","239","2.0.0","237368","pk8chspcusg","mus","tortoise","21","","no","yes","less than a year","10","null","<div style=""font-size:60px;"">+</div>","null","","","","","","",""
"","","","","","audio-keyboard-response","240","2.0.0","237971","pk8chspcusg","mus","tortoise","21","","no","yes","less than a year","10","null","stimuli/sounds/flute_sound_B.wav","null","","","","","","",""
"","","","","","html-keyboard-response","241","2.0.0","238983","pk8chspcusg","mus","tortoise","21","","no","yes","less than a year","10","null","","null","","","","","","",""
"","","","","","image-keyboard-response","242","2.0.0","241584","pk8chspcusg","mus","tortoise","21","","no","yes","less than a year","10","2600","stimuli/pictures/flute_metal_1.jpg","1","1","","true","no","sound","stimuli/sounds/flute_sound_B.wav",""
"","","","","","audio-keyboard-response","243","2.0.0","242586","pk8chspcusg","mus","tortoise","21","","no","yes","less than a year","10","null","stimuli/sounds/bleep.wav","null","","","","","","",""
"","","","","","html-keyboard-response","244","2.0.0","243148","pk8chspcusg","mus","tortoise","21","","no","yes","less than a year","10","455","<div style=""font-size:30px;"">Press space to start the trial</div>"," ","","","","","","",""
"","","","","","html-keyboard-response","245","2.0.0","243407","pk8chspcusg","mus","tortoise","21","","no","yes","less than a year","10","null","<div style=""font-size:60px;"">+</div>","null","","","","","","",""
"","","","","","audio-keyboard-response","246","2.0.0","244001","pk8chspcusg","mus","tortoise","21","","no","yes","less than a year","10","null","stimuli/sounds/phone_sound_A.wav","null","","","","","","",""
"","","","","","html-keyboard-response","247","2.0.0","245004","pk8chspcusg","mus","tortoise","21","","no","yes","less than a year","10","null","","null","","","","","","",""
"","","","","","image-keyboard-response","248","2.0.0","247115","pk8chspcusg","mus","tortoise","21","","no","yes","less than a year","10","2109","stimuli/pictures/phone_rotary_2.jpg","0","1","","false","no","sound","stimuli/sounds/phone_sound_A.wav",""
"","","","","","audio-keyboard-response","249","2.0.0","248128","pk8chspcusg","mus","tortoise","21","","no","yes","less than a year","10","null","stimuli/sounds/buzz.wav","null","","","","","","",""
"","","","","","html-keyboard-response","250","2.0.0","249170","pk8chspcusg","mus","tortoise","21","","no","yes","less than a year","10","933","<div style=""font-size:30px;"">Press space to start the trial</div>"," ","","","","","","",""
"","","","","","html-keyboard-response","251","2.0.0","249431","pk8chspcusg","mus","tortoise","21","","no","yes","less than a year","10","null","<div style=""font-size:60px;"">+</div>","null","","","","","","",""
"","","","","","audio-keyboard-response","252","2.0.0","250041","pk8chspcusg","mus","tortoise","21","","no","yes","less than a year","10","null","stimuli/sounds/piano_label_B.wav","null","","","","","","",""
"","","","","","html-keyboard-response","253","2.0.0","251048","pk8chspcusg","mus","tortoise","21","","no","yes","less than a year","10","null","","null","","","","","","",""
"","","","","","image-keyboard-response","254","2.0.0","252342","pk8chspcusg","mus","tortoise","21","","no","yes","less than a year","10","1292","stimuli/pictures/bird_hawk_1.jpg","0","0","","true","no","sound","stimuli/sounds/piano_label_B.wav",""
"","","","","","audio-keyboard-response","255","2.0.0","253346","pk8chspcusg","mus","tortoise","21","","no","yes","less than a year","10","null","stimuli/sounds/bleep.wav","null","","","","","","",""
"","","","","","html-keyboard-response","256","2.0.0","253782","pk8chspcusg","mus","tortoise","21","","no","yes","less than a year","10","326","<div style=""font-size:30px;"">Press space to start the trial</div>"," ","","","","","","",""
"","","","","","html-keyboard-response","257","2.0.0","254044","pk8chspcusg","mus","tortoise","21","","no","yes","less than a year","10","null","<div style=""font-size:60px;"">+</div>","null","","","","","","",""
"","","","","","audio-keyboard-response","258","2.0.0","254651","pk8chspcusg","mus","tortoise","21","","no","yes","less than a year","10","null","stimuli/sounds/flute_label_A.wav","null","","","","","","",""
"","","","","","html-keyboard-response","259","2.0.0","255663","pk8chspcusg","mus","tortoise","21","","no","yes","less than a year","10","null","","null","","","","","","",""
"","","","","","image-keyboard-response","260","2.0.0","256369","pk8chspcusg","mus","tortoise","21","","no","yes","less than a year","10","705","stimuli/pictures/piano_electric_1.jpg","0","0","","true","no","sound","stimuli/sounds/flute_label_A.wav",""
"","","","","","audio-keyboard-response","261","2.0.0","257381","pk8chspcusg","mus","tortoise","21","","no","yes","less than a year","10","null","stimuli/sounds/bleep.wav","null","","","","","","",""
"","","","","","html-keyboard-response","262","2.0.0","257803","pk8chspcusg","mus","tortoise","21","","no","yes","less than a year","10","312","<div style=""font-size:30px;"">Press space to start the trial</div>"," ","","","","","","",""
"","","","","","html-keyboard-response","263","2.0.0","258062","pk8chspcusg","mus","tortoise","21","","no","yes","less than a year","10","null","<div style=""font-size:60px;"">+</div>","null","","","","","","",""
"","","","","","audio-keyboard-response","264","2.0.0","258661","pk8chspcusg","mus","tortoise","21","","no","yes","less than a year","10","null","stimuli/sounds/phone_sound_A.wav","null","","","","","","",""
"","","","","","html-keyboard-response","265","2.0.0","259669","pk8chspcusg","mus","tortoise","21","","no","yes","less than a year","10","null","","null","","","","","","",""
"","","","","","image-keyboard-response","266","2.0.0","260410","pk8chspcusg","mus","tortoise","21","","no","yes","less than a year","10","740","stimuli/pictures/bird_song_2.jpg","0","0","","true","no","sound","stimuli/sounds/phone_sound_A.wav",""
"","","","","","audio-keyboard-response","267","2.0.0","261177","pk8chspcusg","mus","tortoise","21","","no","yes","less than a year","10","760","stimuli/sounds/bleep.wav"," ","","","","","","",""
"","","","","","html-keyboard-response","268","2.0.0","262643","pk8chspcusg","mus","tortoise","21","","no","yes","less than a year","10","1361","<p>You have completed a block. Press R when you are ready to continue</p>","r","","","","","","",""
"","","","","","html-keyboard-response","269","2.0.0","263191","pk8chspcusg","mus","tortoise","21","","no","yes","less than a year","10","547","<div style=""font-size:30px;"">Press space to start the trial</div>"," ","","","","","","",""
"","","","","","html-keyboard-response","270","2.0.0","263452","pk8chspcusg","mus","tortoise","21","","no","yes","less than a year","10","null","<div style=""font-size:60px;"">+</div>","null","","","","","","",""
"","","","","","audio-keyboard-response","271","2.0.0","264051","pk8chspcusg","mus","tortoise","21","","no","yes","less than a year","10","null","stimuli/sounds/drum_label_B.wav","null","","","","","","",""
"","","","","","html-keyboard-response","272","2.0.0","265063","pk8chspcusg","mus","tortoise","21","","no","yes","less than a year","10","null","","null","","","","","","",""
"","","","","","image-keyboard-response","273","2.0.0","265681","pk8chspcusg","mus","tortoise","21","","no","yes","less than a year","10","616","stimuli/pictures/drum_kit_2.jpg","1","1","","true","yes","sound","stimuli/sounds/drum_label_B.wav",""
"","","","","","audio-keyboard-response","274","2.0.0","266696","pk8chspcusg","mus","tortoise","21","","no","yes","less than a year","10","null","stimuli/sounds/bleep.wav","null","","","","","","",""
"","","","","","html-keyboard-response","275","2.0.0","267310","pk8chspcusg","mus","tortoise","21","","no","yes","less than a year","10","504","<div style=""font-size:30px;"">Press space to start the trial</div>"," ","","","","","","",""
"","","","","","html-keyboard-response","276","2.0.0","267572","pk8chspcusg","mus","tortoise","21","","no","yes","less than a year","10","null","<div style=""font-size:60px;"">+</div>","null","","","","","","",""
"","","","","","audio-keyboard-response","277","2.0.0","268181","pk8chspcusg","mus","tortoise","21","","no","yes","less than a year","10","null","stimuli/sounds/piano_label_B.wav","null","","","","","","",""
"","","","","","html-keyboard-response","278","2.0.0","269192","pk8chspcusg","mus","tortoise","21","","no","yes","less than a year","10","null","","null","","","","","","",""
"","","","","","image-keyboard-response","279","2.0.0","269879","pk8chspcusg","mus","tortoise","21","","no","yes","less than a year","10","685","stimuli/pictures/bird_song_1.jpg","0","0","","true","no","sound","stimuli/sounds/piano_label_B.wav",""
"","","","","","audio-keyboard-response","280","2.0.0","270891","pk8chspcusg","mus","tortoise","21","","no","yes","less than a year","10","null","stimuli/sounds/bleep.wav","null","","","","","","",""
"","","","","","html-keyboard-response","281","2.0.0","271409","pk8chspcusg","mus","tortoise","21","","no","yes","less than a year","10","409","<div style=""font-size:30px;"">Press space to start the trial</div>"," ","","","","","","",""
"","","","","","html-keyboard-response","282","2.0.0","271668","pk8chspcusg","mus","tortoise","21","","no","yes","less than a year","10","null","<div style=""font-size:60px;"">+</div>","null","","","","","","",""
"","","","","","audio-keyboard-response","283","2.0.0","272261","pk8chspcusg","mus","tortoise","21","","no","yes","less than a year","10","null","stimuli/sounds/drum_label_B.wav","null","","","","","","",""
"","","","","","html-keyboard-response","284","2.0.0","273270","pk8chspcusg","mus","tortoise","21","","no","yes","less than a year","10","null","","null","","","","","","",""
"","","","","","image-keyboard-response","285","2.0.0","274106","pk8chspcusg","mus","tortoise","21","","no","yes","less than a year","10","835","stimuli/pictures/piano_grand_1.jpg","0","0","","true","no","sound","stimuli/sounds/drum_label_B.wav",""
"","","","","","audio-keyboard-response","286","2.0.0","275122","pk8chspcusg","mus","tortoise","21","","no","yes","less than a year","10","null","stimuli/sounds/bleep.wav","null","","","","","","",""
"","","","","","html-keyboard-response","287","2.0.0","275671","pk8chspcusg","mus","tortoise","21","","no","yes","less than a year","10","439","<div style=""font-size:30px;"">Press space to start the trial</div>"," ","","","","","","",""
"","","","","","html-keyboard-response","288","2.0.0","275931","pk8chspcusg","mus","tortoise","21","","no","yes","less than a year","10","null","<div style=""font-size:60px;"">+</div>","null","","","","","","",""
"","","","","","audio-keyboard-response","289","2.0.0","276531","pk8chspcusg","mus","tortoise","21","","no","yes","less than a year","10","null","stimuli/sounds/drum_label_B.wav","null","","","","","","",""
"","","","","","html-keyboard-response","290","2.0.0","277533","pk8chspcusg","mus","tortoise","21","","no","yes","less than a year","10","null","","null","","","","","","",""
"","","","","","image-keyboard-response","291","2.0.0","277984","pk8chspcusg","mus","tortoise","21","","no","yes","less than a year","10","450","stimuli/pictures/drum_bongo_2.jpg","1","1","","true","yes","sound","stimuli/sounds/drum_label_B.wav",""
"","","","","","audio-keyboard-response","292","2.0.0","278995","pk8chspcusg","mus","tortoise","21","","no","yes","less than a year","10","null","stimuli/sounds/bleep.wav","null","","","","","","",""
"","","","","","html-keyboard-response","293","2.0.0","279497","pk8chspcusg","mus","tortoise","21","","no","yes","less than a year","10","394","<div style=""font-size:30px;"">Press space to start the trial</div>"," ","","","","","","",""
"","","","","","html-keyboard-response","294","2.0.0","279758","pk8chspcusg","mus","tortoise","21","","no","yes","less than a year","10","null","<div style=""font-size:60px;"">+</div>","null","","","","","","",""
"","","","","","audio-keyboard-response","295","2.0.0","280351","pk8chspcusg","mus","tortoise","21","","no","yes","less than a year","10","null","stimuli/sounds/bird_label_A.wav","null","","","","","","",""
"","","","","","html-keyboard-response","296","2.0.0","281358","pk8chspcusg","mus","tortoise","21","","no","yes","less than a year","10","null","","null","","","","","","",""
"","","","","","image-keyboard-response","297","2.0.0","281950","pk8chspcusg","mus","tortoise","21","","no","yes","less than a year","10","591","stimuli/pictures/flute_metal_2.jpg","0","0","","true","no","sound","stimuli/sounds/bird_label_A.wav",""
"","","","","","audio-keyboard-response","298","2.0.0","282957","pk8chspcusg","mus","tortoise","21","","no","yes","less than a year","10","null","stimuli/sounds/bleep.wav","null","","","","","","",""
"","","","","","html-keyboard-response","299","2.0.0","283426","pk8chspcusg","mus","tortoise","21","","no","yes","less than a year","10","361","<div style=""font-size:30px;"">Press space to start the trial</div>"," ","","","","","","",""
"","","","","","html-keyboard-response","300","2.0.0","283688","pk8chspcusg","mus","tortoise","21","","no","yes","less than a year","10","null","<div style=""font-size:60px;"">+</div>","null","","","","","","",""
"","","","","","audio-keyboard-response","301","2.0.0","284291","pk8chspcusg","mus","tortoise","21","","no","yes","less than a year","10","null","stimuli/sounds/piano_label_B.wav","null","","","","","","",""
"","","","","","html-keyboard-response","302","2.0.0","285301","pk8chspcusg","mus","tortoise","21","","no","yes","less than a year","10","null","","null","","","","","","",""
"","","","","","image-keyboard-response","303","2.0.0","286136","pk8chspcusg","mus","tortoise","21","","no","yes","less than a year","10","834","stimuli/pictures/bird_song_2.jpg","0","0","","true","no","sound","stimuli/sounds/piano_label_B.wav",""
"","","","","","audio-keyboard-response","304","2.0.0","287147","pk8chspcusg","mus","tortoise","21","","no","yes","less than a year","10","null","stimuli/sounds/bleep.wav","null","","","","","","",""
"","","","","","html-keyboard-response","305","2.0.0","287521","pk8chspcusg","mus","tortoise","21","","no","yes","less than a year","10","266","<div style=""font-size:30px;"">Press space to start the trial</div>"," ","","","","","","",""
"","","","","","html-keyboard-response","306","2.0.0","287781","pk8chspcusg","mus","tortoise","21","","no","yes","less than a year","10","null","<div style=""font-size:60px;"">+</div>","null","","","","","","",""
"","","","","","audio-keyboard-response","307","2.0.0","288381","pk8chspcusg","mus","tortoise","21","","no","yes","less than a year","10","null","stimuli/sounds/bird_sound_A.wav","null","","","","","","",""
"","","","","","html-keyboard-response","308","2.0.0","289397","pk8chspcusg","mus","tortoise","21","","no","yes","less than a year","10","null","","null","","","","","","",""
"","","","","","image-keyboard-response","309","2.0.0","290678","pk8chspcusg","mus","tortoise","21","","no","yes","less than a year","10","1279","stimuli/pictures/bird_song_1.jpg","1","1","","true","no","sound","stimuli/sounds/bird_sound_A.wav",""
"","","","","","audio-keyboard-response","310","2.0.0","291687","pk8chspcusg","mus","tortoise","21","","no","yes","less than a year","10","null","stimuli/sounds/bleep.wav","null","","","","","","",""
"","","","","","html-keyboard-response","311","2.0.0","292715","pk8chspcusg","mus","tortoise","21","","no","yes","less than a year","10","918","<div style=""font-size:30px;"">Press space to start the trial</div>"," ","","","","","","",""
"","","","","","html-keyboard-response","312","2.0.0","292974","pk8chspcusg","mus","tortoise","21","","no","yes","less than a year","10","null","<div style=""font-size:60px;"">+</div>","null","","","","","","",""
"","","","","","audio-keyboard-response","313","2.0.0","293581","pk8chspcusg","mus","tortoise","21","","no","yes","less than a year","10","null","stimuli/sounds/piano_sound_B.wav","null","","","","","","",""
"","","","","","html-keyboard-response","314","2.0.0","294591","pk8chspcusg","mus","tortoise","21","","no","yes","less than a year","10","null","","null","","","","","","",""
"","","","","","image-keyboard-response","315","2.0.0","295282","pk8chspcusg","mus","tortoise","21","","no","yes","less than a year","10","690","stimuli/pictures/flute_metal_1.jpg","0","0","","true","no","sound","stimuli/sounds/piano_sound_B.wav",""
"","","","","","audio-keyboard-response","316","2.0.0","296286","pk8chspcusg","mus","tortoise","21","","no","yes","less than a year","10","null","stimuli/sounds/bleep.wav","null","","","","","","",""
"","","","","","html-keyboard-response","317","2.0.0","296910","pk8chspcusg","mus","tortoise","21","","no","yes","less than a year","10","516","<div style=""font-size:30px;"">Press space to start the trial</div>"," ","","","","","","",""
"","","","","","html-keyboard-response","318","2.0.0","297170","pk8chspcusg","mus","tortoise","21","","no","yes","less than a year","10","null","<div style=""font-size:60px;"">+</div>","null","","","","","","",""
"","","","","","audio-keyboard-response","319","2.0.0","297771","pk8chspcusg","mus","tortoise","21","","no","yes","less than a year","10","null","stimuli/sounds/piano_sound_A.wav","null","","","","","","",""
"","","","","","html-keyboard-response","320","2.0.0","298774","pk8chspcusg","mus","tortoise","21","","no","yes","less than a year","10","null","","null","","","","","","",""
"","","","","","image-keyboard-response","321","2.0.0","300422","pk8chspcusg","mus","tortoise","21","","no","yes","less than a year","10","1647","stimuli/pictures/piano_electric_2.jpg","0","1","","false","no","sound","stimuli/sounds/piano_sound_A.wav",""
"","","","","","audio-keyboard-response","322","2.0.0","301437","pk8chspcusg","mus","tortoise","21","","no","yes","less than a year","10","null","stimuli/sounds/buzz.wav","null","","","","","","",""
"","","","","","html-keyboard-response","323","2.0.0","302067","pk8chspcusg","mus","tortoise","21","","no","yes","less than a year","10","521","<div style=""font-size:30px;"">Press space to start the trial</div>"," ","","","","","","",""
"","","","","","html-keyboard-response","324","2.0.0","302326","pk8chspcusg","mus","tortoise","21","","no","yes","less than a year","10","null","<div style=""font-size:60px;"">+</div>","null","","","","","","",""
"","","","","","audio-keyboard-response","325","2.0.0","302951","pk8chspcusg","mus","tortoise","21","","no","yes","less than a year","10","null","stimuli/sounds/piano_label_A.wav","null","","","","","","",""
"","","","","","html-keyboard-response","326","2.0.0","303954","pk8chspcusg","mus","tortoise","21","","no","yes","less than a year","10","null","","null","","","","","","",""
"","","","","","image-keyboard-response","327","2.0.0","305696","pk8chspcusg","mus","tortoise","21","","no","yes","less than a year","10","1740","stimuli/pictures/piano_grand_2.jpg","1","1","","true","yes","sound","stimuli/sounds/piano_label_A.wav",""
"","","","","","audio-keyboard-response","328","2.0.0","306701","pk8chspcusg","mus","tortoise","21","","no","yes","less than a year","10","null","stimuli/sounds/bleep.wav","null","","","","","","",""
"","","","","","html-keyboard-response","329","2.0.0","307171","pk8chspcusg","mus","tortoise","21","","no","yes","less than a year","10","360","<div style=""font-size:30px;"">Press space to start the trial</div>"," ","","","","","","",""
"","","","","","html-keyboard-response","330","2.0.0","307429","pk8chspcusg","mus","tortoise","21","","no","yes","less than a year","10","null","<div style=""font-size:60px;"">+</div>","null","","","","","","",""
"","","","","","audio-keyboard-response","331","2.0.0","308031","pk8chspcusg","mus","tortoise","21","","no","yes","less than a year","10","null","stimuli/sounds/flute_label_B.wav","null","","","","","","",""
"","","","","","html-keyboard-response","332","2.0.0","309042","pk8chspcusg","mus","tortoise","21","","no","yes","less than a year","10","null","","null","","","","","","",""
"","","","","","image-keyboard-response","333","2.0.0","309928","pk8chspcusg","mus","tortoise","21","","no","yes","less than a year","10","884","stimuli/pictures/flute_wooden_1.jpg","1","1","","true","yes","sound","stimuli/sounds/flute_label_B.wav",""
"","","","","","audio-keyboard-response","334","2.0.0","310932","pk8chspcusg","mus","tortoise","21","","no","yes","less than a year","10","null","stimuli/sounds/bleep.wav","null","","","","","","",""
"","","","","","html-keyboard-response","335","2.0.0","311510","pk8chspcusg","mus","tortoise","21","","no","yes","less than a year","10","470","<div style=""font-size:30px;"">Press space to start the trial</div>"," ","","","","","","",""
"","","","","","html-keyboard-response","336","2.0.0","311769","pk8chspcusg","mus","tortoise","21","","no","yes","less than a year","10","null","<div style=""font-size:60px;"">+</div>","null","","","","","","",""
"","","","","","audio-keyboard-response","337","2.0.0","312371","pk8chspcusg","mus","tortoise","21","","no","yes","less than a year","10","null","stimuli/sounds/piano_sound_B.wav","null","","","","","","",""
"","","","","","html-keyboard-response","338","2.0.0","313373","pk8chspcusg","mus","tortoise","21","","no","yes","less than a year","10","null","","null","","","","","","",""
"","","","","","image-keyboard-response","339","2.0.0","314030","pk8chspcusg","mus","tortoise","21","","no","yes","less than a year","10","656","stimuli/pictures/flute_metal_2.jpg","0","0","","true","no","sound","stimuli/sounds/piano_sound_B.wav",""
"","","","","","audio-keyboard-response","340","2.0.0","315038","pk8chspcusg","mus","tortoise","21","","no","yes","less than a year","10","null","stimuli/sounds/bleep.wav","null","","","","","","",""
"","","","","","html-keyboard-response","341","2.0.0","315537","pk8chspcusg","mus","tortoise","21","","no","yes","less than a year","10","390","<div style=""font-size:30px;"">Press space to start the trial</div>"," ","","","","","","",""
"","","","","","html-keyboard-response","342","2.0.0","315799","pk8chspcusg","mus","tortoise","21","","no","yes","less than a year","10","null","<div style=""font-size:60px;"">+</div>","null","","","","","","",""
"","","","","","audio-keyboard-response","343","2.0.0","316401","pk8chspcusg","mus","tortoise","21","","no","yes","less than a year","10","null","stimuli/sounds/piano_sound_A.wav","null","","","","","","",""
"","","","","","html-keyboard-response","344","2.0.0","317403","pk8chspcusg","mus","tortoise","21","","no","yes","less than a year","10","null","","null","","","","","","",""
"","","","","","image-keyboard-response","345","2.0.0","318117","pk8chspcusg","mus","tortoise","21","","no","yes","less than a year","10","712","stimuli/pictures/piano_grand_2.jpg","1","1","","true","yes","sound","stimuli/sounds/piano_sound_A.wav",""
"","","","","","audio-keyboard-response","346","2.0.0","319131","pk8chspcusg","mus","tortoise","21","","no","yes","less than a year","10","null","stimuli/sounds/bleep.wav","null","","","","","","",""
"","","","","","html-keyboard-response","347","2.0.0","319586","pk8chspcusg","mus","tortoise","21","","no","yes","less than a year","10","346","<div style=""font-size:30px;"">Press space to start the trial</div>"," ","","","","","","",""
"","","","","","html-keyboard-response","348","2.0.0","319841","pk8chspcusg","mus","tortoise","21","","no","yes","less than a year","10","null","<div style=""font-size:60px;"">+</div>","null","","","","","","",""
"","","","","","audio-keyboard-response","349","2.0.0","320441","pk8chspcusg","mus","tortoise","21","","no","yes","less than a year","10","null","stimuli/sounds/drum_label_A.wav","null","","","","","","",""
"","","","","","html-keyboard-response","350","2.0.0","321456","pk8chspcusg","mus","tortoise","21","","no","yes","less than a year","10","null","","null","","","","","","",""
"","","","","","image-keyboard-response","351","2.0.0","322442","pk8chspcusg","mus","tortoise","21","","no","yes","less than a year","10","985","stimuli/pictures/drum_kit_1.jpg","1","1","","true","yes","sound","stimuli/sounds/drum_label_A.wav",""
"","","","","","audio-keyboard-response","352","2.0.0","323448","pk8chspcusg","mus","tortoise","21","","no","yes","less than a year","10","null","stimuli/sounds/bleep.wav","null","","","","","","",""
"","","","","","html-keyboard-response","353","2.0.0","323981","pk8chspcusg","mus","tortoise","21","","no","yes","less than a year","10","422","<div style=""font-size:30px;"">Press space to start the trial</div>"," ","","","","","","",""
"","","","","","html-keyboard-response","354","2.0.0","324241","pk8chspcusg","mus","tortoise","21","","no","yes","less than a year","10","null","<div style=""font-size:60px;"">+</div>","null","","","","","","",""
"","","","","","audio-keyboard-response","355","2.0.0","324871","pk8chspcusg","mus","tortoise","21","","no","yes","less than a year","10","null","stimuli/sounds/piano_label_A.wav","null","","","","","","",""
"","","","","","html-keyboard-response","356","2.0.0","325877","pk8chspcusg","mus","tortoise","21","","no","yes","less than a year","10","null","","null","","","","","","",""
"","","","","","image-keyboard-response","357","2.0.0","326577","pk8chspcusg","mus","tortoise","21","","no","yes","less than a year","10","699","stimuli/pictures/phone_cell_1.jpg","0","0","","true","no","sound","stimuli/sounds/piano_label_A.wav",""
"","","","","","audio-keyboard-response","358","2.0.0","327590","pk8chspcusg","mus","tortoise","21","","no","yes","less than a year","10","null","stimuli/sounds/bleep.wav","null","","","","","","",""
"","","","","","html-keyboard-response","359","2.0.0","328310","pk8chspcusg","mus","tortoise","21","","no","yes","less than a year","10","610","<div style=""font-size:30px;"">Press space to start the trial</div>"," ","","","","","","",""
"","","","","","html-keyboard-response","360","2.0.0","328571","pk8chspcusg","mus","tortoise","21","","no","yes","less than a year","10","null","<div style=""font-size:60px;"">+</div>","null","","","","","","",""
"","","","","","audio-keyboard-response","361","2.0.0","329171","pk8chspcusg","mus","tortoise","21","","no","yes","less than a year","10","null","stimuli/sounds/bird_label_B.wav","null","","","","","","",""
"","","","","","html-keyboard-response","362","2.0.0","330175","pk8chspcusg","mus","tortoise","21","","no","yes","less than a year","10","null","","null","","","","","","",""
"","","","","","image-keyboard-response","363","2.0.0","330852","pk8chspcusg","mus","tortoise","21","","no","yes","less than a year","10","676","stimuli/pictures/bird_song_1.jpg","1","1","","true","yes","sound","stimuli/sounds/bird_label_B.wav",""
"","","","","","audio-keyboard-response","364","2.0.0","331865","pk8chspcusg","mus","tortoise","21","","no","yes","less than a year","10","null","stimuli/sounds/bleep.wav","null","","","","","","",""
"","","","","","html-keyboard-response","365","2.0.0","332366","pk8chspcusg","mus","tortoise","21","","no","yes","less than a year","10","391","<div style=""font-size:30px;"">Press space to start the trial</div>"," ","","","","","","",""
"","","","","","html-keyboard-response","366","2.0.0","332626","pk8chspcusg","mus","tortoise","21","","no","yes","less than a year","10","null","<div style=""font-size:60px;"">+</div>","null","","","","","","",""
"","","","","","audio-keyboard-response","367","2.0.0","333221","pk8chspcusg","mus","tortoise","21","","no","yes","less than a year","10","null","stimuli/sounds/bird_sound_A.wav","null","","","","","","",""
"","","","","","html-keyboard-response","368","2.0.0","334238","pk8chspcusg","mus","tortoise","21","","no","yes","less than a year","10","null","","null","","","","","","",""
"","","","","","image-keyboard-response","369","2.0.0","335707","pk8chspcusg","mus","tortoise","21","","no","yes","less than a year","10","1467","stimuli/pictures/piano_electric_2.jpg","0","0","","true","no","sound","stimuli/sounds/bird_sound_A.wav",""
"","","","","","audio-keyboard-response","370","2.0.0","336722","pk8chspcusg","mus","tortoise","21","","no","yes","less than a year","10","null","stimuli/sounds/bleep.wav","null","","","","","","",""
"","","","","","html-keyboard-response","371","2.0.0","337624","pk8chspcusg","mus","tortoise","21","","no","yes","less than a year","10","795","<div style=""font-size:30px;"">Press space to start the trial</div>"," ","","","","","","",""
"","","","","","html-keyboard-response","372","2.0.0","337884","pk8chspcusg","mus","tortoise","21","","no","yes","less than a year","10","null","<div style=""font-size:60px;"">+</div>","null","","","","","","",""
"","","","","","audio-keyboard-response","373","2.0.0","338481","pk8chspcusg","mus","tortoise","21","","no","yes","less than a year","10","null","stimuli/sounds/drum_sound_B.wav","null","","","","","","",""
"","","","","","html-keyboard-response","374","2.0.0","339485","pk8chspcusg","mus","tortoise","21","","no","yes","less than a year","10","null","","null","","","","","","",""
"","","","","","image-keyboard-response","375","2.0.0","341509","pk8chspcusg","mus","tortoise","21","","no","yes","less than a year","10","2021","stimuli/pictures/drum_kit_1.jpg","0","1","","false","no","sound","stimuli/sounds/drum_sound_B.wav",""
"","","","","","audio-keyboard-response","376","2.0.0","342514","pk8chspcusg","mus","tortoise","21","","no","yes","less than a year","10","null","stimuli/sounds/buzz.wav","null","","","","","","",""
"","","","","","html-keyboard-response","377","2.0.0","343297","pk8chspcusg","mus","tortoise","21","","no","yes","less than a year","10","674","<div style=""font-size:30px;"">Press space to start the trial</div>"," ","","","","","","",""
"","","","","","html-keyboard-response","378","2.0.0","343558","pk8chspcusg","mus","tortoise","21","","no","yes","less than a year","10","null","<div style=""font-size:60px;"">+</div>","null","","","","","","",""
"","","","","","audio-keyboard-response","379","2.0.0","344181","pk8chspcusg","mus","tortoise","21","","no","yes","less than a year","10","null","stimuli/sounds/piano_label_A.wav","null","","","","","","",""
"","","","","","html-keyboard-response","380","2.0.0","345191","pk8chspcusg","mus","tortoise","21","","no","yes","less than a year","10","null","","null","","","","","","",""
"","","","","","image-keyboard-response","381","2.0.0","346938","pk8chspcusg","mus","tortoise","21","","no","yes","less than a year","10","1746","stimuli/pictures/phone_rotary_2.jpg","0","0","","true","no","sound","stimuli/sounds/piano_label_A.wav",""
"","","","","","audio-keyboard-response","382","2.0.0","347954","pk8chspcusg","mus","tortoise","21","","no","yes","less than a year","10","null","stimuli/sounds/bleep.wav","null","","","","","","",""
"","","","","","html-keyboard-response","383","2.0.0","348502","pk8chspcusg","mus","tortoise","21","","no","yes","less than a year","10","440","<div style=""font-size:30px;"">Press space to start the trial</div>"," ","","","","","","",""
"","","","","","html-keyboard-response","384","2.0.0","348761","pk8chspcusg","mus","tortoise","21","","no","yes","less than a year","10","null","<div style=""font-size:60px;"">+</div>","null","","","","","","",""
"","","","","","audio-keyboard-response","385","2.0.0","349370","pk8chspcusg","mus","tortoise","21","","no","yes","less than a year","10","null","stimuli/sounds/flute_sound_B.wav","null","","","","","","",""
"","","","","","html-keyboard-response","386","2.0.0","350378","pk8chspcusg","mus","tortoise","21","","no","yes","less than a year","10","null","","null","","","","","","",""
"","","","","","image-keyboard-response","387","2.0.0","351072","pk8chspcusg","mus","tortoise","21","","no","yes","less than a year","10","693","stimuli/pictures/flute_wooden_1.jpg","1","1","","true","yes","sound","stimuli/sounds/flute_sound_B.wav",""
"","","","","","audio-keyboard-response","388","2.0.0","352075","pk8chspcusg","mus","tortoise","21","","no","yes","less than a year","10","null","stimuli/sounds/bleep.wav","null","","","","","","",""
"","","","","","html-keyboard-response","389","2.0.0","353955","pk8chspcusg","mus","tortoise","21","","no","yes","less than a year","10","1772","<p>You have completed a block. Press R when you are ready to continue</p>","r","","","","","","",""
"","","","","","html-keyboard-response","390","2.0.0","355688","pk8chspcusg","mus","tortoise","21","","no","yes","less than a year","10","1731","<div style=""font-size:30px;"">Press space to start the trial</div>"," ","","","","","","",""
"","","","","","html-keyboard-response","391","2.0.0","355946","pk8chspcusg","mus","tortoise","21","","no","yes","less than a year","10","null","<div style=""font-size:60px;"">+</div>","null","","","","","","",""
"","","","","","audio-keyboard-response","392","2.0.0","356551","pk8chspcusg","mus","tortoise","21","","no","yes","less than a year","10","null","stimuli/sounds/flute_label_A.wav","null","","","","","","",""
"","","","","","html-keyboard-response","393","2.0.0","357556","pk8chspcusg","mus","tortoise","21","","no","yes","less than a year","10","null","","null","","","","","","",""
"","","","","","image-keyboard-response","394","2.0.0","358192","pk8chspcusg","mus","tortoise","21","","no","yes","less than a year","10","635","stimuli/pictures/flute_metal_2.jpg","1","1","","true","yes","sound","stimuli/sounds/flute_label_A.wav",""
"","","","","","audio-keyboard-response","395","2.0.0","359197","pk8chspcusg","mus","tortoise","21","","no","yes","less than a year","10","null","stimuli/sounds/bleep.wav","null","","","","","","",""
"","","","","","html-keyboard-response","396","2.0.0","359525","pk8chspcusg","mus","tortoise","21","","no","yes","less than a year","10","219","<div style=""font-size:30px;"">Press space to start the trial</div>"," ","","","","","","",""
"","","","","","html-keyboard-response","397","2.0.0","359785","pk8chspcusg","mus","tortoise","21","","no","yes","less than a year","10","null","<div style=""font-size:60px;"">+</div>","null","","","","","","",""
"","","","","","audio-keyboard-response","398","2.0.0","360381","pk8chspcusg","mus","tortoise","21","","no","yes","less than a year","10","null","stimuli/sounds/phone_sound_A.wav","null","","","","","","",""
"","","","","","html-keyboard-response","399","2.0.0","361388","pk8chspcusg","mus","tortoise","21","","no","yes","less than a year","10","null","","null","","","","","","",""
"","","","","","image-keyboard-response","400","2.0.0","361894","pk8chspcusg","mus","tortoise","21","","no","yes","less than a year","10","504","stimuli/pictures/bird_hawk_1.jpg","0","0","","true","no","sound","stimuli/sounds/phone_sound_A.wav",""
"","","","","","audio-keyboard-response","401","2.0.0","362374","pk8chspcusg","mus","tortoise","21","","no","yes","less than a year","10","480","stimuli/sounds/bleep.wav"," ","","","","","","",""
"","","","","","html-keyboard-response","402","2.0.0","363336","pk8chspcusg","mus","tortoise","21","","no","yes","less than a year","10","856","<div style=""font-size:30px;"">Press space to start the trial</div>"," ","","","","","","",""
"","","","","","html-keyboard-response","403","2.0.0","363594","pk8chspcusg","mus","tortoise","21","","no","yes","less than a year","10","null","<div style=""font-size:60px;"">+</div>","null","","","","","","",""
"","","","","","audio-keyboard-response","404","2.0.0","364191","pk8chspcusg","mus","tortoise","21","","no","yes","less than a year","10","null","stimuli/sounds/drum_label_A.wav","null","","","","","","",""
"","","","","","html-keyboard-response","405","2.0.0","365200","pk8chspcusg","mus","tortoise","21","","no","yes","less than a year","10","null","","null","","","","","","",""
"","","","","","image-keyboard-response","406","2.0.0","365867","pk8chspcusg","mus","tortoise","21","","no","yes","less than a year","10","667","stimuli/pictures/bird_song_2.jpg","0","0","","true","no","sound","stimuli/sounds/drum_label_A.wav",""
"","","","","","audio-keyboard-response","407","2.0.0","366756","pk8chspcusg","mus","tortoise","21","","no","yes","less than a year","10","891","stimuli/sounds/bleep.wav"," ","","","","","","",""
"","","","","","html-keyboard-response","408","2.0.0","367207","pk8chspcusg","mus","tortoise","21","","no","yes","less than a year","10","346","<div style=""font-size:30px;"">Press space to start the trial</div>"," ","","","","","","",""
"","","","","","html-keyboard-response","409","2.0.0","367466","pk8chspcusg","mus","tortoise","21","","no","yes","less than a year","10","null","<div style=""font-size:60px;"">+</div>","null","","","","","","",""
"","","","","","audio-keyboard-response","410","2.0.0","368071","pk8chspcusg","mus","tortoise","21","","no","yes","less than a year","10","null","stimuli/sounds/flute_label_B.wav","null","","","","","","",""
"","","","","","html-keyboard-response","411","2.0.0","369080","pk8chspcusg","mus","tortoise","21","","no","yes","less than a year","10","null","","null","","","","","","",""
"","","","","","image-keyboard-response","412","2.0.0","369658","pk8chspcusg","mus","tortoise","21","","no","yes","less than a year","10","576","stimuli/pictures/flute_wooden_2.jpg","1","1","","true","yes","sound","stimuli/sounds/flute_label_B.wav",""
"","","","","","audio-keyboard-response","413","2.0.0","370660","pk8chspcusg","mus","tortoise","21","","no","yes","less than a year","10","null","stimuli/sounds/bleep.wav","null","","","","","","",""
"","","","","","html-keyboard-response","414","2.0.0","371060","pk8chspcusg","mus","tortoise","21","","no","yes","less than a year","10","290","<div style=""font-size:30px;"">Press space to start the trial</div>"," ","","","","","","",""
"","","","","","html-keyboard-response","415","2.0.0","371314","pk8chspcusg","mus","tortoise","21","","no","yes","less than a year","10","null","<div style=""font-size:60px;"">+</div>","null","","","","","","",""
"","","","","","audio-keyboard-response","416","2.0.0","371911","pk8chspcusg","mus","tortoise","21","","no","yes","less than a year","10","null","stimuli/sounds/drum_sound_A.wav","null","","","","","","",""
"","","","","","html-keyboard-response","417","2.0.0","372918","pk8chspcusg","mus","tortoise","21","","no","yes","less than a year","10","null","","null","","","","","","",""
"","","","","","image-keyboard-response","418","2.0.0","373406","pk8chspcusg","mus","tortoise","21","","no","yes","less than a year","10","486","stimuli/pictures/drum_kit_1.jpg","1","1","","true","yes","sound","stimuli/sounds/drum_sound_A.wav",""
"","","","","","audio-keyboard-response","419","2.0.0","374408","pk8chspcusg","mus","tortoise","21","","no","yes","less than a year","10","null","stimuli/sounds/bleep.wav","null","","","","","","",""
"","","","","","html-keyboard-response","420","2.0.0","374906","pk8chspcusg","mus","tortoise","21","","no","yes","less than a year","10","390","<div style=""font-size:30px;"">Press space to start the trial</div>"," ","","","","","","",""
"","","","","","html-keyboard-response","421","2.0.0","375171","pk8chspcusg","mus","tortoise","21","","no","yes","less than a year","10","null","<div style=""font-size:60px;"">+</div>","null","","","","","","",""
"","","","","","audio-keyboard-response","422","2.0.0","375771","pk8chspcusg","mus","tortoise","21","","no","yes","less than a year","10","null","stimuli/sounds/drum_sound_A.wav","null","","","","","","",""
"","","","","","html-keyboard-response","423","2.0.0","376785","pk8chspcusg","mus","tortoise","21","","no","yes","less than a year","10","null","","null","","","","","","",""
"","","","","","image-keyboard-response","424","2.0.0","377457","pk8chspcusg","mus","tortoise","21","","no","yes","less than a year","10","671","stimuli/pictures/flute_wooden_1.jpg","0","0","","true","no","sound","stimuli/sounds/drum_sound_A.wav",""
"","","","","","audio-keyboard-response","425","2.0.0","378466","pk8chspcusg","mus","tortoise","21","","no","yes","less than a year","10","null","stimuli/sounds/bleep.wav","null","","","","","","",""
"","","","","","html-keyboard-response","426","2.0.0","379095","pk8chspcusg","mus","tortoise","21","","no","yes","less than a year","10","518","<div style=""font-size:30px;"">Press space to start the trial</div>"," ","","","","","","",""
"","","","","","html-keyboard-response","427","2.0.0","379356","pk8chspcusg","mus","tortoise","21","","no","yes","less than a year","10","null","<div style=""font-size:60px;"">+</div>","null","","","","","","",""
"","","","","","audio-keyboard-response","428","2.0.0","379951","pk8chspcusg","mus","tortoise","21","","no","yes","less than a year","10","null","stimuli/sounds/phone_label_A.wav","null","","","","","","",""
"","","","","","html-keyboard-response","429","2.0.0","380952","pk8chspcusg","mus","tortoise","21","","no","yes","less than a year","10","null","","null","","","","","","",""
"","","","","","image-keyboard-response","430","2.0.0","381618","pk8chspcusg","mus","tortoise","21","","no","yes","less than a year","10","664","stimuli/pictures/drum_kit_2.jpg","0","0","","true","no","sound","stimuli/sounds/phone_label_A.wav",""
"","","","","","audio-keyboard-response","431","2.0.0","382632","pk8chspcusg","mus","tortoise","21","","no","yes","less than a year","10","null","stimuli/sounds/bleep.wav","null","","","","","","",""
"","","","","","html-keyboard-response","432","2.0.0","383086","pk8chspcusg","mus","tortoise","21","","no","yes","less than a year","10","346","<div style=""font-size:30px;"">Press space to start the trial</div>"," ","","","","","","",""
"","","","","","html-keyboard-response","433","2.0.0","383347","pk8chspcusg","mus","tortoise","21","","no","yes","less than a year","10","null","<div style=""font-size:60px;"">+</div>","null","","","","","","",""
"","","","","","audio-keyboard-response","434","2.0.0","383941","pk8chspcusg","mus","tortoise","21","","no","yes","less than a year","10","null","stimuli/sounds/bird_sound_B.wav","null","","","","","","",""
"","","","","","html-keyboard-response","435","2.0.0","384948","pk8chspcusg","mus","tortoise","21","","no","yes","less than a year","10","null","","null","","","","","","",""
"","","","","","image-keyboard-response","436","2.0.0","385454","pk8chspcusg","mus","tortoise","21","","no","yes","less than a year","10","505","stimuli/pictures/bird_hawk_1.jpg","1","1","","true","no","sound","stimuli/sounds/bird_sound_B.wav",""
"","","","","","audio-keyboard-response","437","2.0.0","386468","pk8chspcusg","mus","tortoise","21","","no","yes","less than a year","10","null","stimuli/sounds/bleep.wav","null","","","","","","",""
"","","","","","html-keyboard-response","438","2.0.0","387295","pk8chspcusg","mus","tortoise","21","","no","yes","less than a year","10","720","<div style=""font-size:30px;"">Press space to start the trial</div>"," ","","","","","","",""
"","","","","","html-keyboard-response","439","2.0.0","387553","pk8chspcusg","mus","tortoise","21","","no","yes","less than a year","10","null","<div style=""font-size:60px;"">+</div>","null","","","","","","",""
"","","","","","audio-keyboard-response","440","2.0.0","388151","pk8chspcusg","mus","tortoise","21","","no","yes","less than a year","10","null","stimuli/sounds/drum_label_B.wav","null","","","","","","",""
"","","","","","html-keyboard-response","441","2.0.0","389160","pk8chspcusg","mus","tortoise","21","","no","yes","less than a year","10","null","","null","","","","","","",""
"","","","","","image-keyboard-response","442","2.0.0","389825","pk8chspcusg","mus","tortoise","21","","no","yes","less than a year","10","663","stimuli/pictures/piano_electric_2.jpg","0","0","","true","no","sound","stimuli/sounds/drum_label_B.wav",""
"","","","","","audio-keyboard-response","443","2.0.0","390837","pk8chspcusg","mus","tortoise","21","","no","yes","less than a year","10","null","stimuli/sounds/bleep.wav","null","","","","","","",""
"","","","","","html-keyboard-response","444","2.0.0","391258","pk8chspcusg","mus","tortoise","21","","no","yes","less than a year","10","312","<div style=""font-size:30px;"">Press space to start the trial</div>"," ","","","","","","",""
"","","","","","html-keyboard-response","445","2.0.0","391520","pk8chspcusg","mus","tortoise","21","","no","yes","less than a year","10","null","<div style=""font-size:60px;"">+</div>","null","","","","","","",""
"","","","","","audio-keyboard-response","446","2.0.0","392131","pk8chspcusg","mus","tortoise","21","","no","yes","less than a year","10","null","stimuli/sounds/flute_label_B.wav","null","","","","","","",""
"","","","","","html-keyboard-response","447","2.0.0","393137","pk8chspcusg","mus","tortoise","21","","no","yes","less than a year","10","null","","null","","","","","","",""
"","","","","","image-keyboard-response","448","2.0.0","393656","pk8chspcusg","mus","tortoise","21","","no","yes","less than a year","10","518","stimuli/pictures/flute_metal_2.jpg","1","1","","true","yes","sound","stimuli/sounds/flute_label_B.wav",""
"","","","","","audio-keyboard-response","449","2.0.0","394661","pk8chspcusg","mus","tortoise","21","","no","yes","less than a year","10","null","stimuli/sounds/bleep.wav","null","","","","","","",""
"","","","","","html-keyboard-response","450","2.0.0","395070","pk8chspcusg","mus","tortoise","21","","no","yes","less than a year","10","300","<div style=""font-size:30px;"">Press space to start the trial</div>"," ","","","","","","",""
"","","","","","html-keyboard-response","451","2.0.0","395332","pk8chspcusg","mus","tortoise","21","","no","yes","less than a year","10","null","<div style=""font-size:60px;"">+</div>","null","","","","","","",""
"","","","","","audio-keyboard-response","452","2.0.0","395931","pk8chspcusg","mus","tortoise","21","","no","yes","less than a year","10","null","stimuli/sounds/phone_label_A.wav","null","","","","","","",""
"","","","","","html-keyboard-response","453","2.0.0","396933","pk8chspcusg","mus","tortoise","21","","no","yes","less than a year","10","null","","null","","","","","","",""
"","","","","","image-keyboard-response","454","2.0.0","397574","pk8chspcusg","mus","tortoise","21","","no","yes","less than a year","10","640","stimuli/pictures/phone_cell_1.jpg","1","1","","true","yes","sound","stimuli/sounds/phone_label_A.wav",""
"","","","","","audio-keyboard-response","455","2.0.0","398580","pk8chspcusg","mus","tortoise","21","","no","yes","less than a year","10","null","stimuli/sounds/bleep.wav","null","","","","","","",""
"","","","","","html-keyboard-response","456","2.0.0","399311","pk8chspcusg","mus","tortoise","21","","no","yes","less than a year","10","624","<div style=""font-size:30px;"">Press space to start the trial</div>"," ","","","","","","",""
"","","","","","html-keyboard-response","457","2.0.0","399571","pk8chspcusg","mus","tortoise","21","","no","yes","less than a year","10","null","<div style=""font-size:60px;"">+</div>","null","","","","","","",""
"","","","","","audio-keyboard-response","458","2.0.0","400171","pk8chspcusg","mus","tortoise","21","","no","yes","less than a year","10","null","stimuli/sounds/bird_label_A.wav","null","","","","","","",""
"","","","","","html-keyboard-response","459","2.0.0","401186","pk8chspcusg","mus","tortoise","21","","no","yes","less than a year","10","null","","null","","","","","","",""
"","","","","","image-keyboard-response","460","2.0.0","402077","pk8chspcusg","mus","tortoise","21","","no","yes","less than a year","10","890","stimuli/pictures/flute_wooden_1.jpg","0","0","","true","no","sound","stimuli/sounds/bird_label_A.wav",""
