"success","timeout","failed_images","failed_audio","failed_video","trial_type","trial_index","plugin_version","time_elapsed","random_id","condition","participant","age","gender_id","mus_exp","inst_exp","years_exp","mus_listening","rt","stimulus","response","correct_response","practice","correct","congruent","sound_type","audio","question_order"
"true","false","[]","[]","[]","preload","0","2.0.0","144","pkexwy3ddh4","ono","calf","22","female","no","yes","2","1","","","","","","","","","",""
"","","","","","html-keyboard-response","1","2.0.0","1947","pkexwy3ddh4","ono","calf","22","female","no","yes","2","1","1801","Welcome to the experiment! Press any key to begin.","Enter","","","","","","",""
"true","","","","","fullscreen","2","null","4450","pkexwy3ddh4","ono","calf","22","female","no","yes","2","1","1494","","","","","","","","",""
"","","","","","survey-text","3","2.0.0","6470","pkexwy3ddh4","ono","calf","22","female","no","yes","2","1","2017","","{""participant_id"":""calf""}","","","","","","",""
"","","","","","html-keyboard-response","4","2.0.0","10722","pkexwy3ddh4","ono","calf","22","female","no","yes","2","1","4250","
    <p> Please use headphones for the duration of the study.</p>
    <p> Within each trial, you will hear a sound and then be presented with an image in the center of your screen.</p>
    <p>Press the <b>'1'</b> key if what you hear <u>matches</u> what you see.</p>
    <p>Press the <b>'0'</b> key if what you hear <u>does not match</u> what you see.</p>
    <p>Try to respond as quickly and accurately as you can.</p>
    <p> Press any key to begin.</p>
    ","End","","","","","","",""
"","","","","","html-keyboard-response","5","2.0.0","13582","pkexwy3ddh4","ono","calf","22","female","no","yes","2","1","2859","
    <div style=""font-size:28px;"">
      <p>You will now complete 4 short practice trials.</p>
      <p>This is just to help you get familiar with the task.</p>
      <p>Press any key to begin.</p>
    </div>
  ","End","","","","","","",""
"","","","","","html-keyboard-response","6","2.0.0","14096","pkexwy3ddh4","ono","calf","22","female","no","yes","2","1","null","<div style=""font-size:60px;"">+</div>","null","","","","","","",""
"","","","","","audio-keyboard-response","7","2.0.0","15661","pkexwy3ddh4","ono","calf","22","female","no","yes","2","1","null","stimuli/sounds/guitar_label_A.wav","null","","","","","","",""
"","","","","","image-keyboard-response","8","2.0.0","29982","pkexwy3ddh4","ono","calf","22","female","no","yes","2","1","14317","stimuli/pictures/guitar_acoustic_1.jpg","1","1","true","true","","","",""
"","","","","","audio-keyboard-response","9","2.0.0","30796","pkexwy3ddh4","ono","calf","22","female","no","yes","2","1","null","stimuli/sounds/bleep.wav","null","","","","","","",""
"","","","","","html-keyboard-response","10","2.0.0","31503","pkexwy3ddh4","ono","calf","22","female","no","yes","2","1","null","<p style='color:green; font-size:30px;'>Correct!</p>","null","","","","","","",""
"","","","","","html-keyboard-response","11","2.0.0","32014","pkexwy3ddh4","ono","calf","22","female","no","yes","2","1","null","<div style=""font-size:60px;"">+</div>","null","","","","","","",""
"","","","","","audio-keyboard-response","12","2.0.0","32609","pkexwy3ddh4","ono","calf","22","female","no","yes","2","1","null","stimuli/sounds/guitar_sound_B.wav","null","","","","","","",""
"","","","","","image-keyboard-response","13","2.0.0","33945","pkexwy3ddh4","ono","calf","22","female","no","yes","2","1","1335","stimuli/pictures/guitar_acoustic_2.jpg","1","1","true","true","","","",""
"","","","","","audio-keyboard-response","14","2.0.0","34760","pkexwy3ddh4","ono","calf","22","female","no","yes","2","1","null","stimuli/sounds/bleep.wav","null","","","","","","",""
"","","","","","html-keyboard-response","15","2.0.0","35463","pkexwy3ddh4","ono","calf","22","female","no","yes","2","1","null","<p style='color:green; font-size:30px;'>Correct!</p>","null","","","","","","",""
"","","","","","html-keyboard-response","16","2.0.0","35978","pkexwy3ddh4","ono","calf","22","female","no","yes","2","1","null","<div style=""font-size:60px;"">+</div>","null","","","","","","",""
"","","","","","audio-keyboard-response","17","2.0.0","36579","pkexwy3ddh4","ono","calf","22","female","no","yes","2","1","null","stimuli/sounds/flute_sound_A.wav","null","","","","","","",""
"","","","","","image-keyboard-response","18","2.0.0","46035","pkexwy3ddh4","ono","calf","22","female","no","yes","2","1","9454","stimuli/pictures/guitar_electric_1.jpg","1","0","true","false","","","",""
"","","","","","audio-keyboard-response","19","2.0.0","46836","pkexwy3ddh4","ono","calf","22","female","no","yes","2","1","null","stimuli/sounds/buzz.wav","null","","","","","","",""
"","","","","","html-keyboard-response","20","2.0.0","47537","pkexwy3ddh4","ono","calf","22","female","no","yes","2","1","null","<p style='color:red; font-size:30px;'>Incorrect</p>","null","","","","","","",""
"","","","","","html-keyboard-response","21","2.0.0","48048","pkexwy3ddh4","ono","calf","22","female","no","yes","2","1","null","<div style=""font-size:60px;"">+</div>","null","","","","","","",""
"","","","","","audio-keyboard-response","22","2.0.0","48659","pkexwy3ddh4","ono","calf","22","female","no","yes","2","1","null","stimuli/sounds/guitar_sound_A.wav","null","","","","","","",""
"","","","","","image-keyboard-response","23","2.0.0","194262","pkexwy3ddh4","ono","calf","22","female","no","yes","2","1","145603","stimuli/pictures/guitar_acoustic_1.jpg","0","1","true","false","","","",""
"","","","","","audio-keyboard-response","24","2.0.0","195067","pkexwy3ddh4","ono","calf","22","female","no","yes","2","1","null","stimuli/sounds/buzz.wav","null","","","","","","",""
"","","","","","html-keyboard-response","25","2.0.0","195772","pkexwy3ddh4","ono","calf","22","female","no","yes","2","1","null","<p style='color:red; font-size:30px;'>Incorrect</p>","null","","","","","","",""
"","","","","","html-keyboard-response","26","2.0.0","196914","pkexwy3ddh4","ono","calf","22","female","no","yes","2","1","1140","<p>Practice complete. Press any key to begin the real experiment.</p>","0","","","","","","",""
"","","","","","html-keyboard-response","27","2.0.0","202957","pkexwy3ddh4","ono","calf","22","female","no","yes","2","1","6042","<div style=""font-size:30px;"">Press space to start the trial</div>"," ","","","","","","",""
"","","","","","html-keyboard-response","28","2.0.0","203219","pkexwy3ddh4","ono","calf","22","female","no","yes","2","1","null","<div style=""font-size:60px;"">+</div>","null","","","","","","",""
"","","","","","audio-keyboard-response","29","2.0.0","203811","pkexwy3ddh4","ono","calf","22","female","no","yes","2","1","null","stimuli/sounds/motor_sound_A.wav","null","","","","","","",""
"","","","","","html-keyboard-response","30","2.0.0","204816","pkexwy3ddh4","ono","calf","22","female","no","yes","2","1","null","","null","","","","","","",""
"","","","","","image-keyboard-response","31","2.0.0","216901","pkexwy3ddh4","ono","calf","22","female","no","yes","2","1","12084","stimuli/pictures/motor_harley_2.jpg","0","1","","false","no","sound","stimuli/sounds/motor_sound_A.wav",""
"","","","","","audio-keyboard-response","32","2.0.0","217904","pkexwy3ddh4","ono","calf","22","female","no","yes","2","1","null","stimuli/sounds/buzz.wav","null","","","","","","",""
"","","","","","html-keyboard-response","33","2.0.0","222478","pkexwy3ddh4","ono","calf","22","female","no","yes","2","1","4465","<div style=""font-size:30px;"">Press space to start the trial</div>"," ","","","","","","",""
"","","","","","html-keyboard-response","34","2.0.0","222734","pkexwy3ddh4","ono","calf","22","female","no","yes","2","1","null","<div style=""font-size:60px;"">+</div>","null","","","","","","",""
"","","","","","audio-keyboard-response","35","2.0.0","223330","pkexwy3ddh4","ono","calf","22","female","no","yes","2","1","null","stimuli/sounds/motor_sound_A.wav","null","","","","","","",""
"","","","","","html-keyboard-response","36","2.0.0","224340","pkexwy3ddh4","ono","calf","22","female","no","yes","2","1","null","","null","","","","","","",""
"","","","","","image-keyboard-response","37","2.0.0","225822","pkexwy3ddh4","ono","calf","22","female","no","yes","2","1","1480","stimuli/pictures/motor_dirt_1.jpg","1","1","","true","yes","sound","stimuli/sounds/motor_sound_A.wav",""
"","","","","","audio-keyboard-response","38","2.0.0","226832","pkexwy3ddh4","ono","calf","22","female","no","yes","2","1","null","stimuli/sounds/bleep.wav","null","","","","","","",""
"","","","","","html-keyboard-response","39","2.0.0","232625","pkexwy3ddh4","ono","calf","22","female","no","yes","2","1","5685","<div style=""font-size:30px;"">Press space to start the trial</div>"," ","","","","","","",""
"","","","","","html-keyboard-response","40","2.0.0","232886","pkexwy3ddh4","ono","calf","22","female","no","yes","2","1","null","<div style=""font-size:60px;"">+</div>","null","","","","","","",""
"","","","","","audio-keyboard-response","41","2.0.0","233421","pkexwy3ddh4","ono","calf","22","female","no","yes","2","1","null","stimuli/sounds/hiccup_label_A.wav","null","","","","","","",""
"","","","","","html-keyboard-response","42","2.0.0","234435","pkexwy3ddh4","ono","calf","22","female","no","yes","2","1","null","","null","","","","","","",""
"","","","","","image-keyboard-response","43","2.0.0","237285","pkexwy3ddh4","ono","calf","22","female","no","yes","2","1","2849","stimuli/pictures/hiccup_man_1.jpg","0","1","","false","yes","sound","stimuli/sounds/hiccup_label_A.wav",""
"","","","","","audio-keyboard-response","44","2.0.0","238294","pkexwy3ddh4","ono","calf","22","female","no","yes","2","1","null","stimuli/sounds/buzz.wav","null","","","","","","",""
"","","","","","html-keyboard-response","45","2.0.0","241675","pkexwy3ddh4","ono","calf","22","female","no","yes","2","1","3273","<div style=""font-size:30px;"">Press space to start the trial</div>"," ","","","","","","",""
"","","","","","html-keyboard-response","46","2.0.0","241933","pkexwy3ddh4","ono","calf","22","female","no","yes","2","1","null","<div style=""font-size:60px;"">+</div>","null","","","","","","",""
"","","","","","audio-keyboard-response","47","2.0.0","242531","pkexwy3ddh4","ono","calf","22","female","no","yes","2","1","null","stimuli/sounds/dog_sound_A.wav","null","","","","","","",""
"","","","","","html-keyboard-response","48","2.0.0","243541","pkexwy3ddh4","ono","calf","22","female","no","yes","2","1","null","","null","","","","","","",""
"","","","","","image-keyboard-response","49","2.0.0","247407","pkexwy3ddh4","ono","calf","22","female","no","yes","2","1","3865","stimuli/pictures/hiccup_man_2.jpg","0","0","","true","no","sound","stimuli/sounds/dog_sound_A.wav",""
"","","","","","audio-keyboard-response","50","2.0.0","248409","pkexwy3ddh4","ono","calf","22","female","no","yes","2","1","null","stimuli/sounds/bleep.wav","null","","","","","","",""
"","","","","","html-keyboard-response","51","2.0.0","255695","pkexwy3ddh4","ono","calf","22","female","no","yes","2","1","7179","<div style=""font-size:30px;"">Press space to start the trial</div>"," ","","","","","","",""
"","","","","","html-keyboard-response","52","2.0.0","255947","pkexwy3ddh4","ono","calf","22","female","no","yes","2","1","null","<div style=""font-size:60px;"">+</div>","null","","","","","","",""
"","","","","","audio-keyboard-response","53","2.0.0","256480","pkexwy3ddh4","ono","calf","22","female","no","yes","2","1","null","stimuli/sounds/hiccup_label_A.wav","null","","","","","","",""
"","","","","","html-keyboard-response","54","2.0.0","257489","pkexwy3ddh4","ono","calf","22","female","no","yes","2","1","null","","null","","","","","","",""
"","","","","","image-keyboard-response","55","2.0.0","260149","pkexwy3ddh4","ono","calf","22","female","no","yes","2","1","2659","stimuli/pictures/cough_man_1.jpg","0","0","","true","no","sound","stimuli/sounds/hiccup_label_A.wav",""
"","","","","","audio-keyboard-response","56","2.0.0","261160","pkexwy3ddh4","ono","calf","22","female","no","yes","2","1","null","stimuli/sounds/bleep.wav","null","","","","","","",""
"","","","","","html-keyboard-response","57","2.0.0","265772","pkexwy3ddh4","ono","calf","22","female","no","yes","2","1","4501","<div style=""font-size:30px;"">Press space to start the trial</div>"," ","","","","","","",""
"","","","","","html-keyboard-response","58","2.0.0","266026","pkexwy3ddh4","ono","calf","22","female","no","yes","2","1","null","<div style=""font-size:60px;"">+</div>","null","","","","","","",""
"","","","","","audio-keyboard-response","59","2.0.0","266571","pkexwy3ddh4","ono","calf","22","female","no","yes","2","1","null","stimuli/sounds/drop_label_A.wav","null","","","","","","",""
"","","","","","html-keyboard-response","60","2.0.0","267572","pkexwy3ddh4","ono","calf","22","female","no","yes","2","1","null","","null","","","","","","",""
"","","","","","image-keyboard-response","61","2.0.0","270169","pkexwy3ddh4","ono","calf","22","female","no","yes","2","1","2595","stimuli/pictures/hiccup_man_2.jpg","0","0","","true","no","sound","stimuli/sounds/drop_label_A.wav",""
"","","","","","audio-keyboard-response","62","2.0.0","271174","pkexwy3ddh4","ono","calf","22","female","no","yes","2","1","null","stimuli/sounds/bleep.wav","null","","","","","","",""
"","","","","","html-keyboard-response","63","2.0.0","274368","pkexwy3ddh4","ono","calf","22","female","no","yes","2","1","3082","<div style=""font-size:30px;"">Press space to start the trial</div>"," ","","","","","","",""
"","","","","","html-keyboard-response","64","2.0.0","274627","pkexwy3ddh4","ono","calf","22","female","no","yes","2","1","null","<div style=""font-size:60px;"">+</div>","null","","","","","","",""
"","","","","","audio-keyboard-response","65","2.0.0","275211","pkexwy3ddh4","ono","calf","22","female","no","yes","2","1","null","stimuli/sounds/drop_sound_A.wav","null","","","","","","",""
"","","","","","html-keyboard-response","66","2.0.0","276224","pkexwy3ddh4","ono","calf","22","female","no","yes","2","1","null","","null","","","","","","",""
"","","","","","image-keyboard-response","67","2.0.0","278238","pkexwy3ddh4","ono","calf","22","female","no","yes","2","1","2014","stimuli/pictures/drop_multi_2.jpg","1","1","","true","no","sound","stimuli/sounds/drop_sound_A.wav",""
"","","","","","audio-keyboard-response","68","2.0.0","279240","pkexwy3ddh4","ono","calf","22","female","no","yes","2","1","null","stimuli/sounds/bleep.wav","null","","","","","","",""
"","","","","","html-keyboard-response","69","2.0.0","281729","pkexwy3ddh4","ono","calf","22","female","no","yes","2","1","2380","<div style=""font-size:30px;"">Press space to start the trial</div>"," ","","","","","","",""
"","","","","","html-keyboard-response","70","2.0.0","281984","pkexwy3ddh4","ono","calf","22","female","no","yes","2","1","null","<div style=""font-size:60px;"">+</div>","null","","","","","","",""
"","","","","","audio-keyboard-response","71","2.0.0","282590","pkexwy3ddh4","ono","calf","22","female","no","yes","2","1","null","stimuli/sounds/drop_sound_B.wav","null","","","","","","",""
"","","","","","html-keyboard-response","72","2.0.0","283607","pkexwy3ddh4","ono","calf","22","female","no","yes","2","1","null","","null","","","","","","",""
"","","","","","image-keyboard-response","73","2.0.0","285308","pkexwy3ddh4","ono","calf","22","female","no","yes","2","1","1699","stimuli/pictures/drop_multi_2.jpg","1","1","","true","yes","sound","stimuli/sounds/drop_sound_B.wav",""
"","","","","","audio-keyboard-response","74","2.0.0","286320","pkexwy3ddh4","ono","calf","22","female","no","yes","2","1","null","stimuli/sounds/bleep.wav","null","","","","","","",""
"","","","","","html-keyboard-response","75","2.0.0","287669","pkexwy3ddh4","ono","calf","22","female","no","yes","2","1","1239","<div style=""font-size:30px;"">Press space to start the trial</div>"," ","","","","","","",""
"","","","","","html-keyboard-response","76","2.0.0","287930","pkexwy3ddh4","ono","calf","22","female","no","yes","2","1","null","<div style=""font-size:60px;"">+</div>","null","","","","","","",""
"","","","","","audio-keyboard-response","77","2.0.0","288541","pkexwy3ddh4","ono","calf","22","female","no","yes","2","1","null","stimuli/sounds/cough_label_B.wav","null","","","","","","",""
"","","","","","html-keyboard-response","78","2.0.0","289549","pkexwy3ddh4","ono","calf","22","female","no","yes","2","1","null","","null","","","","","","",""
"","","","","","image-keyboard-response","79","2.0.0","291686","pkexwy3ddh4","ono","calf","22","female","no","yes","2","1","2136","stimuli/pictures/cough_wom_2.jpg","1","1","","true","yes","sound","stimuli/sounds/cough_label_B.wav",""
"","","","","","audio-keyboard-response","80","2.0.0","292697","pkexwy3ddh4","ono","calf","22","female","no","yes","2","1","null","stimuli/sounds/bleep.wav","null","","","","","","",""
"","","","","","html-keyboard-response","81","2.0.0","293806","pkexwy3ddh4","ono","calf","22","female","no","yes","2","1","999","<div style=""font-size:30px;"">Press space to start the trial</div>"," ","","","","","","",""
"","","","","","html-keyboard-response","82","2.0.0","294068","pkexwy3ddh4","ono","calf","22","female","no","yes","2","1","null","<div style=""font-size:60px;"">+</div>","null","","","","","","",""
"","","","","","audio-keyboard-response","83","2.0.0","294672","pkexwy3ddh4","ono","calf","22","female","no","yes","2","1","null","stimuli/sounds/drop_label_B.wav","null","","","","","","",""
"","","","","","html-keyboard-response","84","2.0.0","295676","pkexwy3ddh4","ono","calf","22","female","no","yes","2","1","null","","null","","","","","","",""
"","","","","","image-keyboard-response","85","2.0.0","296670","pkexwy3ddh4","ono","calf","22","female","no","yes","2","1","992","stimuli/pictures/drop_multi_2.jpg","0","1","","false","yes","sound","stimuli/sounds/drop_label_B.wav",""
"","","","","","audio-keyboard-response","86","2.0.0","297677","pkexwy3ddh4","ono","calf","22","female","no","yes","2","1","null","stimuli/sounds/buzz.wav","null","","","","","","",""
"","","","","","html-keyboard-response","87","2.0.0","299912","pkexwy3ddh4","ono","calf","22","female","no","yes","2","1","2127","<div style=""font-size:30px;"">Press space to start the trial</div>"," ","","","","","","",""
"","","","","","html-keyboard-response","88","2.0.0","300169","pkexwy3ddh4","ono","calf","22","female","no","yes","2","1","null","<div style=""font-size:60px;"">+</div>","null","","","","","","",""
"","","","","","audio-keyboard-response","89","2.0.0","300771","pkexwy3ddh4","ono","calf","22","female","no","yes","2","1","null","stimuli/sounds/hiccup_label_B.wav","null","","","","","","",""
"","","","","","html-keyboard-response","90","2.0.0","301782","pkexwy3ddh4","ono","calf","22","female","no","yes","2","1","null","","null","","","","","","",""
"","","","","","image-keyboard-response","91","2.0.0","302981","pkexwy3ddh4","ono","calf","22","female","no","yes","2","1","1199","stimuli/pictures/dog_york_2.jpg","0","0","","true","no","sound","stimuli/sounds/hiccup_label_B.wav",""
"","","","","","audio-keyboard-response","92","2.0.0","303994","pkexwy3ddh4","ono","calf","22","female","no","yes","2","1","null","stimuli/sounds/bleep.wav","null","","","","","","",""
"","","","","","html-keyboard-response","93","2.0.0","305244","pkexwy3ddh4","ono","calf","22","female","no","yes","2","1","1141","<div style=""font-size:30px;"">Press space to start the trial</div>"," ","","","","","","",""
"","","","","","html-keyboard-response","94","2.0.0","305503","pkexwy3ddh4","ono","calf","22","female","no","yes","2","1","null","<div style=""font-size:60px;"">+</div>","null","","","","","","",""
"","","","","","audio-keyboard-response","95","2.0.0","306052","pkexwy3ddh4","ono","calf","22","female","no","yes","2","1","null","stimuli/sounds/drop_label_A.wav","null","","","","","","",""
"","","","","","html-keyboard-response","96","2.0.0","307062","pkexwy3ddh4","ono","calf","22","female","no","yes","2","1","null","","null","","","","","","",""
"","","","","","image-keyboard-response","97","2.0.0","309039","pkexwy3ddh4","ono","calf","22","female","no","yes","2","1","1976","stimuli/pictures/hiccup_wom_1.jpg","0","0","","true","no","sound","stimuli/sounds/drop_label_A.wav",""
"","","","","","audio-keyboard-response","98","2.0.0","310052","pkexwy3ddh4","ono","calf","22","female","no","yes","2","1","null","stimuli/sounds/bleep.wav","null","","","","","","",""
"","","","","","html-keyboard-response","99","2.0.0","311189","pkexwy3ddh4","ono","calf","22","female","no","yes","2","1","1026","<div style=""font-size:30px;"">Press space to start the trial</div>"," ","","","","","","",""
"","","","","","html-keyboard-response","100","2.0.0","311448","pkexwy3ddh4","ono","calf","22","female","no","yes","2","1","null","<div style=""font-size:60px;"">+</div>","null","","","","","","",""
"","","","","","audio-keyboard-response","101","2.0.0","312051","pkexwy3ddh4","ono","calf","22","female","no","yes","2","1","null","stimuli/sounds/hiccup_sound_A.wav","null","","","","","","",""
"","","","","","html-keyboard-response","102","2.0.0","313055","pkexwy3ddh4","ono","calf","22","female","no","yes","2","1","null","","null","","","","","","",""
"","","","","","image-keyboard-response","103","2.0.0","314564","pkexwy3ddh4","ono","calf","22","female","no","yes","2","1","1508","stimuli/pictures/hiccup_man_2.jpg","1","1","","true","no","sound","stimuli/sounds/hiccup_sound_A.wav",""
"","","","","","audio-keyboard-response","104","2.0.0","315566","pkexwy3ddh4","ono","calf","22","female","no","yes","2","1","null","stimuli/sounds/bleep.wav","null","","","","","","",""
"","","","","","html-keyboard-response","105","2.0.0","316675","pkexwy3ddh4","ono","calf","22","female","no","yes","2","1","998","<div style=""font-size:30px;"">Press space to start the trial</div>"," ","","","","","","",""
"","","","","","html-keyboard-response","106","2.0.0","316938","pkexwy3ddh4","ono","calf","22","female","no","yes","2","1","null","<div style=""font-size:60px;"">+</div>","null","","","","","","",""
"","","","","","audio-keyboard-response","107","2.0.0","317521","pkexwy3ddh4","ono","calf","22","female","no","yes","2","1","null","stimuli/sounds/drop_sound_A.wav","null","","","","","","",""
"","","","","","html-keyboard-response","108","2.0.0","318533","pkexwy3ddh4","ono","calf","22","female","no","yes","2","1","null","","null","","","","","","",""
"","","","","","image-keyboard-response","109","2.0.0","321725","pkexwy3ddh4","ono","calf","22","female","no","yes","2","1","3191","stimuli/pictures/cough_man_1.jpg","0","0","","true","no","sound","stimuli/sounds/drop_sound_A.wav",""
"","","","","","audio-keyboard-response","110","2.0.0","322726","pkexwy3ddh4","ono","calf","22","female","no","yes","2","1","null","stimuli/sounds/bleep.wav","null","","","","","","",""
"","","","","","html-keyboard-response","111","2.0.0","323721","pkexwy3ddh4","ono","calf","22","female","no","yes","2","1","885","<div style=""font-size:30px;"">Press space to start the trial</div>"," ","","","","","","",""
"","","","","","html-keyboard-response","112","2.0.0","323980","pkexwy3ddh4","ono","calf","22","female","no","yes","2","1","null","<div style=""font-size:60px;"">+</div>","null","","","","","","",""
"","","","","","audio-keyboard-response","113","2.0.0","324560","pkexwy3ddh4","ono","calf","22","female","no","yes","2","1","null","stimuli/sounds/drop_sound_A.wav","null","","","","","","",""
"","","","","","html-keyboard-response","114","2.0.0","325573","pkexwy3ddh4","ono","calf","22","female","no","yes","2","1","null","","null","","","","","","",""
"","","","","","image-keyboard-response","115","2.0.0","326751","pkexwy3ddh4","ono","calf","22","female","no","yes","2","1","1177","stimuli/pictures/drop_single_1.jpg","0","1","","false","yes","sound","stimuli/sounds/drop_sound_A.wav",""
"","","","","","audio-keyboard-response","116","2.0.0","327759","pkexwy3ddh4","ono","calf","22","female","no","yes","2","1","null","stimuli/sounds/buzz.wav","null","","","","","","",""
"","","","","","html-keyboard-response","117","2.0.0","329604","pkexwy3ddh4","ono","calf","22","female","no","yes","2","1","1735","<div style=""font-size:30px;"">Press space to start the trial</div>"," ","","","","","","",""
"","","","","","html-keyboard-response","118","2.0.0","329861","pkexwy3ddh4","ono","calf","22","female","no","yes","2","1","null","<div style=""font-size:60px;"">+</div>","null","","","","","","",""
"","","","","","audio-keyboard-response","119","2.0.0","330470","pkexwy3ddh4","ono","calf","22","female","no","yes","2","1","null","stimuli/sounds/hiccup_label_B.wav","null","","","","","","",""
"","","","","","html-keyboard-response","120","2.0.0","331473","pkexwy3ddh4","ono","calf","22","female","no","yes","2","1","null","","null","","","","","","",""
"","","","","","image-keyboard-response","121","2.0.0","333136","pkexwy3ddh4","ono","calf","22","female","no","yes","2","1","1663","stimuli/pictures/dog_rott_1.jpg","1","0","","false","no","sound","stimuli/sounds/hiccup_label_B.wav",""
"","","","","","audio-keyboard-response","122","2.0.0","334150","pkexwy3ddh4","ono","calf","22","female","no","yes","2","1","null","stimuli/sounds/buzz.wav","null","","","","","","",""
"","","","","","html-keyboard-response","123","2.0.0","335375","pkexwy3ddh4","ono","calf","22","female","no","yes","2","1","1114","<div style=""font-size:30px;"">Press space to start the trial</div>"," ","","","","","","",""
"","","","","","html-keyboard-response","124","2.0.0","335633","pkexwy3ddh4","ono","calf","22","female","no","yes","2","1","null","<div style=""font-size:60px;"">+</div>","null","","","","","","",""
"","","","","","audio-keyboard-response","125","2.0.0","336240","pkexwy3ddh4","ono","calf","22","female","no","yes","2","1","null","stimuli/sounds/dog_label_B.wav","null","","","","","","",""
"","","","","","html-keyboard-response","126","2.0.0","337248","pkexwy3ddh4","ono","calf","22","female","no","yes","2","1","null","","null","","","","","","",""
"","","","","","image-keyboard-response","127","2.0.0","339073","pkexwy3ddh4","ono","calf","22","female","no","yes","2","1","1824","stimuli/pictures/dog_rott_1.jpg","1","1","","true","yes","sound","stimuli/sounds/dog_label_B.wav",""
"","","","","","audio-keyboard-response","128","2.0.0","340087","pkexwy3ddh4","ono","calf","22","female","no","yes","2","1","null","stimuli/sounds/bleep.wav","null","","","","","","",""
"","","","","","html-keyboard-response","129","2.0.0","341252","pkexwy3ddh4","ono","calf","22","female","no","yes","2","1","1056","<div style=""font-size:30px;"">Press space to start the trial</div>"," ","","","","","","",""
"","","","","","html-keyboard-response","130","2.0.0","341508","pkexwy3ddh4","ono","calf","22","female","no","yes","2","1","null","<div style=""font-size:60px;"">+</div>","null","","","","","","",""
"","","","","","audio-keyboard-response","131","2.0.0","342101","pkexwy3ddh4","ono","calf","22","female","no","yes","2","1","null","stimuli/sounds/motor_label_A.wav","null","","","","","","",""
"","","","","","html-keyboard-response","132","2.0.0","343114","pkexwy3ddh4","ono","calf","22","female","no","yes","2","1","null","","null","","","","","","",""
"","","","","","image-keyboard-response","133","2.0.0","345171","pkexwy3ddh4","ono","calf","22","female","no","yes","2","1","2056","stimuli/pictures/motor_harley_2.jpg","1","1","","true","yes","sound","stimuli/sounds/motor_label_A.wav",""
"","","","","","audio-keyboard-response","134","2.0.0","346188","pkexwy3ddh4","ono","calf","22","female","no","yes","2","1","null","stimuli/sounds/bleep.wav","null","","","","","","",""
"","","","","","html-keyboard-response","135","2.0.0","347903","pkexwy3ddh4","ono","calf","22","female","no","yes","2","1","1606","<div style=""font-size:30px;"">Press space to start the trial</div>"," ","","","","","","",""
"","","","","","html-keyboard-response","136","2.0.0","348154","pkexwy3ddh4","ono","calf","22","female","no","yes","2","1","null","<div style=""font-size:60px;"">+</div>","null","","","","","","",""
"","","","","","audio-keyboard-response","137","2.0.0","348751","pkexwy3ddh4","ono","calf","22","female","no","yes","2","1","null","stimuli/sounds/motor_label_A.wav","null","","","","","","",""
"","","","","","html-keyboard-response","138","2.0.0","349759","pkexwy3ddh4","ono","calf","22","female","no","yes","2","1","null","","null","","","","","","",""
"","","","","","image-keyboard-response","139","2.0.0","350586","pkexwy3ddh4","ono","calf","22","female","no","yes","2","1","826","stimuli/pictures/dog_york_1.jpg","0","0","","true","no","sound","stimuli/sounds/motor_label_A.wav",""
"","","","","","audio-keyboard-response","140","2.0.0","351601","pkexwy3ddh4","ono","calf","22","female","no","yes","2","1","null","stimuli/sounds/bleep.wav","null","","","","","","",""
"","","","","","html-keyboard-response","141","2.0.0","352757","pkexwy3ddh4","ono","calf","22","female","no","yes","2","1","1045","<div style=""font-size:30px;"">Press space to start the trial</div>"," ","","","","","","",""
"","","","","","html-keyboard-response","142","2.0.0","353021","pkexwy3ddh4","ono","calf","22","female","no","yes","2","1","null","<div style=""font-size:60px;"">+</div>","null","","","","","","",""
"","","","","","audio-keyboard-response","143","2.0.0","353621","pkexwy3ddh4","ono","calf","22","female","no","yes","2","1","null","stimuli/sounds/dog_label_A.wav","null","","","","","","",""
"","","","","","html-keyboard-response","144","2.0.0","354629","pkexwy3ddh4","ono","calf","22","female","no","yes","2","1","null","","null","","","","","","",""
"","","","","","image-keyboard-response","145","2.0.0","356069","pkexwy3ddh4","ono","calf","22","female","no","yes","2","1","1439","stimuli/pictures/drop_multi_2.jpg","0","0","","true","no","sound","stimuli/sounds/dog_label_A.wav",""
"","","","","","audio-keyboard-response","146","2.0.0","357081","pkexwy3ddh4","ono","calf","22","female","no","yes","2","1","null","stimuli/sounds/bleep.wav","null","","","","","","",""
"","","","","","html-keyboard-response","147","2.0.0","359839","pkexwy3ddh4","ono","calf","22","female","no","yes","2","1","2648","<p>You have completed a block. Press R when you are ready to continue</p>","r","","","","","","",""
"","","","","","html-keyboard-response","148","2.0.0","362272","pkexwy3ddh4","ono","calf","22","female","no","yes","2","1","2431","<div style=""font-size:30px;"">Press space to start the trial</div>"," ","","","","","","",""
"","","","","","html-keyboard-response","149","2.0.0","362532","pkexwy3ddh4","ono","calf","22","female","no","yes","2","1","null","<div style=""font-size:60px;"">+</div>","null","","","","","","",""
"","","","","","audio-keyboard-response","150","2.0.0","363141","pkexwy3ddh4","ono","calf","22","female","no","yes","2","1","null","stimuli/sounds/drop_label_B.wav","null","","","","","","",""
"","","","","","html-keyboard-response","151","2.0.0","364155","pkexwy3ddh4","ono","calf","22","female","no","yes","2","1","null","","null","","","","","","",""
"","","","","","image-keyboard-response","152","2.0.0","365359","pkexwy3ddh4","ono","calf","22","female","no","yes","2","1","1202","stimuli/pictures/motor_harley_2.jpg","0","0","","true","no","sound","stimuli/sounds/drop_label_B.wav",""
"","","","","","audio-keyboard-response","153","2.0.0","366376","pkexwy3ddh4","ono","calf","22","female","no","yes","2","1","null","stimuli/sounds/bleep.wav","null","","","","","","",""
"","","","","","html-keyboard-response","154","2.0.0","367545","pkexwy3ddh4","ono","calf","22","female","no","yes","2","1","1060","<div style=""font-size:30px;"">Press space to start the trial</div>"," ","","","","","","",""
"","","","","","html-keyboard-response","155","2.0.0","367798","pkexwy3ddh4","ono","calf","22","female","no","yes","2","1","null","<div style=""font-size:60px;"">+</div>","null","","","","","","",""
"","","","","","audio-keyboard-response","156","2.0.0","368391","pkexwy3ddh4","ono","calf","22","female","no","yes","2","1","null","stimuli/sounds/dog_sound_A.wav","null","","","","","","",""
"","","","","","html-keyboard-response","157","2.0.0","369395","pkexwy3ddh4","ono","calf","22","female","no","yes","2","1","null","","null","","","","","","",""
"","","","","","image-keyboard-response","158","2.0.0","370507","pkexwy3ddh4","ono","calf","22","female","no","yes","2","1","1111","stimuli/pictures/dog_rott_2.jpg","1","1","","true","yes","sound","stimuli/sounds/dog_sound_A.wav",""
"","","","","","audio-keyboard-response","159","2.0.0","371519","pkexwy3ddh4","ono","calf","22","female","no","yes","2","1","null","stimuli/sounds/bleep.wav","null","","","","","","",""
"","","","","","html-keyboard-response","160","2.0.0","372379","pkexwy3ddh4","ono","calf","22","female","no","yes","2","1","751","<div style=""font-size:30px;"">Press space to start the trial</div>"," ","","","","","","",""
"","","","","","html-keyboard-response","161","2.0.0","372644","pkexwy3ddh4","ono","calf","22","female","no","yes","2","1","null","<div style=""font-size:60px;"">+</div>","null","","","","","","",""
"","","","","","audio-keyboard-response","162","2.0.0","373230","pkexwy3ddh4","ono","calf","22","female","no","yes","2","1","null","stimuli/sounds/drop_sound_A.wav","null","","","","","","",""
"","","","","","html-keyboard-response","163","2.0.0","374246","pkexwy3ddh4","ono","calf","22","female","no","yes","2","1","null","","null","","","","","","",""
"","","","","","image-keyboard-response","164","2.0.0","375127","pkexwy3ddh4","ono","calf","22","female","no","yes","2","1","880","stimuli/pictures/drop_single_2.jpg","0","1","","false","yes","sound","stimuli/sounds/drop_sound_A.wav",""
"","","","","","audio-keyboard-response","165","2.0.0","376136","pkexwy3ddh4","ono","calf","22","female","no","yes","2","1","null","stimuli/sounds/buzz.wav","null","","","","","","",""
"","","","","","html-keyboard-response","166","2.0.0","378159","pkexwy3ddh4","ono","calf","22","female","no","yes","2","1","1912","<div style=""font-size:30px;"">Press space to start the trial</div>"," ","","","","","","",""
"","","","","","html-keyboard-response","167","2.0.0","378418","pkexwy3ddh4","ono","calf","22","female","no","yes","2","1","null","<div style=""font-size:60px;"">+</div>","null","","","","","","",""
"","","","","","audio-keyboard-response","168","2.0.0","379051","pkexwy3ddh4","ono","calf","22","female","no","yes","2","1","null","stimuli/sounds/cough_label_A.wav","null","","","","","","",""
"","","","","","html-keyboard-response","169","2.0.0","380055","pkexwy3ddh4","ono","calf","22","female","no","yes","2","1","null","","null","","","","","","",""
"","","","","","image-keyboard-response","170","2.0.0","381264","pkexwy3ddh4","ono","calf","22","female","no","yes","2","1","1207","stimuli/pictures/cough_wom_1.jpg","1","1","","true","yes","sound","stimuli/sounds/cough_label_A.wav",""
"","","","","","audio-keyboard-response","171","2.0.0","382274","pkexwy3ddh4","ono","calf","22","female","no","yes","2","1","null","stimuli/sounds/bleep.wav","null","","","","","","",""
"","","","","","html-keyboard-response","172","2.0.0","383391","pkexwy3ddh4","ono","calf","22","female","no","yes","2","1","1009","<div style=""font-size:30px;"">Press space to start the trial</div>"," ","","","","","","",""
"","","","","","html-keyboard-response","173","2.0.0","383646","pkexwy3ddh4","ono","calf","22","female","no","yes","2","1","null","<div style=""font-size:60px;"">+</div>","null","","","","","","",""
"","","","","","audio-keyboard-response","174","2.0.0","384251","pkexwy3ddh4","ono","calf","22","female","no","yes","2","1","null","stimuli/sounds/motor_label_A.wav","null","","","","","","",""
"","","","","","html-keyboard-response","175","2.0.0","385266","pkexwy3ddh4","ono","calf","22","female","no","yes","2","1","null","","null","","","","","","",""
"","","","","","image-keyboard-response","176","2.0.0","386541","pkexwy3ddh4","ono","calf","22","female","no","yes","2","1","1274","stimuli/pictures/motor_dirt_1.jpg","1","1","","true","yes","sound","stimuli/sounds/motor_label_A.wav",""
"","","","","","audio-keyboard-response","177","2.0.0","387557","pkexwy3ddh4","ono","calf","22","female","no","yes","2","1","null","stimuli/sounds/bleep.wav","null","","","","","","",""
"","","","","","html-keyboard-response","178","2.0.0","389245","pkexwy3ddh4","ono","calf","22","female","no","yes","2","1","1577","<div style=""font-size:30px;"">Press space to start the trial</div>"," ","","","","","","",""
"","","","","","html-keyboard-response","179","2.0.0","389505","pkexwy3ddh4","ono","calf","22","female","no","yes","2","1","null","<div style=""font-size:60px;"">+</div>","null","","","","","","",""
"","","","","","audio-keyboard-response","180","2.0.0","390111","pkexwy3ddh4","ono","calf","22","female","no","yes","2","1","null","stimuli/sounds/drop_label_B.wav","null","","","","","","",""
"","","","","","html-keyboard-response","181","2.0.0","391125","pkexwy3ddh4","ono","calf","22","female","no","yes","2","1","null","","null","","","","","","",""
"","","","","","image-keyboard-response","182","2.0.0","392575","pkexwy3ddh4","ono","calf","22","female","no","yes","2","1","1450","stimuli/pictures/drop_single_1.jpg","0","1","","false","yes","sound","stimuli/sounds/drop_label_B.wav",""
"","","","","","audio-keyboard-response","183","2.0.0","393578","pkexwy3ddh4","ono","calf","22","female","no","yes","2","1","null","stimuli/sounds/buzz.wav","null","","","","","","",""
"","","","","","html-keyboard-response","184","2.0.0","394754","pkexwy3ddh4","ono","calf","22","female","no","yes","2","1","1066","<div style=""font-size:30px;"">Press space to start the trial</div>"," ","","","","","","",""
"","","","","","html-keyboard-response","185","2.0.0","395006","pkexwy3ddh4","ono","calf","22","female","no","yes","2","1","null","<div style=""font-size:60px;"">+</div>","null","","","","","","",""
"","","","","","audio-keyboard-response","186","2.0.0","395611","pkexwy3ddh4","ono","calf","22","female","no","yes","2","1","null","stimuli/sounds/motor_label_B.wav","null","","","","","","",""
"","","","","","html-keyboard-response","187","2.0.0","396621","pkexwy3ddh4","ono","calf","22","female","no","yes","2","1","null","","null","","","","","","",""
"","","","","","image-keyboard-response","188","2.0.0","397630","pkexwy3ddh4","ono","calf","22","female","no","yes","2","1","1008","stimuli/pictures/motor_harley_1.jpg","1","1","","true","yes","sound","stimuli/sounds/motor_label_B.wav",""
"","","","","","audio-keyboard-response","189","2.0.0","398633","pkexwy3ddh4","ono","calf","22","female","no","yes","2","1","null","stimuli/sounds/bleep.wav","null","","","","","","",""
"","","","","","html-keyboard-response","190","2.0.0","399425","pkexwy3ddh4","ono","calf","22","female","no","yes","2","1","682","<div style=""font-size:30px;"">Press space to start the trial</div>"," ","","","","","","",""
"","","","","","html-keyboard-response","191","2.0.0","399681","pkexwy3ddh4","ono","calf","22","female","no","yes","2","1","null","<div style=""font-size:60px;"">+</div>","null","","","","","","",""
"","","","","","audio-keyboard-response","192","2.0.0","400291","pkexwy3ddh4","ono","calf","22","female","no","yes","2","1","null","stimuli/sounds/drop_sound_B.wav","null","","","","","","",""
"","","","","","html-keyboard-response","193","2.0.0","401291","pkexwy3ddh4","ono","calf","22","female","no","yes","2","1","null","","null","","","","","","",""
"","","","","","image-keyboard-response","194","2.0.0","408538","pkexwy3ddh4","ono","calf","22","female","no","yes","2","1","7245","stimuli/pictures/drop_single_1.jpg","1","1","","true","no","sound","stimuli/sounds/drop_sound_B.wav",""
"","","","","","audio-keyboard-response","195","2.0.0","409555","pkexwy3ddh4","ono","calf","22","female","no","yes","2","1","null","stimuli/sounds/bleep.wav","null","","","","","","",""
"","","","","","html-keyboard-response","196","2.0.0","410543","pkexwy3ddh4","ono","calf","22","female","no","yes","2","1","877","<div style=""font-size:30px;"">Press space to start the trial</div>"," ","","","","","","",""
"","","","","","html-keyboard-response","197","2.0.0","410805","pkexwy3ddh4","ono","calf","22","female","no","yes","2","1","null","<div style=""font-size:60px;"">+</div>","null","","","","","","",""
"","","","","","audio-keyboard-response","198","2.0.0","411401","pkexwy3ddh4","ono","calf","22","female","no","yes","2","1","null","stimuli/sounds/motor_sound_B.wav","null","","","","","","",""
"","","","","","html-keyboard-response","199","2.0.0","412412","pkexwy3ddh4","ono","calf","22","female","no","yes","2","1","null","","null","","","","","","",""
"","","","","","image-keyboard-response","200","2.0.0","414555","pkexwy3ddh4","ono","calf","22","female","no","yes","2","1","2141","stimuli/pictures/cough_wom_1.jpg","1","0","","false","no","sound","stimuli/sounds/motor_sound_B.wav",""
"","","","","","audio-keyboard-response","201","2.0.0","415561","pkexwy3ddh4","ono","calf","22","female","no","yes","2","1","null","stimuli/sounds/buzz.wav","null","","","","","","",""
"","","","","","html-keyboard-response","202","2.0.0","417226","pkexwy3ddh4","ono","calf","22","female","no","yes","2","1","1553","<div style=""font-size:30px;"">Press space to start the trial</div>"," ","","","","","","",""
"","","","","","html-keyboard-response","203","2.0.0","417482","pkexwy3ddh4","ono","calf","22","female","no","yes","2","1","null","<div style=""font-size:60px;"">+</div>","null","","","","","","",""
"","","","","","audio-keyboard-response","204","2.0.0","418151","pkexwy3ddh4","ono","calf","22","female","no","yes","2","1","null","stimuli/sounds/cough_sound_A.wav","null","","","","","","",""
"","","","","","html-keyboard-response","205","2.0.0","419162","pkexwy3ddh4","ono","calf","22","female","no","yes","2","1","null","","null","","","","","","",""
"","","","","","image-keyboard-response","206","2.0.0","420390","pkexwy3ddh4","ono","calf","22","female","no","yes","2","1","1227","stimuli/pictures/dog_rott_1.jpg","0","0","","true","no","sound","stimuli/sounds/cough_sound_A.wav",""
"","","","","","audio-keyboard-response","207","2.0.0","421408","pkexwy3ddh4","ono","calf","22","female","no","yes","2","1","null","stimuli/sounds/bleep.wav","null","","","","","","",""
"","","","","","html-keyboard-response","208","2.0.0","423313","pkexwy3ddh4","ono","calf","22","female","no","yes","2","1","1794","<div style=""font-size:30px;"">Press space to start the trial</div>"," ","","","","","","",""
"","","","","","html-keyboard-response","209","2.0.0","423579","pkexwy3ddh4","ono","calf","22","female","no","yes","2","1","null","<div style=""font-size:60px;"">+</div>","null","","","","","","",""
"","","","","","audio-keyboard-response","210","2.0.0","424182","pkexwy3ddh4","ono","calf","22","female","no","yes","2","1","null","stimuli/sounds/hiccup_sound_A.wav","null","","","","","","",""
"","","","","","html-keyboard-response","211","2.0.0","425189","pkexwy3ddh4","ono","calf","22","female","no","yes","2","1","null","","null","","","","","","",""
"","","","","","image-keyboard-response","212","2.0.0","427124","pkexwy3ddh4","ono","calf","22","female","no","yes","2","1","1934","stimuli/pictures/hiccup_wom_1.jpg","1","1","","true","yes","sound","stimuli/sounds/hiccup_sound_A.wav",""
"","","","","","audio-keyboard-response","213","2.0.0","428139","pkexwy3ddh4","ono","calf","22","female","no","yes","2","1","null","stimuli/sounds/bleep.wav","null","","","","","","",""
"","","","","","html-keyboard-response","214","2.0.0","433757","pkexwy3ddh4","ono","calf","22","female","no","yes","2","1","5509","<div style=""font-size:30px;"">Press space to start the trial</div>"," ","","","","","","",""
"","","","","","html-keyboard-response","215","2.0.0","434018","pkexwy3ddh4","ono","calf","22","female","no","yes","2","1","null","<div style=""font-size:60px;"">+</div>","null","","","","","","",""
"","","","","","audio-keyboard-response","216","2.0.0","434620","pkexwy3ddh4","ono","calf","22","female","no","yes","2","1","null","stimuli/sounds/hiccup_sound_B.wav","null","","","","","","",""
"","","","","","html-keyboard-response","217","2.0.0","435627","pkexwy3ddh4","ono","calf","22","female","no","yes","2","1","null","","null","","","","","","",""
"","","","","","image-keyboard-response","218","2.0.0","437609","pkexwy3ddh4","ono","calf","22","female","no","yes","2","1","1981","stimuli/pictures/drop_single_2.jpg","0","0","","true","no","sound","stimuli/sounds/hiccup_sound_B.wav",""
"","","","","","audio-keyboard-response","219","2.0.0","438623","pkexwy3ddh4","ono","calf","22","female","no","yes","2","1","null","stimuli/sounds/bleep.wav","null","","","","","","",""
"","","","","","html-keyboard-response","220","2.0.0","440081","pkexwy3ddh4","ono","calf","22","female","no","yes","2","1","1349","<div style=""font-size:30px;"">Press space to start the trial</div>"," ","","","","","","",""
"","","","","","html-keyboard-response","221","2.0.0","440339","pkexwy3ddh4","ono","calf","22","female","no","yes","2","1","null","<div style=""font-size:60px;"">+</div>","null","","","","","","",""
"","","","","","audio-keyboard-response","222","2.0.0","441001","pkexwy3ddh4","ono","calf","22","female","no","yes","2","1","null","stimuli/sounds/cough_sound_A.wav","null","","","","","","",""
"","","","","","html-keyboard-response","223","2.0.0","442006","pkexwy3ddh4","ono","calf","22","female","no","yes","2","1","null","","null","","","","","","",""
"","","","","","image-keyboard-response","224","2.0.0","443109","pkexwy3ddh4","ono","calf","22","female","no","yes","2","1","1102","stimuli/pictures/cough_man_1.jpg","1","1","","true","no","sound","stimuli/sounds/cough_sound_A.wav",""
"","","","","","audio-keyboard-response","225","2.0.0","444116","pkexwy3ddh4","ono","calf","22","female","no","yes","2","1","null","stimuli/sounds/bleep.wav","null","","","","","","",""
"","","","","","html-keyboard-response","226","2.0.0","449185","pkexwy3ddh4","ono","calf","22","female","no","yes","2","1","4957","<div style=""font-size:30px;"">Press space to start the trial</div>"," ","","","","","","",""
"","","","","","html-keyboard-response","227","2.0.0","449444","pkexwy3ddh4","ono","calf","22","female","no","yes","2","1","null","<div style=""font-size:60px;"">+</div>","null","","","","","","",""
"","","","","","audio-keyboard-response","228","2.0.0","449981","pkexwy3ddh4","ono","calf","22","female","no","yes","2","1","null","stimuli/sounds/hiccup_label_A.wav","null","","","","","","",""
"","","","","","html-keyboard-response","229","2.0.0","450985","pkexwy3ddh4","ono","calf","22","female","no","yes","2","1","null","","null","","","","","","",""
"","","","","","image-keyboard-response","230","2.0.0","455031","pkexwy3ddh4","ono","calf","22","female","no","yes","2","1","4045","stimuli/pictures/hiccup_man_2.jpg","1","1","","true","yes","sound","stimuli/sounds/hiccup_label_A.wav",""
"","","","","","audio-keyboard-response","231","2.0.0","456045","pkexwy3ddh4","ono","calf","22","female","no","yes","2","1","null","stimuli/sounds/bleep.wav","null","","","","","","",""
"","","","","","html-keyboard-response","232","2.0.0","457121","pkexwy3ddh4","ono","calf","22","female","no","yes","2","1","967","<div style=""font-size:30px;"">Press space to start the trial</div>"," ","","","","","","",""
"","","","","","html-keyboard-response","233","2.0.0","457384","pkexwy3ddh4","ono","calf","22","female","no","yes","2","1","null","<div style=""font-size:60px;"">+</div>","null","","","","","","",""
"","","","","","audio-keyboard-response","234","2.0.0","457931","pkexwy3ddh4","ono","calf","22","female","no","yes","2","1","null","stimuli/sounds/drop_label_A.wav","null","","","","","","",""
"","","","","","html-keyboard-response","235","2.0.0","458946","pkexwy3ddh4","ono","calf","22","female","no","yes","2","1","null","","null","","","","","","",""
"","","","","","image-keyboard-response","236","2.0.0","459831","pkexwy3ddh4","ono","calf","22","female","no","yes","2","1","884","stimuli/pictures/drop_single_1.jpg","0","1","","false","yes","sound","stimuli/sounds/drop_label_A.wav",""
"","","","","","audio-keyboard-response","237","2.0.0","460838","pkexwy3ddh4","ono","calf","22","female","no","yes","2","1","null","stimuli/sounds/buzz.wav","null","","","","","","",""
"","","","","","html-keyboard-response","238","2.0.0","468253","pkexwy3ddh4","ono","calf","22","female","no","yes","2","1","7306","<div style=""font-size:30px;"">Press space to start the trial</div>"," ","","","","","","",""
"","","","","","html-keyboard-response","239","2.0.0","468510","pkexwy3ddh4","ono","calf","22","female","no","yes","2","1","null","<div style=""font-size:60px;"">+</div>","null","","","","","","",""
"","","","","","audio-keyboard-response","240","2.0.0","469181","pkexwy3ddh4","ono","calf","22","female","no","yes","2","1","null","stimuli/sounds/cough_sound_A.wav","null","","","","","","",""
"","","","","","html-keyboard-response","241","2.0.0","470195","pkexwy3ddh4","ono","calf","22","female","no","yes","2","1","null","","null","","","","","","",""
"","","","","","image-keyboard-response","242","2.0.0","471456","pkexwy3ddh4","ono","calf","22","female","no","yes","2","1","1260","stimuli/pictures/cough_wom_2.jpg","1","1","","true","yes","sound","stimuli/sounds/cough_sound_A.wav",""
"","","","","","audio-keyboard-response","243","2.0.0","472459","pkexwy3ddh4","ono","calf","22","female","no","yes","2","1","null","stimuli/sounds/bleep.wav","null","","","","","","",""
"","","","","","html-keyboard-response","244","2.0.0","473417","pkexwy3ddh4","ono","calf","22","female","no","yes","2","1","848","<div style=""font-size:30px;"">Press space to start the trial</div>"," ","","","","","","",""
"","","","","","html-keyboard-response","245","2.0.0","473680","pkexwy3ddh4","ono","calf","22","female","no","yes","2","1","null","<div style=""font-size:60px;"">+</div>","null","","","","","","",""
"","","","","","audio-keyboard-response","246","2.0.0","474321","pkexwy3ddh4","ono","calf","22","female","no","yes","2","1","null","stimuli/sounds/cough_label_A.wav","null","","","","","","",""
"","","","","","html-keyboard-response","247","2.0.0","475329","pkexwy3ddh4","ono","calf","22","female","no","yes","2","1","null","","null","","","","","","",""
"","","","","","image-keyboard-response","248","2.0.0","476277","pkexwy3ddh4","ono","calf","22","female","no","yes","2","1","947","stimuli/pictures/cough_wom_2.jpg","1","1","","true","yes","sound","stimuli/sounds/cough_label_A.wav",""
"","","","","","audio-keyboard-response","249","2.0.0","477278","pkexwy3ddh4","ono","calf","22","female","no","yes","2","1","null","stimuli/sounds/bleep.wav","null","","","","","","",""
"","","","","","html-keyboard-response","250","2.0.0","477666","pkexwy3ddh4","ono","calf","22","female","no","yes","2","1","276","<div style=""font-size:30px;"">Press space to start the trial</div>"," ","","","","","","",""
"","","","","","html-keyboard-response","251","2.0.0","477920","pkexwy3ddh4","ono","calf","22","female","no","yes","2","1","null","<div style=""font-size:60px;"">+</div>","null","","","","","","",""
"","","","","","audio-keyboard-response","252","2.0.0","478521","pkexwy3ddh4","ono","calf","22","female","no","yes","2","1","null","stimuli/sounds/motor_sound_B.wav","null","","","","","","",""
"","","","","","html-keyboard-response","253","2.0.0","479527","pkexwy3ddh4","ono","calf","22","female","no","yes","2","1","null","","null","","","","","","",""
"","","","","","image-keyboard-response","254","2.0.0","480420","pkexwy3ddh4","ono","calf","22","female","no","yes","2","1","892","stimuli/pictures/motor_dirt_2.jpg","1","1","","true","no","sound","stimuli/sounds/motor_sound_B.wav",""
"","","","","","audio-keyboard-response","255","2.0.0","481434","pkexwy3ddh4","ono","calf","22","female","no","yes","2","1","null","stimuli/sounds/bleep.wav","null","","","","","","",""
"","","","","","html-keyboard-response","256","2.0.0","482459","pkexwy3ddh4","ono","calf","22","female","no","yes","2","1","915","<div style=""font-size:30px;"">Press space to start the trial</div>"," ","","","","","","",""
"","","","","","html-keyboard-response","257","2.0.0","482724","pkexwy3ddh4","ono","calf","22","female","no","yes","2","1","null","<div style=""font-size:60px;"">+</div>","null","","","","","","",""
"","","","","","audio-keyboard-response","258","2.0.0","483321","pkexwy3ddh4","ono","calf","22","female","no","yes","2","1","null","stimuli/sounds/dog_label_B.wav","null","","","","","","",""
"","","","","","html-keyboard-response","259","2.0.0","484330","pkexwy3ddh4","ono","calf","22","female","no","yes","2","1","null","","null","","","","","","",""
"","","","","","image-keyboard-response","260","2.0.0","486211","pkexwy3ddh4","ono","calf","22","female","no","yes","2","1","1880","stimuli/pictures/cough_man_2.jpg","0","0","","true","no","sound","stimuli/sounds/dog_label_B.wav",""
"","","","","","audio-keyboard-response","261","2.0.0","487218","pkexwy3ddh4","ono","calf","22","female","no","yes","2","1","null","stimuli/sounds/bleep.wav","null","","","","","","",""
"","","","","","html-keyboard-response","262","2.0.0","488709","pkexwy3ddh4","ono","calf","22","female","no","yes","2","1","1383","<div style=""font-size:30px;"">Press space to start the trial</div>"," ","","","","","","",""
"","","","","","html-keyboard-response","263","2.0.0","488970","pkexwy3ddh4","ono","calf","22","female","no","yes","2","1","null","<div style=""font-size:60px;"">+</div>","null","","","","","","",""
"","","","","","audio-keyboard-response","264","2.0.0","489551","pkexwy3ddh4","ono","calf","22","female","no","yes","2","1","null","stimuli/sounds/drop_sound_A.wav","null","","","","","","",""
"","","","","","html-keyboard-response","265","2.0.0","490560","pkexwy3ddh4","ono","calf","22","female","no","yes","2","1","null","","null","","","","","","",""
"","","","","","image-keyboard-response","266","2.0.0","492050","pkexwy3ddh4","ono","calf","22","female","no","yes","2","1","1489","stimuli/pictures/cough_wom_2.jpg","0","0","","true","no","sound","stimuli/sounds/drop_sound_A.wav",""
"","","","","","audio-keyboard-response","267","2.0.0","493053","pkexwy3ddh4","ono","calf","22","female","no","yes","2","1","null","stimuli/sounds/bleep.wav","null","","","","","","",""
"","","","","","html-keyboard-response","268","2.0.0","496476","pkexwy3ddh4","ono","calf","22","female","no","yes","2","1","3312","<p>You have completed a block. Press R when you are ready to continue</p>","r","","","","","","",""
"","","","","","html-keyboard-response","269","2.0.0","499557","pkexwy3ddh4","ono","calf","22","female","no","yes","2","1","3079","<div style=""font-size:30px;"">Press space to start the trial</div>"," ","","","","","","",""
"","","","","","html-keyboard-response","270","2.0.0","499818","pkexwy3ddh4","ono","calf","22","female","no","yes","2","1","null","<div style=""font-size:60px;"">+</div>","null","","","","","","",""
"","","","","","audio-keyboard-response","271","2.0.0","500490","pkexwy3ddh4","ono","calf","22","female","no","yes","2","1","null","stimuli/sounds/cough_sound_B.wav","null","","","","","","",""
"","","","","","html-keyboard-response","272","2.0.0","501504","pkexwy3ddh4","ono","calf","22","female","no","yes","2","1","null","","null","","","","","","",""
"","","","","","image-keyboard-response","273","2.0.0","505750","pkexwy3ddh4","ono","calf","22","female","no","yes","2","1","4245","stimuli/pictures/cough_man_1.jpg","1","1","","true","yes","sound","stimuli/sounds/cough_sound_B.wav",""
"","","","","","audio-keyboard-response","274","2.0.0","506755","pkexwy3ddh4","ono","calf","22","female","no","yes","2","1","null","stimuli/sounds/bleep.wav","null","","","","","","",""
"","","","","","html-keyboard-response","275","2.0.0","508199","pkexwy3ddh4","ono","calf","22","female","no","yes","2","1","1334","<div style=""font-size:30px;"">Press space to start the trial</div>"," ","","","","","","",""
"","","","","","html-keyboard-response","276","2.0.0","508463","pkexwy3ddh4","ono","calf","22","female","no","yes","2","1","null","<div style=""font-size:60px;"">+</div>","null","","","","","","",""
"","","","","","audio-keyboard-response","277","2.0.0","509071","pkexwy3ddh4","ono","calf","22","female","no","yes","2","1","null","stimuli/sounds/drop_sound_B.wav","null","","","","","","",""
"","","","","","html-keyboard-response","278","2.0.0","510077","pkexwy3ddh4","ono","calf","22","female","no","yes","2","1","null","","null","","","","","","",""
"","","","","","image-keyboard-response","279","2.0.0","511125","pkexwy3ddh4","ono","calf","22","female","no","yes","2","1","1047","stimuli/pictures/dog_rott_1.jpg","0","0","","true","no","sound","stimuli/sounds/drop_sound_B.wav",""
"","","","","","audio-keyboard-response","280","2.0.0","512130","pkexwy3ddh4","ono","calf","22","female","no","yes","2","1","null","stimuli/sounds/bleep.wav","null","","","","","","",""
"","","","","","html-keyboard-response","281","2.0.0","524008","pkexwy3ddh4","ono","calf","22","female","no","yes","2","1","11769","<div style=""font-size:30px;"">Press space to start the trial</div>"," ","","","","","","",""
"","","","","","html-keyboard-response","282","2.0.0","524272","pkexwy3ddh4","ono","calf","22","female","no","yes","2","1","null","<div style=""font-size:60px;"">+</div>","null","","","","","","",""
"","","","","","audio-keyboard-response","283","2.0.0","524871","pkexwy3ddh4","ono","calf","22","female","no","yes","2","1","null","stimuli/sounds/motor_sound_A.wav","null","","","","","","",""
"","","","","","html-keyboard-response","284","2.0.0","525883","pkexwy3ddh4","ono","calf","22","female","no","yes","2","1","null","","null","","","","","","",""
"","","","","","image-keyboard-response","285","2.0.0","527749","pkexwy3ddh4","ono","calf","22","female","no","yes","2","1","1864","stimuli/pictures/drop_single_1.jpg","0","0","","true","no","sound","stimuli/sounds/motor_sound_A.wav",""
"","","","","","audio-keyboard-response","286","2.0.0","528759","pkexwy3ddh4","ono","calf","22","female","no","yes","2","1","null","stimuli/sounds/bleep.wav","null","","","","","","",""
"","","","","","html-keyboard-response","287","2.0.0","575411","pkexwy3ddh4","ono","calf","22","female","no","yes","2","1","46543","<div style=""font-size:30px;"">Press space to start the trial</div>"," ","","","","","","",""
"","","","","","html-keyboard-response","288","2.0.0","575663","pkexwy3ddh4","ono","calf","22","female","no","yes","2","1","null","<div style=""font-size:60px;"">+</div>","null","","","","","","",""
"","","","","","audio-keyboard-response","289","2.0.0","576236","pkexwy3ddh4","ono","calf","22","female","no","yes","2","1","null","stimuli/sounds/drop_label_A.wav","null","","","","","","",""
"","","","","","html-keyboard-response","290","2.0.0","577250","pkexwy3ddh4","ono","calf","22","female","no","yes","2","1","null","","null","","","","","","",""
"","","","","","image-keyboard-response","291","2.0.0","578661","pkexwy3ddh4","ono","calf","22","female","no","yes","2","1","1410","stimuli/pictures/drop_multi_2.jpg","0","1","","false","yes","sound","stimuli/sounds/drop_label_A.wav",""
"","","","","","audio-keyboard-response","292","2.0.0","579667","pkexwy3ddh4","ono","calf","22","female","no","yes","2","1","null","stimuli/sounds/buzz.wav","null","","","","","","",""
"","","","","","html-keyboard-response","293","2.0.0","581563","pkexwy3ddh4","ono","calf","22","female","no","yes","2","1","1786","<div style=""font-size:30px;"">Press space to start the trial</div>"," ","","","","","","",""
"","","","","","html-keyboard-response","294","2.0.0","581826","pkexwy3ddh4","ono","calf","22","female","no","yes","2","1","null","<div style=""font-size:60px;"">+</div>","null","","","","","","",""
"","","","","","audio-keyboard-response","295","2.0.0","582436","pkexwy3ddh4","ono","calf","22","female","no","yes","2","1","null","stimuli/sounds/hiccup_label_B.wav","null","","","","","","",""
"","","","","","html-keyboard-response","296","2.0.0","583445","pkexwy3ddh4","ono","calf","22","female","no","yes","2","1","null","","null","","","","","","",""
"","","","","","image-keyboard-response","297","2.0.0","584662","pkexwy3ddh4","ono","calf","22","female","no","yes","2","1","1216","stimuli/pictures/hiccup_wom_1.jpg","1","1","","true","yes","sound","stimuli/sounds/hiccup_label_B.wav",""
"","","","","","audio-keyboard-response","298","2.0.0","585663","pkexwy3ddh4","ono","calf","22","female","no","yes","2","1","null","stimuli/sounds/bleep.wav","null","","","","","","",""
"","","","","","html-keyboard-response","299","2.0.0","586847","pkexwy3ddh4","ono","calf","22","female","no","yes","2","1","1075","<div style=""font-size:30px;"">Press space to start the trial</div>"," ","","","","","","",""
"","","","","","html-keyboard-response","300","2.0.0","587100","pkexwy3ddh4","ono","calf","22","female","no","yes","2","1","null","<div style=""font-size:60px;"">+</div>","null","","","","","","",""
"","","","","","audio-keyboard-response","301","2.0.0","587696","pkexwy3ddh4","ono","calf","22","female","no","yes","2","1","null","stimuli/sounds/dog_label_A.wav","null","","","","","","",""
"","","","","","html-keyboard-response","302","2.0.0","588704","pkexwy3ddh4","ono","calf","22","female","no","yes","2","1","null","","null","","","","","","",""
"","","","","","image-keyboard-response","303","2.0.0","590078","pkexwy3ddh4","ono","calf","22","female","no","yes","2","1","1372","stimuli/pictures/dog_rott_1.jpg","1","1","","true","yes","sound","stimuli/sounds/dog_label_A.wav",""
"","","","","","audio-keyboard-response","304","2.0.0","591091","pkexwy3ddh4","ono","calf","22","female","no","yes","2","1","null","stimuli/sounds/bleep.wav","null","","","","","","",""
"","","","","","html-keyboard-response","305","2.0.0","592280","pkexwy3ddh4","ono","calf","22","female","no","yes","2","1","1080","<div style=""font-size:30px;"">Press space to start the trial</div>"," ","","","","","","",""
"","","","","","html-keyboard-response","306","2.0.0","592537","pkexwy3ddh4","ono","calf","22","female","no","yes","2","1","null","<div style=""font-size:60px;"">+</div>","null","","","","","","",""
"","","","","","audio-keyboard-response","307","2.0.0","593136","pkexwy3ddh4","ono","calf","22","female","no","yes","2","1","null","stimuli/sounds/motor_label_B.wav","null","","","","","","",""
"","","","","","html-keyboard-response","308","2.0.0","594150","pkexwy3ddh4","ono","calf","22","female","no","yes","2","1","null","","null","","","","","","",""
"","","","","","image-keyboard-response","309","2.0.0","595382","pkexwy3ddh4","ono","calf","22","female","no","yes","2","1","1230","stimuli/pictures/hiccup_man_1.jpg","0","0","","true","no","sound","stimuli/sounds/motor_label_B.wav",""
"","","","","","audio-keyboard-response","310","2.0.0","596391","pkexwy3ddh4","ono","calf","22","female","no","yes","2","1","null","stimuli/sounds/bleep.wav","null","","","","","","",""
"","","","","","html-keyboard-response","311","2.0.0","599196","pkexwy3ddh4","ono","calf","22","female","no","yes","2","1","2695","<div style=""font-size:30px;"">Press space to start the trial</div>"," ","","","","","","",""
"","","","","","html-keyboard-response","312","2.0.0","599452","pkexwy3ddh4","ono","calf","22","female","no","yes","2","1","null","<div style=""font-size:60px;"">+</div>","null","","","","","","",""
"","","","","","audio-keyboard-response","313","2.0.0","600056","pkexwy3ddh4","ono","calf","22","female","no","yes","2","1","null","stimuli/sounds/hiccup_sound_A.wav","null","","","","","","",""
"","","","","","html-keyboard-response","314","2.0.0","601072","pkexwy3ddh4","ono","calf","22","female","no","yes","2","1","null","","null","","","","","","",""
"","","","","","image-keyboard-response","315","2.0.0","604333","pkexwy3ddh4","ono","calf","22","female","no","yes","2","1","3260","stimuli/pictures/hiccup_wom_2.jpg","1","1","","true","yes","sound","stimuli/sounds/hiccup_sound_A.wav",""
"","","","","","audio-keyboard-response","316","2.0.0","605336","pkexwy3ddh4","ono","calf","22","female","no","yes","2","1","null","stimuli/sounds/bleep.wav","null","","","","","","",""
"","","","","","html-keyboard-response","317","2.0.0","605879","pkexwy3ddh4","ono","calf","22","female","no","yes","2","1","434","<div style=""font-size:30px;"">Press space to start the trial</div>"," ","","","","","","",""
"","","","","","html-keyboard-response","318","2.0.0","606131","pkexwy3ddh4","ono","calf","22","female","no","yes","2","1","null","<div style=""font-size:60px;"">+</div>","null","","","","","","",""
"","","","","","audio-keyboard-response","319","2.0.0","606736","pkexwy3ddh4","ono","calf","22","female","no","yes","2","1","null","stimuli/sounds/dog_label_A.wav","null","","","","","","",""
"","","","","","html-keyboard-response","320","2.0.0","607741","pkexwy3ddh4","ono","calf","22","female","no","yes","2","1","null","","null","","","","","","",""
"","","","","","image-keyboard-response","321","2.0.0","608786","pkexwy3ddh4","ono","calf","22","female","no","yes","2","1","1044","stimuli/pictures/dog_york_1.jpg","1","1","","true","yes","sound","stimuli/sounds/dog_label_A.wav",""
"","","","","","audio-keyboard-response","322","2.0.0","609801","pkexwy3ddh4","ono","calf","22","female","no","yes","2","1","null","stimuli/sounds/bleep.wav","null","","","","","","",""
"","","","","","html-keyboard-response","323","2.0.0","610805","pkexwy3ddh4","ono","calf","22","female","no","yes","2","1","895","<div style=""font-size:30px;"">Press space to start the trial</div>"," ","","","","","","",""
"","","","","","html-keyboard-response","324","2.0.0","611066","pkexwy3ddh4","ono","calf","22","female","no","yes","2","1","null","<div style=""font-size:60px;"">+</div>","null","","","","","","",""
"","","","","","audio-keyboard-response","325","2.0.0","611676","pkexwy3ddh4","ono","calf","22","female","no","yes","2","1","null","stimuli/sounds/motor_label_B.wav","null","","","","","","",""
"","","","","","html-keyboard-response","326","2.0.0","612677","pkexwy3ddh4","ono","calf","22","female","no","yes","2","1","null","","null","","","","","","",""
"","","","","","image-keyboard-response","327","2.0.0","613472","pkexwy3ddh4","ono","calf","22","female","no","yes","2","1","795","stimuli/pictures/motor_dirt_1.jpg","1","1","","true","yes","sound","stimuli/sounds/motor_label_B.wav",""
"","","","","","audio-keyboard-response","328","2.0.0","614483","pkexwy3ddh4","ono","calf","22","female","no","yes","2","1","null","stimuli/sounds/bleep.wav","null","","","","","","",""
"","","","","","html-keyboard-response","329","2.0.0","614944","pkexwy3ddh4","ono","calf","22","female","no","yes","2","1","353","<div style=""font-size:30px;"">Press space to start the trial</div>"," ","","","","","","",""
"","","","","","html-keyboard-response","330","2.0.0","615208","pkexwy3ddh4","ono","calf","22","female","no","yes","2","1","null","<div style=""font-size:60px;"">+</div>","null","","","","","","",""
"","","","","","audio-keyboard-response","331","2.0.0","615876","pkexwy3ddh4","ono","calf","22","female","no","yes","2","1","null","stimuli/sounds/cough_sound_A.wav","null","","","","","","",""
"","","","","","html-keyboard-response","332","2.0.0","616880","pkexwy3ddh4","ono","calf","22","female","no","yes","2","1","null","","null","","","","","","",""
"","","","","","image-keyboard-response","333","2.0.0","617678","pkexwy3ddh4","ono","calf","22","female","no","yes","2","1","797","stimuli/pictures/cough_wom_1.jpg","1","1","","true","yes","sound","stimuli/sounds/cough_sound_A.wav",""
"","","","","","audio-keyboard-response","334","2.0.0","618687","pkexwy3ddh4","ono","calf","22","female","no","yes","2","1","null","stimuli/sounds/bleep.wav","null","","","","","","",""
"","","","","","html-keyboard-response","335","2.0.0","619065","pkexwy3ddh4","ono","calf","22","female","no","yes","2","1","268","<div style=""font-size:30px;"">Press space to start the trial</div>"," ","","","","","","",""
"","","","","","html-keyboard-response","336","2.0.0","619327","pkexwy3ddh4","ono","calf","22","female","no","yes","2","1","null","<div style=""font-size:60px;"">+</div>","null","","","","","","",""
"","","","","","audio-keyboard-response","337","2.0.0","619926","pkexwy3ddh4","ono","calf","22","female","no","yes","2","1","null","stimuli/sounds/motor_sound_B.wav","null","","","","","","",""
"","","","","","html-keyboard-response","338","2.0.0","620936","pkexwy3ddh4","ono","calf","22","female","no","yes","2","1","null","","null","","","","","","",""
"","","","","","image-keyboard-response","339","2.0.0","621349","pkexwy3ddh4","ono","calf","22","female","no","yes","2","1","411","stimuli/pictures/motor_harley_2.jpg","1","1","","true","yes","sound","stimuli/sounds/motor_sound_B.wav",""
"","","","","","audio-keyboard-response","340","2.0.0","622350","pkexwy3ddh4","ono","calf","22","female","no","yes","2","1","null","stimuli/sounds/bleep.wav","null","","","","","","",""
"","","","","","html-keyboard-response","341","2.0.0","623997","pkexwy3ddh4","ono","calf","22","female","no","yes","2","1","1546","<div style=""font-size:30px;"">Press space to start the trial</div>"," ","","","","","","",""
"","","","","","html-keyboard-response","342","2.0.0","624261","pkexwy3ddh4","ono","calf","22","female","no","yes","2","1","null","<div style=""font-size:60px;"">+</div>","null","","","","","","",""
"","","","","","audio-keyboard-response","343","2.0.0","624806","pkexwy3ddh4","ono","calf","22","female","no","yes","2","1","null","stimuli/sounds/drop_label_A.wav","null","","","","","","",""
"","","","","","html-keyboard-response","344","2.0.0","625809","pkexwy3ddh4","ono","calf","22","female","no","yes","2","1","null","","null","","","","","","",""
"","","","","","image-keyboard-response","345","2.0.0","626691","pkexwy3ddh4","ono","calf","22","female","no","yes","2","1","882","stimuli/pictures/drop_single_2.jpg","1","1","","true","yes","sound","stimuli/sounds/drop_label_A.wav",""
"","","","","","audio-keyboard-response","346","2.0.0","627699","pkexwy3ddh4","ono","calf","22","female","no","yes","2","1","null","stimuli/sounds/bleep.wav","null","","","","","","",""
"","","","","","html-keyboard-response","347","2.0.0","628965","pkexwy3ddh4","ono","calf","22","female","no","yes","2","1","1157","<div style=""font-size:30px;"">Press space to start the trial</div>"," ","","","","","","",""
"","","","","","html-keyboard-response","348","2.0.0","629227","pkexwy3ddh4","ono","calf","22","female","no","yes","2","1","null","<div style=""font-size:60px;"">+</div>","null","","","","","","",""
"","","","","","audio-keyboard-response","349","2.0.0","629827","pkexwy3ddh4","ono","calf","22","female","no","yes","2","1","null","stimuli/sounds/motor_label_A.wav","null","","","","","","",""
"","","","","","html-keyboard-response","350","2.0.0","630833","pkexwy3ddh4","ono","calf","22","female","no","yes","2","1","null","","null","","","","","","",""
"","","","","","image-keyboard-response","351","2.0.0","632697","pkexwy3ddh4","ono","calf","22","female","no","yes","2","1","1864","stimuli/pictures/dog_rott_1.jpg","0","0","","true","no","sound","stimuli/sounds/motor_label_A.wav",""
"","","","","","audio-keyboard-response","352","2.0.0","633714","pkexwy3ddh4","ono","calf","22","female","no","yes","2","1","null","stimuli/sounds/bleep.wav","null","","","","","","",""
"","","","","","html-keyboard-response","353","2.0.0","635257","pkexwy3ddh4","ono","calf","22","female","no","yes","2","1","1435","<div style=""font-size:30px;"">Press space to start the trial</div>"," ","","","","","","",""
"","","","","","html-keyboard-response","354","2.0.0","635509","pkexwy3ddh4","ono","calf","22","female","no","yes","2","1","null","<div style=""font-size:60px;"">+</div>","null","","","","","","",""
"","","","","","audio-keyboard-response","355","2.0.0","636106","pkexwy3ddh4","ono","calf","22","female","no","yes","2","1","null","stimuli/sounds/hiccup_sound_B.wav","null","","","","","","",""
"","","","","","html-keyboard-response","356","2.0.0","637117","pkexwy3ddh4","ono","calf","22","female","no","yes","2","1","null","","null","","","","","","",""
"","","","","","image-keyboard-response","357","2.0.0","639303","pkexwy3ddh4","ono","calf","22","female","no","yes","2","1","2184","stimuli/pictures/drop_multi_2.jpg","1","0","","false","no","sound","stimuli/sounds/hiccup_sound_B.wav",""
"","","","","","audio-keyboard-response","358","2.0.0","640317","pkexwy3ddh4","ono","calf","22","female","no","yes","2","1","null","stimuli/sounds/buzz.wav","null","","","","","","",""
"","","","","","html-keyboard-response","359","2.0.0","642254","pkexwy3ddh4","ono","calf","22","female","no","yes","2","1","1827","<div style=""font-size:30px;"">Press space to start the trial</div>"," ","","","","","","",""
"","","","","","html-keyboard-response","360","2.0.0","642519","pkexwy3ddh4","ono","calf","22","female","no","yes","2","1","null","<div style=""font-size:60px;"">+</div>","null","","","","","","",""
"","","","","","audio-keyboard-response","361","2.0.0","643115","pkexwy3ddh4","ono","calf","22","female","no","yes","2","1","null","stimuli/sounds/motor_label_A.wav","null","","","","","","",""
"","","","","","html-keyboard-response","362","2.0.0","644122","pkexwy3ddh4","ono","calf","22","female","no","yes","2","1","null","","null","","","","","","",""
"","","","","","image-keyboard-response","363","2.0.0","644738","pkexwy3ddh4","ono","calf","22","female","no","yes","2","1","614","stimuli/pictures/motor_dirt_2.jpg","1","1","","true","yes","sound","stimuli/sounds/motor_label_A.wav",""
"","","","","","audio-keyboard-response","364","2.0.0","645746","pkexwy3ddh4","ono","calf","22","female","no","yes","2","1","null","stimuli/sounds/bleep.wav","null","","","","","","",""
"","","","","","html-keyboard-response","365","2.0.0","647007","pkexwy3ddh4","ono","calf","22","female","no","yes","2","1","1151","<div style=""font-size:30px;"">Press space to start the trial</div>"," ","","","","","","",""
"","","","","","html-keyboard-response","366","2.0.0","647261","pkexwy3ddh4","ono","calf","22","female","no","yes","2","1","null","<div style=""font-size:60px;"">+</div>","null","","","","","","",""
"","","","","","audio-keyboard-response","367","2.0.0","647866","pkexwy3ddh4","ono","calf","22","female","no","yes","2","1","null","stimuli/sounds/drop_label_B.wav","null","","","","","","",""
"","","","","","html-keyboard-response","368","2.0.0","648868","pkexwy3ddh4","ono","calf","22","female","no","yes","2","1","null","","null","","","","","","",""
"","","","","","image-keyboard-response","369","2.0.0","649404","pkexwy3ddh4","ono","calf","22","female","no","yes","2","1","534","stimuli/pictures/motor_dirt_1.jpg","0","0","","true","no","sound","stimuli/sounds/drop_label_B.wav",""
"","","","","","audio-keyboard-response","370","2.0.0","650416","pkexwy3ddh4","ono","calf","22","female","no","yes","2","1","null","stimuli/sounds/bleep.wav","null","","","","","","",""
"","","","","","html-keyboard-response","371","2.0.0","651090","pkexwy3ddh4","ono","calf","22","female","no","yes","2","1","565","<div style=""font-size:30px;"">Press space to start the trial</div>"," ","","","","","","",""
"","","","","","html-keyboard-response","372","2.0.0","651349","pkexwy3ddh4","ono","calf","22","female","no","yes","2","1","null","<div style=""font-size:60px;"">+</div>","null","","","","","","",""
"","","","","","audio-keyboard-response","373","2.0.0","651956","pkexwy3ddh4","ono","calf","22","female","no","yes","2","1","null","stimuli/sounds/drop_sound_B.wav","null","","","","","","",""
"","","","","","html-keyboard-response","374","2.0.0","652959","pkexwy3ddh4","ono","calf","22","female","no","yes","2","1","null","","null","","","","","","",""
"","","","","","image-keyboard-response","375","2.0.0","654020","pkexwy3ddh4","ono","calf","22","female","no","yes","2","1","1059","stimuli/pictures/dog_rott_1.jpg","0","0","","true","no","sound","stimuli/sounds/drop_sound_B.wav",""
"","","","","","audio-keyboard-response","376","2.0.0","655023","pkexwy3ddh4","ono","calf","22","female","no","yes","2","1","null","stimuli/sounds/bleep.wav","null","","","","","","",""
"","","","","","html-keyboard-response","377","2.0.0","656445","pkexwy3ddh4","ono","calf","22","female","no","yes","2","1","1312","<div style=""font-size:30px;"">Press space to start the trial</div>"," ","","","","","","",""
"","","","","","html-keyboard-response","378","2.0.0","656696","pkexwy3ddh4","ono","calf","22","female","no","yes","2","1","null","<div style=""font-size:60px;"">+</div>","null","","","","","","",""
"","","","","","audio-keyboard-response","379","2.0.0","657296","pkexwy3ddh4","ono","calf","22","female","no","yes","2","1","null","stimuli/sounds/motor_sound_B.wav","null","","","","","","",""
"","","","","","html-keyboard-response","380","2.0.0","658303","pkexwy3ddh4","ono","calf","22","female","no","yes","2","1","null","","null","","","","","","",""
"","","","","","image-keyboard-response","381","2.0.0","659636","pkexwy3ddh4","ono","calf","22","female","no","yes","2","1","1333","stimuli/pictures/cough_man_1.jpg","0","0","","true","no","sound","stimuli/sounds/motor_sound_B.wav",""
"","","","","","audio-keyboard-response","382","2.0.0","660645","pkexwy3ddh4","ono","calf","22","female","no","yes","2","1","null","stimuli/sounds/bleep.wav","null","","","","","","",""
"","","","","","html-keyboard-response","383","2.0.0","662553","pkexwy3ddh4","ono","calf","22","female","no","yes","2","1","1796","<div style=""font-size:30px;"">Press space to start the trial</div>"," ","","","","","","",""
"","","","","","html-keyboard-response","384","2.0.0","662816","pkexwy3ddh4","ono","calf","22","female","no","yes","2","1","null","<div style=""font-size:60px;"">+</div>","null","","","","","","",""
"","","","","","audio-keyboard-response","385","2.0.0","663415","pkexwy3ddh4","ono","calf","22","female","no","yes","2","1","null","stimuli/sounds/motor_sound_B.wav","null","","","","","","",""
"","","","","","html-keyboard-response","386","2.0.0","664417","pkexwy3ddh4","ono","calf","22","female","no","yes","2","1","null","","null","","","","","","",""
"","","","","","image-keyboard-response","387","2.0.0","665315","pkexwy3ddh4","ono","calf","22","female","no","yes","2","1","897","stimuli/pictures/motor_dirt_1.jpg","1","1","","true","no","sound","stimuli/sounds/motor_sound_B.wav",""
"","","","","","audio-keyboard-response","388","2.0.0","666330","pkexwy3ddh4","ono","calf","22","female","no","yes","2","1","null","stimuli/sounds/bleep.wav","null","","","","","","",""
"","","","","","html-keyboard-response","389","2.0.0","668021","pkexwy3ddh4","ono","calf","22","female","no","yes","2","1","1582","<p>You have completed a block. Press R when you are ready to continue</p>","r","","","","","","",""
"","","","","","html-keyboard-response","390","2.0.0","669237","pkexwy3ddh4","ono","calf","22","female","no","yes","2","1","1216","<div style=""font-size:30px;"">Press space to start the trial</div>"," ","","","","","","",""
"","","","","","html-keyboard-response","391","2.0.0","669494","pkexwy3ddh4","ono","calf","22","female","no","yes","2","1","null","<div style=""font-size:60px;"">+</div>","null","","","","","","",""
"","","","","","audio-keyboard-response","392","2.0.0","670086","pkexwy3ddh4","ono","calf","22","female","no","yes","2","1","null","stimuli/sounds/dog_label_B.wav","null","","","","","","",""
"","","","","","html-keyboard-response","393","2.0.0","671100","pkexwy3ddh4","ono","calf","22","female","no","yes","2","1","null","","null","","","","","","",""
"","","","","","image-keyboard-response","394","2.0.0","672072","pkexwy3ddh4","ono","calf","22","female","no","yes","2","1","970","stimuli/pictures/cough_man_1.jpg","0","0","","true","no","sound","stimuli/sounds/dog_label_B.wav",""
"","","","","","audio-keyboard-response","395","2.0.0","673083","pkexwy3ddh4","ono","calf","22","female","no","yes","2","1","null","stimuli/sounds/bleep.wav","null","","","","","","",""
"","","","","","html-keyboard-response","396","2.0.0","674061","pkexwy3ddh4","ono","calf","22","female","no","yes","2","1","869","<div style=""font-size:30px;"">Press space to start the trial</div>"," ","","","","","","",""
"","","","","","html-keyboard-response","397","2.0.0","674318","pkexwy3ddh4","ono","calf","22","female","no","yes","2","1","null","<div style=""font-size:60px;"">+</div>","null","","","","","","",""
"","","","","","audio-keyboard-response","398","2.0.0","674916","pkexwy3ddh4","ono","calf","22","female","no","yes","2","1","null","stimuli/sounds/motor_sound_A.wav","null","","","","","","",""
"","","","","","html-keyboard-response","399","2.0.0","675923","pkexwy3ddh4","ono","calf","22","female","no","yes","2","1","null","","null","","","","","","",""
"","","","","","image-keyboard-response","400","2.0.0","677042","pkexwy3ddh4","ono","calf","22","female","no","yes","2","1","1117","stimuli/pictures/drop_multi_2.jpg","0","0","","true","no","sound","stimuli/sounds/motor_sound_A.wav",""
"","","","","","audio-keyboard-response","401","2.0.0","678045","pkexwy3ddh4","ono","calf","22","female","no","yes","2","1","null","stimuli/sounds/bleep.wav","null","","","","","","",""
"","","","","","html-keyboard-response","402","2.0.0","679078","pkexwy3ddh4","ono","calf","22","female","no","yes","2","1","925","<div style=""font-size:30px;"">Press space to start the trial</div>"," ","","","","","","",""
"","","","","","html-keyboard-response","403","2.0.0","679341","pkexwy3ddh4","ono","calf","22","female","no","yes","2","1","null","<div style=""font-size:60px;"">+</div>","null","","","","","","",""
"","","","","","audio-keyboard-response","404","2.0.0","679946","pkexwy3ddh4","ono","calf","22","female","no","yes","2","1","null","stimuli/sounds/dog_sound_B.wav","null","","","","","","",""
"","","","","","html-keyboard-response","405","2.0.0","680948","pkexwy3ddh4","ono","calf","22","female","no","yes","2","1","null","","null","","","","","","",""
"","","","","","image-keyboard-response","406","2.0.0","681913","pkexwy3ddh4","ono","calf","22","female","no","yes","2","1","963","stimuli/pictures/dog_york_1.jpg","1","1","","true","yes","sound","stimuli/sounds/dog_sound_B.wav",""
"","","","","","audio-keyboard-response","407","2.0.0","682930","pkexwy3ddh4","ono","calf","22","female","no","yes","2","1","null","stimuli/sounds/bleep.wav","null","","","","","","",""
"","","","","","html-keyboard-response","408","2.0.0","683933","pkexwy3ddh4","ono","calf","22","female","no","yes","2","1","895","<div style=""font-size:30px;"">Press space to start the trial</div>"," ","","","","","","",""
"","","","","","html-keyboard-response","409","2.0.0","684199","pkexwy3ddh4","ono","calf","22","female","no","yes","2","1","null","<div style=""font-size:60px;"">+</div>","null","","","","","","",""
"","","","","","audio-keyboard-response","410","2.0.0","684796","pkexwy3ddh4","ono","calf","22","female","no","yes","2","1","null","stimuli/sounds/dog_sound_B.wav","null","","","","","","",""
"","","","","","html-keyboard-response","411","2.0.0","685807","pkexwy3ddh4","ono","calf","22","female","no","yes","2","1","null","","null","","","","","","",""
"","","","","","image-keyboard-response","412","2.0.0","686208","pkexwy3ddh4","ono","calf","22","female","no","yes","2","1","400","stimuli/pictures/motor_dirt_1.jpg","0","0","","true","no","sound","stimuli/sounds/dog_sound_B.wav",""
"","","","","","audio-keyboard-response","413","2.0.0","687209","pkexwy3ddh4","ono","calf","22","female","no","yes","2","1","null","stimuli/sounds/bleep.wav","null","","","","","","",""
"","","","","","html-keyboard-response","414","2.0.0","688043","pkexwy3ddh4","ono","calf","22","female","no","yes","2","1","723","<div style=""font-size:30px;"">Press space to start the trial</div>"," ","","","","","","",""
"","","","","","html-keyboard-response","415","2.0.0","688301","pkexwy3ddh4","ono","calf","22","female","no","yes","2","1","null","<div style=""font-size:60px;"">+</div>","null","","","","","","",""
"","","","","","audio-keyboard-response","416","2.0.0","688836","pkexwy3ddh4","ono","calf","22","female","no","yes","2","1","null","stimuli/sounds/hiccup_label_A.wav","null","","","","","","",""
"","","","","","html-keyboard-response","417","2.0.0","689844","pkexwy3ddh4","ono","calf","22","female","no","yes","2","1","null","","null","","","","","","",""
"","","","","","image-keyboard-response","418","2.0.0","690818","pkexwy3ddh4","ono","calf","22","female","no","yes","2","1","973","stimuli/pictures/cough_wom_1.jpg","1","0","","false","no","sound","stimuli/sounds/hiccup_label_A.wav",""
"","","","","","audio-keyboard-response","419","2.0.0","691828","pkexwy3ddh4","ono","calf","22","female","no","yes","2","1","null","stimuli/sounds/buzz.wav","null","","","","","","",""
"","","","","","html-keyboard-response","420","2.0.0","692991","pkexwy3ddh4","ono","calf","22","female","no","yes","2","1","1054","<div style=""font-size:30px;"">Press space to start the trial</div>"," ","","","","","","",""
"","","","","","html-keyboard-response","421","2.0.0","693245","pkexwy3ddh4","ono","calf","22","female","no","yes","2","1","null","<div style=""font-size:60px;"">+</div>","null","","","","","","",""
"","","","","","audio-keyboard-response","422","2.0.0","693786","pkexwy3ddh4","ono","calf","22","female","no","yes","2","1","null","stimuli/sounds/hiccup_label_A.wav","null","","","","","","",""
"","","","","","html-keyboard-response","423","2.0.0","694789","pkexwy3ddh4","ono","calf","22","female","no","yes","2","1","null","","null","","","","","","",""
"","","","","","image-keyboard-response","424","2.0.0","695882","pkexwy3ddh4","ono","calf","22","female","no","yes","2","1","1092","stimuli/pictures/cough_wom_2.jpg","1","0","","false","no","sound","stimuli/sounds/hiccup_label_A.wav",""
"","","","","","audio-keyboard-response","425","2.0.0","696891","pkexwy3ddh4","ono","calf","22","female","no","yes","2","1","null","stimuli/sounds/buzz.wav","null","","","","","","",""
"","","","","","html-keyboard-response","426","2.0.0","698280","pkexwy3ddh4","ono","calf","22","female","no","yes","2","1","1278","<div style=""font-size:30px;"">Press space to start the trial</div>"," ","","","","","","",""
"","","","","","html-keyboard-response","427","2.0.0","698545","pkexwy3ddh4","ono","calf","22","female","no","yes","2","1","null","<div style=""font-size:60px;"">+</div>","null","","","","","","",""
"","","","","","audio-keyboard-response","428","2.0.0","699147","pkexwy3ddh4","ono","calf","22","female","no","yes","2","1","null","stimuli/sounds/dog_label_B.wav","null","","","","","","",""
"","","","","","html-keyboard-response","429","2.0.0","700152","pkexwy3ddh4","ono","calf","22","female","no","yes","2","1","null","","null","","","","","","",""
"","","","","","image-keyboard-response","430","2.0.0","700841","pkexwy3ddh4","ono","calf","22","female","no","yes","2","1","687","stimuli/pictures/dog_york_1.jpg","1","1","","true","yes","sound","stimuli/sounds/dog_label_B.wav",""
"","","","","","audio-keyboard-response","431","2.0.0","701851","pkexwy3ddh4","ono","calf","22","female","no","yes","2","1","null","stimuli/sounds/bleep.wav","null","","","","","","",""
"","","","","","html-keyboard-response","432","2.0.0","703850","pkexwy3ddh4","ono","calf","22","female","no","yes","2","1","1888","<div style=""font-size:30px;"">Press space to start the trial</div>"," ","","","","","","",""
"","","","","","html-keyboard-response","433","2.0.0","704111","pkexwy3ddh4","ono","calf","22","female","no","yes","2","1","null","<div style=""font-size:60px;"">+</div>","null","","","","","","",""
"","","","","","audio-keyboard-response","434","2.0.0","704716","pkexwy3ddh4","ono","calf","22","female","no","yes","2","1","null","stimuli/sounds/hiccup_sound_B.wav","null","","","","","","",""
"","","","","","html-keyboard-response","435","2.0.0","705729","pkexwy3ddh4","ono","calf","22","female","no","yes","2","1","null","","null","","","","","","",""
"","","","","","image-keyboard-response","436","2.0.0","706987","pkexwy3ddh4","ono","calf","22","female","no","yes","2","1","1257","stimuli/pictures/hiccup_wom_2.jpg","1","1","","true","no","sound","stimuli/sounds/hiccup_sound_B.wav",""
"","","","","","audio-keyboard-response","437","2.0.0","707995","pkexwy3ddh4","ono","calf","22","female","no","yes","2","1","null","stimuli/sounds/bleep.wav","null","","","","","","",""
"","","","","","html-keyboard-response","438","2.0.0","709897","pkexwy3ddh4","ono","calf","22","female","no","yes","2","1","1792","<div style=""font-size:30px;"">Press space to start the trial</div>"," ","","","","","","",""
"","","","","","html-keyboard-response","439","2.0.0","710162","pkexwy3ddh4","ono","calf","22","female","no","yes","2","1","null","<div style=""font-size:60px;"">+</div>","null","","","","","","",""
"","","","","","audio-keyboard-response","440","2.0.0","710766","pkexwy3ddh4","ono","calf","22","female","no","yes","2","1","null","stimuli/sounds/hiccup_sound_A.wav","null","","","","","","",""
"","","","","","html-keyboard-response","441","2.0.0","711767","pkexwy3ddh4","ono","calf","22","female","no","yes","2","1","null","","null","","","","","","",""
"","","","","","image-keyboard-response","442","2.0.0","712408","pkexwy3ddh4","ono","calf","22","female","no","yes","2","1","640","stimuli/pictures/motor_dirt_2.jpg","0","0","","true","no","sound","stimuli/sounds/hiccup_sound_A.wav",""
"","","","","","audio-keyboard-response","443","2.0.0","713424","pkexwy3ddh4","ono","calf","22","female","no","yes","2","1","null","stimuli/sounds/bleep.wav","null","","","","","","",""
"","","","","","html-keyboard-response","444","2.0.0","714448","pkexwy3ddh4","ono","calf","22","female","no","yes","2","1","913","<div style=""font-size:30px;"">Press space to start the trial</div>"," ","","","","","","",""
"","","","","","html-keyboard-response","445","2.0.0","714700","pkexwy3ddh4","ono","calf","22","female","no","yes","2","1","null","<div style=""font-size:60px;"">+</div>","null","","","","","","",""
"","","","","","audio-keyboard-response","446","2.0.0","715296","pkexwy3ddh4","ono","calf","22","female","no","yes","2","1","null","stimuli/sounds/motor_label_B.wav","null","","","","","","",""
"","","","","","html-keyboard-response","447","2.0.0","716309","pkexwy3ddh4","ono","calf","22","female","no","yes","2","1","null","","null","","","","","","",""
"","","","","","image-keyboard-response","448","2.0.0","717488","pkexwy3ddh4","ono","calf","22","female","no","yes","2","1","1178","stimuli/pictures/hiccup_wom_2.jpg","0","0","","true","no","sound","stimuli/sounds/motor_label_B.wav",""
"","","","","","audio-keyboard-response","449","2.0.0","718491","pkexwy3ddh4","ono","calf","22","female","no","yes","2","1","null","stimuli/sounds/bleep.wav","null","","","","","","",""
"","","","","","html-keyboard-response","450","2.0.0","719394","pkexwy3ddh4","ono","calf","22","female","no","yes","2","1","792","<div style=""font-size:30px;"">Press space to start the trial</div>"," ","","","","","","",""
"","","","","","html-keyboard-response","451","2.0.0","719660","pkexwy3ddh4","ono","calf","22","female","no","yes","2","1","null","<div style=""font-size:60px;"">+</div>","null","","","","","","",""
"","","","","","audio-keyboard-response","452","2.0.0","720256","pkexwy3ddh4","ono","calf","22","female","no","yes","2","1","null","stimuli/sounds/dog_label_B.wav","null","","","","","","",""
"","","","","","html-keyboard-response","453","2.0.0","721268","pkexwy3ddh4","ono","calf","22","female","no","yes","2","1","null","","null","","","","","","",""
"","","","","","image-keyboard-response","454","2.0.0","722017","pkexwy3ddh4","ono","calf","22","female","no","yes","2","1","748","stimuli/pictures/cough_wom_2.jpg","0","0","","true","no","sound","stimuli/sounds/dog_label_B.wav",""
"","","","","","audio-keyboard-response","455","2.0.0","723032","pkexwy3ddh4","ono","calf","22","female","no","yes","2","1","null","stimuli/sounds/bleep.wav","null","","","","","","",""
"","","","","","html-keyboard-response","456","2.0.0","723829","pkexwy3ddh4","ono","calf","22","female","no","yes","2","1","689","<div style=""font-size:30px;"">Press space to start the trial</div>"," ","","","","","","",""
"","","","","","html-keyboard-response","457","2.0.0","724093","pkexwy3ddh4","ono","calf","22","female","no","yes","2","1","null","<div style=""font-size:60px;"">+</div>","null","","","","","","",""
"","","","","","audio-keyboard-response","458","2.0.0","724686","pkexwy3ddh4","ono","calf","22","female","no","yes","2","1","null","stimuli/sounds/dog_label_B.wav","null","","","","","","",""
"","","","","","html-keyboard-response","459","2.0.0","725695","pkexwy3ddh4","ono","calf","22","female","no","yes","2","1","null","","null","","","","","","",""
"","","","","","image-keyboard-response","460","2.0.0","726512","pkexwy3ddh4","ono","calf","22","female","no","yes","2","1","817","stimuli/pictures/cough_wom_1.jpg","0","0","","true","no","sound","stimuli/sounds/dog_label_B.wav",""
"","","","","","audio-keyboard-response","461","2.0.0","727517","pkexwy3ddh4","ono","calf","22","female","no","yes","2","1","null","stimuli/sounds/bleep.wav","null","","","","","","",""
"","","","","","html-keyboard-response","462","2.0.0","729357","pkexwy3ddh4","ono","calf","22","female","no","yes","2","1","1730","<div style=""font-size:30px;"">Press space to start the trial</div>"," ","","","","","","",""
"","","","","","html-keyboard-response","463","2.0.0","729624","pkexwy3ddh4","ono","calf","22","female","no","yes","2","1","null","<div style=""font-size:60px;"">+</div>","null","","","","","","",""
"","","","","","audio-keyboard-response","464","2.0.0","730226","pkexwy3ddh4","ono","calf","22","female","no","yes","2","1","null","stimuli/sounds/dog_sound_A.wav","null","","","","","","",""
"","","","","","html-keyboard-response","465","2.0.0","731230","pkexwy3ddh4","ono","calf","22","female","no","yes","2","1","null","","null","","","","","","",""
"","","","","","image-keyboard-response","466","2.0.0","732130","pkexwy3ddh4","ono","calf","22","female","no","yes","2","1","898","stimuli/pictures/dog_york_2.jpg","0","1","","false","no","sound","stimuli/sounds/dog_sound_A.wav",""
"","","","","","audio-keyboard-response","467","2.0.0","733134","pkexwy3ddh4","ono","calf","22","female","no","yes","2","1","null","stimuli/sounds/buzz.wav","null","","","","","","",""
"","","","","","html-keyboard-response","468","2.0.0","734504","pkexwy3ddh4","ono","calf","22","female","no","yes","2","1","1260","<div style=""font-size:30px;"">Press space to start the trial</div>"," ","","","","","","",""
"","","","","","html-keyboard-response","469","2.0.0","734768","pkexwy3ddh4","ono","calf","22","female","no","yes","2","1","null","<div style=""font-size:60px;"">+</div>","null","","","","","","",""
"","","","","","audio-keyboard-response","470","2.0.0","735367","pkexwy3ddh4","ono","calf","22","female","no","yes","2","1","null","stimuli/sounds/motor_label_B.wav","null","","","","","","",""
"","","","","","html-keyboard-response","471","2.0.0","736371","pkexwy3ddh4","ono","calf","22","female","no","yes","2","1","null","","null","","","","","","",""
"","","","","","image-keyboard-response","472","2.0.0","736906","pkexwy3ddh4","ono","calf","22","female","no","yes","2","1","534","stimuli/pictures/motor_dirt_2.jpg","1","1","","true","yes","sound","stimuli/sounds/motor_label_B.wav",""
"","","","","","audio-keyboard-response","473","2.0.0","737908","pkexwy3ddh4","ono","calf","22","female","no","yes","2","1","null","stimuli/sounds/bleep.wav","null","","","","","","",""
"","","","","","html-keyboard-response","474","2.0.0","738881","pkexwy3ddh4","ono","calf","22","female","no","yes","2","1","870","<div style=""font-size:30px;"">Press space to start the trial</div>"," ","","","","","","",""
"","","","","","html-keyboard-response","475","2.0.0","739133","pkexwy3ddh4","ono","calf","22","female","no","yes","2","1","null","<div style=""font-size:60px;"">+</div>","null","","","","","","",""
"","","","","","audio-keyboard-response","476","2.0.0","739715","pkexwy3ddh4","ono","calf","22","female","no","yes","2","1","null","stimuli/sounds/drop_sound_A.wav","null","","","","","","",""
"","","","","","html-keyboard-response","477","2.0.0","740731","pkexwy3ddh4","ono","calf","22","female","no","yes","2","1","null","","null","","","","","","",""
"","","","","","image-keyboard-response","478","2.0.0","742657","pkexwy3ddh4","ono","calf","22","female","no","yes","2","1","1925","stimuli/pictures/drop_multi_1.jpg","1","1","","true","no","sound","stimuli/sounds/drop_sound_A.wav",""
"","","","","","audio-keyboard-response","479","2.0.0","743659","pkexwy3ddh4","ono","calf","22","female","no","yes","2","1","null","stimuli/sounds/bleep.wav","null","","","","","","",""
"","","","","","html-keyboard-response","480","2.0.0","744606","pkexwy3ddh4","ono","calf","22","female","no","yes","2","1","833","<div style=""font-size:30px;"">Press space to start the trial</div>"," ","","","","","","",""
"","","","","","html-keyboard-response","481","2.0.0","744870","pkexwy3ddh4","ono","calf","22","female","no","yes","2","1","null","<div style=""font-size:60px;"">+</div>","null","","","","","","",""
"","","","","","audio-keyboard-response","482","2.0.0","745465","pkexwy3ddh4","ono","calf","22","female","no","yes","2","1","null","stimuli/sounds/dog_sound_B.wav","null","","","","","","",""
"","","","","","html-keyboard-response","483","2.0.0","746478","pkexwy3ddh4","ono","calf","22","female","no","yes","2","1","null","","null","","","","","","",""
"","","","","","image-keyboard-response","484","2.0.0","747730","pkexwy3ddh4","ono","calf","22","female","no","yes","2","1","1250","stimuli/pictures/motor_harley_2.jpg","0","0","","true","no","sound","stimuli/sounds/dog_sound_B.wav",""
"","","","","","audio-keyboard-response","485","2.0.0","748746","pkexwy3ddh4","ono","calf","22","female","no","yes","2","1","null","stimuli/sounds/bleep.wav","null","","","","","","",""
"","","","","","html-keyboard-response","486","2.0.0","750237","pkexwy3ddh4","ono","calf","22","female","no","yes","2","1","1380","<div style=""font-size:30px;"">Press space to start the trial</div>"," ","","","","","","",""
"","","","","","html-keyboard-response","487","2.0.0","750499","pkexwy3ddh4","ono","calf","22","female","no","yes","2","1","null","<div style=""font-size:60px;"">+</div>","null","","","","","","",""
"","","","","","audio-keyboard-response","488","2.0.0","751166","pkexwy3ddh4","ono","calf","22","female","no","yes","2","1","null","stimuli/sounds/cough_sound_A.wav","null","","","","","","",""
"","","","","","html-keyboard-response","489","2.0.0","752170","pkexwy3ddh4","ono","calf","22","female","no","yes","2","1","null","","null","","","","","","",""
"","","","","","image-keyboard-response","490","2.0.0","752767","pkexwy3ddh4","ono","calf","22","female","no","yes","2","1","596","stimuli/pictures/dog_york_2.jpg","0","0","","true","no","sound","stimuli/sounds/cough_sound_A.wav",""
"","","","","","audio-keyboard-response","491","2.0.0","753781","pkexwy3ddh4","ono","calf","22","female","no","yes","2","1","null","stimuli/sounds/bleep.wav","null","","","","","","",""
"","","","","","html-keyboard-response","492","2.0.0","754671","pkexwy3ddh4","ono","calf","22","female","no","yes","2","1","781","<div style=""font-size:30px;"">Press space to start the trial</div>"," ","","","","","","",""
