"success","timeout","failed_images","failed_audio","failed_video","trial_type","trial_index","plugin_version","time_elapsed","random_id","condition","participant","age","gender_id","mus_exp","inst_exp","years_exp","mus_listening","rt","stimulus","response","correct_response","practice","correct","congruent","sound_type","audio","question_order"
"true","false","[]","[]","[]","preload","0","2.0.0","78","pl5vymtxjjl","mus","lemur","23","female","yes","yes","2","2","","","","","","","","","",""
"","","","","","html-keyboard-response","1","2.0.0","1041","pl5vymtxjjl","mus","lemur","23","female","yes","yes","2","2","963","Welcome to the experiment! Press any key to begin."," ","","","","","","",""
"true","","","","","fullscreen","2","null","2904","pl5vymtxjjl","mus","lemur","23","female","yes","yes","2","2","860","","","","","","","","",""
"","","","","","survey-text","3","2.0.0","9358","pl5vymtxjjl","mus","lemur","23","female","yes","yes","2","2","6453","","{""participant_id"":""lemur""}","","","","","","",""
"","","","","","html-keyboard-response","4","2.0.0","31473","pl5vymtxjjl","mus","lemur","23","female","yes","yes","2","2","22114","
    <p> Please use headphones for the duration of the study.</p>
    <p> Within each trial, you will hear a sound and then be presented with an image in the center of your screen.</p>
    <p>Press the <b>'1'</b> key if what you hear <u>matches</u> what you see.</p>
    <p>Press the <b>'0'</b> key if what you hear <u>does not match</u> what you see.</p>
    <p>Try to respond as quickly and accurately as you can.</p>
    <p> Press any key to begin.</p>
    "," ","","","","","","",""
"","","","","","html-keyboard-response","5","2.0.0","34490","pl5vymtxjjl","mus","lemur","23","female","yes","yes","2","2","3016","
    <div style=""font-size:28px;"">
      <p>You will now complete 4 short practice trials.</p>
      <p>This is just to help you get familiar with the task.</p>
      <p>Press any key to begin.</p>
    </div>
  "," ","","","","","","",""
"","","","","","html-keyboard-response","6","2.0.0","34991","pl5vymtxjjl","mus","lemur","23","female","yes","yes","2","2","null","<div style=""font-size:60px;"">+</div>","null","","","","","","",""
"","","","","","audio-keyboard-response","7","2.0.0","36160","pl5vymtxjjl","mus","lemur","23","female","yes","yes","2","2","null","stimuli/sounds/guitar_label_A.wav","null","","","","","","",""
"","","","","","image-keyboard-response","8","2.0.0","36635","pl5vymtxjjl","mus","lemur","23","female","yes","yes","2","2","470","stimuli/pictures/guitar_acoustic_1.jpg","1","1","true","true","","","",""
"","","","","","audio-keyboard-response","9","2.0.0","37438","pl5vymtxjjl","mus","lemur","23","female","yes","yes","2","2","null","stimuli/sounds/bleep.wav","null","","","","","","",""
"","","","","","html-keyboard-response","10","2.0.0","38141","pl5vymtxjjl","mus","lemur","23","female","yes","yes","2","2","null","<p style='color:green; font-size:30px;'>Correct!</p>","null","","","","","","",""
"","","","","","html-keyboard-response","11","2.0.0","38644","pl5vymtxjjl","mus","lemur","23","female","yes","yes","2","2","null","<div style=""font-size:60px;"">+</div>","null","","","","","","",""
"","","","","","audio-keyboard-response","12","2.0.0","39248","pl5vymtxjjl","mus","lemur","23","female","yes","yes","2","2","null","stimuli/sounds/guitar_sound_B.wav","null","","","","","","",""
"","","","","","image-keyboard-response","13","2.0.0","39692","pl5vymtxjjl","mus","lemur","23","female","yes","yes","2","2","442","stimuli/pictures/guitar_acoustic_2.jpg","1","1","true","true","","","",""
"","","","","","audio-keyboard-response","14","2.0.0","40494","pl5vymtxjjl","mus","lemur","23","female","yes","yes","2","2","null","stimuli/sounds/bleep.wav","null","","","","","","",""
"","","","","","html-keyboard-response","15","2.0.0","41197","pl5vymtxjjl","mus","lemur","23","female","yes","yes","2","2","null","<p style='color:green; font-size:30px;'>Correct!</p>","null","","","","","","",""
"","","","","","html-keyboard-response","16","2.0.0","41700","pl5vymtxjjl","mus","lemur","23","female","yes","yes","2","2","null","<div style=""font-size:60px;"">+</div>","null","","","","","","",""
"","","","","","audio-keyboard-response","17","2.0.0","42304","pl5vymtxjjl","mus","lemur","23","female","yes","yes","2","2","null","stimuli/sounds/flute_sound_A.wav","null","","","","","","",""
"","","","","","image-keyboard-response","18","2.0.0","42849","pl5vymtxjjl","mus","lemur","23","female","yes","yes","2","2","544","stimuli/pictures/guitar_electric_1.jpg","0","0","true","true","","","",""
"","","","","","audio-keyboard-response","19","2.0.0","43652","pl5vymtxjjl","mus","lemur","23","female","yes","yes","2","2","null","stimuli/sounds/bleep.wav","null","","","","","","",""
"","","","","","html-keyboard-response","20","2.0.0","44354","pl5vymtxjjl","mus","lemur","23","female","yes","yes","2","2","null","<p style='color:green; font-size:30px;'>Correct!</p>","null","","","","","","",""
"","","","","","html-keyboard-response","21","2.0.0","44857","pl5vymtxjjl","mus","lemur","23","female","yes","yes","2","2","null","<div style=""font-size:60px;"">+</div>","null","","","","","","",""
"","","","","","audio-keyboard-response","22","2.0.0","45461","pl5vymtxjjl","mus","lemur","23","female","yes","yes","2","2","null","stimuli/sounds/guitar_sound_A.wav","null","","","","","","",""
"","","","","","image-keyboard-response","23","2.0.0","46179","pl5vymtxjjl","mus","lemur","23","female","yes","yes","2","2","717","stimuli/pictures/guitar_acoustic_1.jpg","0","1","true","false","","","",""
"","","","","","audio-keyboard-response","24","2.0.0","46982","pl5vymtxjjl","mus","lemur","23","female","yes","yes","2","2","null","stimuli/sounds/buzz.wav","null","","","","","","",""
"","","","","","html-keyboard-response","25","2.0.0","47684","pl5vymtxjjl","mus","lemur","23","female","yes","yes","2","2","null","<p style='color:red; font-size:30px;'>Incorrect</p>","null","","","","","","",""
"","","","","","html-keyboard-response","26","2.0.0","54052","pl5vymtxjjl","mus","lemur","23","female","yes","yes","2","2","6367","<p>Practice complete. Press any key to begin the real experiment.</p>"," ","","","","","","",""
"","","","","","html-keyboard-response","27","2.0.0","58096","pl5vymtxjjl","mus","lemur","23","female","yes","yes","2","2","4044","<div style=""font-size:30px;"">Press space to start the trial</div>"," ","","","","","","",""
"","","","","","html-keyboard-response","28","2.0.0","58348","pl5vymtxjjl","mus","lemur","23","female","yes","yes","2","2","null","<div style=""font-size:60px;"">+</div>","null","","","","","","",""
"","","","","","audio-keyboard-response","29","2.0.0","58949","pl5vymtxjjl","mus","lemur","23","female","yes","yes","2","2","null","stimuli/sounds/bird_sound_B.wav","null","","","","","","",""
"","","","","","html-keyboard-response","30","2.0.0","59951","pl5vymtxjjl","mus","lemur","23","female","yes","yes","2","2","null","","null","","","","","","",""
"","","","","","image-keyboard-response","31","2.0.0","60472","pl5vymtxjjl","mus","lemur","23","female","yes","yes","2","2","519","stimuli/pictures/drum_bongo_2.jpg","0","0","","true","no","sound","stimuli/sounds/bird_sound_B.wav",""
"","","","","","audio-keyboard-response","32","2.0.0","61474","pl5vymtxjjl","mus","lemur","23","female","yes","yes","2","2","null","stimuli/sounds/bleep.wav","null","","","","","","",""
"","","","","","html-keyboard-response","33","2.0.0","62700","pl5vymtxjjl","mus","lemur","23","female","yes","yes","2","2","1123","<div style=""font-size:30px;"">Press space to start the trial</div>"," ","","","","","","",""
"","","","","","html-keyboard-response","34","2.0.0","62957","pl5vymtxjjl","mus","lemur","23","female","yes","yes","2","2","null","<div style=""font-size:60px;"">+</div>","null","","","","","","",""
"","","","","","audio-keyboard-response","35","2.0.0","63557","pl5vymtxjjl","mus","lemur","23","female","yes","yes","2","2","null","stimuli/sounds/piano_label_B.wav","null","","","","","","",""
"","","","","","html-keyboard-response","36","2.0.0","64560","pl5vymtxjjl","mus","lemur","23","female","yes","yes","2","2","null","","null","","","","","","",""
"","","","","","image-keyboard-response","37","2.0.0","65105","pl5vymtxjjl","mus","lemur","23","female","yes","yes","2","2","543","stimuli/pictures/bird_hawk_1.jpg","0","0","","true","no","sound","stimuli/sounds/piano_label_B.wav",""
"","","","","","audio-keyboard-response","38","2.0.0","66108","pl5vymtxjjl","mus","lemur","23","female","yes","yes","2","2","null","stimuli/sounds/bleep.wav","null","","","","","","",""
"","","","","","html-keyboard-response","39","2.0.0","68654","pl5vymtxjjl","mus","lemur","23","female","yes","yes","2","2","2443","<div style=""font-size:30px;"">Press space to start the trial</div>"," ","","","","","","",""
"","","","","","html-keyboard-response","40","2.0.0","68906","pl5vymtxjjl","mus","lemur","23","female","yes","yes","2","2","null","<div style=""font-size:60px;"">+</div>","null","","","","","","",""
"","","","","","audio-keyboard-response","41","2.0.0","69509","pl5vymtxjjl","mus","lemur","23","female","yes","yes","2","2","null","stimuli/sounds/bird_sound_A.wav","null","","","","","","",""
"","","","","","html-keyboard-response","42","2.0.0","70511","pl5vymtxjjl","mus","lemur","23","female","yes","yes","2","2","null","","null","","","","","","",""
"","","","","","image-keyboard-response","43","2.0.0","71002","pl5vymtxjjl","mus","lemur","23","female","yes","yes","2","2","489","stimuli/pictures/piano_grand_1.jpg","0","0","","true","no","sound","stimuli/sounds/bird_sound_A.wav",""
"","","","","","audio-keyboard-response","44","2.0.0","72005","pl5vymtxjjl","mus","lemur","23","female","yes","yes","2","2","null","stimuli/sounds/bleep.wav","null","","","","","","",""
"","","","","","html-keyboard-response","45","2.0.0","74086","pl5vymtxjjl","mus","lemur","23","female","yes","yes","2","2","1979","<div style=""font-size:30px;"">Press space to start the trial</div>"," ","","","","","","",""
"","","","","","html-keyboard-response","46","2.0.0","74337","pl5vymtxjjl","mus","lemur","23","female","yes","yes","2","2","null","<div style=""font-size:60px;"">+</div>","null","","","","","","",""
"","","","","","audio-keyboard-response","47","2.0.0","74944","pl5vymtxjjl","mus","lemur","23","female","yes","yes","2","2","null","stimuli/sounds/flute_sound_B.wav","null","","","","","","",""
"","","","","","html-keyboard-response","48","2.0.0","75946","pl5vymtxjjl","mus","lemur","23","female","yes","yes","2","2","null","","null","","","","","","",""
"","","","","","image-keyboard-response","49","2.0.0","76426","pl5vymtxjjl","mus","lemur","23","female","yes","yes","2","2","478","stimuli/pictures/bird_song_2.jpg","0","0","","true","no","sound","stimuli/sounds/flute_sound_B.wav",""
"","","","","","audio-keyboard-response","50","2.0.0","77429","pl5vymtxjjl","mus","lemur","23","female","yes","yes","2","2","null","stimuli/sounds/bleep.wav","null","","","","","","",""
"","","","","","html-keyboard-response","51","2.0.0","78995","pl5vymtxjjl","mus","lemur","23","female","yes","yes","2","2","1464","<div style=""font-size:30px;"">Press space to start the trial</div>"," ","","","","","","",""
"","","","","","html-keyboard-response","52","2.0.0","79247","pl5vymtxjjl","mus","lemur","23","female","yes","yes","2","2","null","<div style=""font-size:60px;"">+</div>","null","","","","","","",""
"","","","","","audio-keyboard-response","53","2.0.0","79850","pl5vymtxjjl","mus","lemur","23","female","yes","yes","2","2","null","stimuli/sounds/bird_label_B.wav","null","","","","","","",""
"","","","","","html-keyboard-response","54","2.0.0","80853","pl5vymtxjjl","mus","lemur","23","female","yes","yes","2","2","null","","null","","","","","","",""
"","","","","","image-keyboard-response","55","2.0.0","81254","pl5vymtxjjl","mus","lemur","23","female","yes","yes","2","2","400","stimuli/pictures/bird_hawk_1.jpg","1","1","","true","yes","sound","stimuli/sounds/bird_label_B.wav",""
"","","","","","audio-keyboard-response","56","2.0.0","82257","pl5vymtxjjl","mus","lemur","23","female","yes","yes","2","2","null","stimuli/sounds/bleep.wav","null","","","","","","",""
"","","","","","html-keyboard-response","57","2.0.0","85623","pl5vymtxjjl","mus","lemur","23","female","yes","yes","2","2","3265","<div style=""font-size:30px;"">Press space to start the trial</div>"," ","","","","","","",""
"","","","","","html-keyboard-response","58","2.0.0","85875","pl5vymtxjjl","mus","lemur","23","female","yes","yes","2","2","null","<div style=""font-size:60px;"">+</div>","null","","","","","","",""
"","","","","","audio-keyboard-response","59","2.0.0","86474","pl5vymtxjjl","mus","lemur","23","female","yes","yes","2","2","null","stimuli/sounds/bird_label_B.wav","null","","","","","","",""
"","","","","","html-keyboard-response","60","2.0.0","87477","pl5vymtxjjl","mus","lemur","23","female","yes","yes","2","2","null","","null","","","","","","",""
"","","","","","image-keyboard-response","61","2.0.0","87971","pl5vymtxjjl","mus","lemur","23","female","yes","yes","2","2","492","stimuli/pictures/phone_rotary_1.jpg","0","0","","true","no","sound","stimuli/sounds/bird_label_B.wav",""
"","","","","","audio-keyboard-response","62","2.0.0","88973","pl5vymtxjjl","mus","lemur","23","female","yes","yes","2","2","null","stimuli/sounds/bleep.wav","null","","","","","","",""
"","","","","","html-keyboard-response","63","2.0.0","89680","pl5vymtxjjl","mus","lemur","23","female","yes","yes","2","2","604","<div style=""font-size:30px;"">Press space to start the trial</div>"," ","","","","","","",""
"","","","","","html-keyboard-response","64","2.0.0","89932","pl5vymtxjjl","mus","lemur","23","female","yes","yes","2","2","null","<div style=""font-size:60px;"">+</div>","null","","","","","","",""
"","","","","","audio-keyboard-response","65","2.0.0","90539","pl5vymtxjjl","mus","lemur","23","female","yes","yes","2","2","null","stimuli/sounds/piano_sound_A.wav","null","","","","","","",""
"","","","","","html-keyboard-response","66","2.0.0","91540","pl5vymtxjjl","mus","lemur","23","female","yes","yes","2","2","null","","null","","","","","","",""
"","","","","","image-keyboard-response","67","2.0.0","92054","pl5vymtxjjl","mus","lemur","23","female","yes","yes","2","2","512","stimuli/pictures/drum_kit_2.jpg","0","0","","true","no","sound","stimuli/sounds/piano_sound_A.wav",""
"","","","","","audio-keyboard-response","68","2.0.0","93058","pl5vymtxjjl","mus","lemur","23","female","yes","yes","2","2","null","stimuli/sounds/bleep.wav","null","","","","","","",""
"","","","","","html-keyboard-response","69","2.0.0","93819","pl5vymtxjjl","mus","lemur","23","female","yes","yes","2","2","659","<div style=""font-size:30px;"">Press space to start the trial</div>"," ","","","","","","",""
"","","","","","html-keyboard-response","70","2.0.0","94071","pl5vymtxjjl","mus","lemur","23","female","yes","yes","2","2","null","<div style=""font-size:60px;"">+</div>","null","","","","","","",""
"","","","","","audio-keyboard-response","71","2.0.0","94671","pl5vymtxjjl","mus","lemur","23","female","yes","yes","2","2","null","stimuli/sounds/bird_label_B.wav","null","","","","","","",""
"","","","","","html-keyboard-response","72","2.0.0","95674","pl5vymtxjjl","mus","lemur","23","female","yes","yes","2","2","null","","null","","","","","","",""
"","","","","","image-keyboard-response","73","2.0.0","96144","pl5vymtxjjl","mus","lemur","23","female","yes","yes","2","2","468","stimuli/pictures/phone_cell_2.jpg","0","0","","true","no","sound","stimuli/sounds/bird_label_B.wav",""
"","","","","","audio-keyboard-response","74","2.0.0","97147","pl5vymtxjjl","mus","lemur","23","female","yes","yes","2","2","null","stimuli/sounds/bleep.wav","null","","","","","","",""
"","","","","","html-keyboard-response","75","2.0.0","98204","pl5vymtxjjl","mus","lemur","23","female","yes","yes","2","2","954","<div style=""font-size:30px;"">Press space to start the trial</div>"," ","","","","","","",""
"","","","","","html-keyboard-response","76","2.0.0","98456","pl5vymtxjjl","mus","lemur","23","female","yes","yes","2","2","null","<div style=""font-size:60px;"">+</div>","null","","","","","","",""
"","","","","","audio-keyboard-response","77","2.0.0","99055","pl5vymtxjjl","mus","lemur","23","female","yes","yes","2","2","null","stimuli/sounds/bird_label_B.wav","null","","","","","","",""
"","","","","","html-keyboard-response","78","2.0.0","100057","pl5vymtxjjl","mus","lemur","23","female","yes","yes","2","2","null","","null","","","","","","",""
"","","","","","image-keyboard-response","79","2.0.0","100542","pl5vymtxjjl","mus","lemur","23","female","yes","yes","2","2","483","stimuli/pictures/bird_song_1.jpg","1","1","","true","yes","sound","stimuli/sounds/bird_label_B.wav",""
"","","","","","audio-keyboard-response","80","2.0.0","101545","pl5vymtxjjl","mus","lemur","23","female","yes","yes","2","2","null","stimuli/sounds/bleep.wav","null","","","","","","",""
"","","","","","html-keyboard-response","81","2.0.0","103713","pl5vymtxjjl","mus","lemur","23","female","yes","yes","2","2","2067","<div style=""font-size:30px;"">Press space to start the trial</div>"," ","","","","","","",""
"","","","","","html-keyboard-response","82","2.0.0","103966","pl5vymtxjjl","mus","lemur","23","female","yes","yes","2","2","null","<div style=""font-size:60px;"">+</div>","null","","","","","","",""
"","","","","","audio-keyboard-response","83","2.0.0","104570","pl5vymtxjjl","mus","lemur","23","female","yes","yes","2","2","null","stimuli/sounds/flute_label_B.wav","null","","","","","","",""
"","","","","","html-keyboard-response","84","2.0.0","105572","pl5vymtxjjl","mus","lemur","23","female","yes","yes","2","2","null","","null","","","","","","",""
"","","","","","image-keyboard-response","85","2.0.0","105987","pl5vymtxjjl","mus","lemur","23","female","yes","yes","2","2","414","stimuli/pictures/drum_kit_2.jpg","0","0","","true","no","sound","stimuli/sounds/flute_label_B.wav",""
"","","","","","audio-keyboard-response","86","2.0.0","106990","pl5vymtxjjl","mus","lemur","23","female","yes","yes","2","2","null","stimuli/sounds/bleep.wav","null","","","","","","",""
"","","","","","html-keyboard-response","87","2.0.0","107805","pl5vymtxjjl","mus","lemur","23","female","yes","yes","2","2","713","<div style=""font-size:30px;"">Press space to start the trial</div>"," ","","","","","","",""
"","","","","","html-keyboard-response","88","2.0.0","108057","pl5vymtxjjl","mus","lemur","23","female","yes","yes","2","2","null","<div style=""font-size:60px;"">+</div>","null","","","","","","",""
"","","","","","audio-keyboard-response","89","2.0.0","108655","pl5vymtxjjl","mus","lemur","23","female","yes","yes","2","2","null","stimuli/sounds/bird_sound_B.wav","null","","","","","","",""
"","","","","","html-keyboard-response","90","2.0.0","109657","pl5vymtxjjl","mus","lemur","23","female","yes","yes","2","2","null","","null","","","","","","",""
"","","","","","image-keyboard-response","91","2.0.0","110098","pl5vymtxjjl","mus","lemur","23","female","yes","yes","2","2","439","stimuli/pictures/bird_hawk_1.jpg","1","1","","true","no","sound","stimuli/sounds/bird_sound_B.wav",""
"","","","","","audio-keyboard-response","92","2.0.0","111101","pl5vymtxjjl","mus","lemur","23","female","yes","yes","2","2","null","stimuli/sounds/bleep.wav","null","","","","","","",""
"","","","","","html-keyboard-response","93","2.0.0","111810","pl5vymtxjjl","mus","lemur","23","female","yes","yes","2","2","607","<div style=""font-size:30px;"">Press space to start the trial</div>"," ","","","","","","",""
"","","","","","html-keyboard-response","94","2.0.0","112062","pl5vymtxjjl","mus","lemur","23","female","yes","yes","2","2","null","<div style=""font-size:60px;"">+</div>","null","","","","","","",""
"","","","","","audio-keyboard-response","95","2.0.0","112661","pl5vymtxjjl","mus","lemur","23","female","yes","yes","2","2","null","stimuli/sounds/bird_label_A.wav","null","","","","","","",""
"","","","","","html-keyboard-response","96","2.0.0","113663","pl5vymtxjjl","mus","lemur","23","female","yes","yes","2","2","null","","null","","","","","","",""
"","","","","","image-keyboard-response","97","2.0.0","114045","pl5vymtxjjl","mus","lemur","23","female","yes","yes","2","2","379","stimuli/pictures/flute_metal_1.jpg","0","0","","true","no","sound","stimuli/sounds/bird_label_A.wav",""
"","","","","","audio-keyboard-response","98","2.0.0","115047","pl5vymtxjjl","mus","lemur","23","female","yes","yes","2","2","null","stimuli/sounds/bleep.wav","null","","","","","","",""
"","","","","","html-keyboard-response","99","2.0.0","115683","pl5vymtxjjl","mus","lemur","23","female","yes","yes","2","2","534","<div style=""font-size:30px;"">Press space to start the trial</div>"," ","","","","","","",""
"","","","","","html-keyboard-response","100","2.0.0","115934","pl5vymtxjjl","mus","lemur","23","female","yes","yes","2","2","null","<div style=""font-size:60px;"">+</div>","null","","","","","","",""
"","","","","","audio-keyboard-response","101","2.0.0","116533","pl5vymtxjjl","mus","lemur","23","female","yes","yes","2","2","null","stimuli/sounds/drum_sound_B.wav","null","","","","","","",""
"","","","","","html-keyboard-response","102","2.0.0","117535","pl5vymtxjjl","mus","lemur","23","female","yes","yes","2","2","null","","null","","","","","","",""
"","","","","","image-keyboard-response","103","2.0.0","118225","pl5vymtxjjl","mus","lemur","23","female","yes","yes","2","2","688","stimuli/pictures/phone_rotary_2.jpg","0","0","","true","no","sound","stimuli/sounds/drum_sound_B.wav",""
"","","","","","audio-keyboard-response","104","2.0.0","119228","pl5vymtxjjl","mus","lemur","23","female","yes","yes","2","2","null","stimuli/sounds/bleep.wav","null","","","","","","",""
"","","","","","html-keyboard-response","105","2.0.0","119938","pl5vymtxjjl","mus","lemur","23","female","yes","yes","2","2","608","<div style=""font-size:30px;"">Press space to start the trial</div>"," ","","","","","","",""
"","","","","","html-keyboard-response","106","2.0.0","120189","pl5vymtxjjl","mus","lemur","23","female","yes","yes","2","2","null","<div style=""font-size:60px;"">+</div>","null","","","","","","",""
"","","","","","audio-keyboard-response","107","2.0.0","120789","pl5vymtxjjl","mus","lemur","23","female","yes","yes","2","2","null","stimuli/sounds/phone_sound_A.wav","null","","","","","","",""
"","","","","","html-keyboard-response","108","2.0.0","121791","pl5vymtxjjl","mus","lemur","23","female","yes","yes","2","2","null","","null","","","","","","",""
"","","","","","image-keyboard-response","109","2.0.0","122594","pl5vymtxjjl","mus","lemur","23","female","yes","yes","2","2","801","stimuli/pictures/phone_cell_1.jpg","1","1","","true","yes","sound","stimuli/sounds/phone_sound_A.wav",""
"","","","","","audio-keyboard-response","110","2.0.0","123597","pl5vymtxjjl","mus","lemur","23","female","yes","yes","2","2","null","stimuli/sounds/bleep.wav","null","","","","","","",""
"","","","","","html-keyboard-response","111","2.0.0","124225","pl5vymtxjjl","mus","lemur","23","female","yes","yes","2","2","527","<div style=""font-size:30px;"">Press space to start the trial</div>"," ","","","","","","",""
"","","","","","html-keyboard-response","112","2.0.0","124477","pl5vymtxjjl","mus","lemur","23","female","yes","yes","2","2","null","<div style=""font-size:60px;"">+</div>","null","","","","","","",""
"","","","","","audio-keyboard-response","113","2.0.0","125082","pl5vymtxjjl","mus","lemur","23","female","yes","yes","2","2","null","stimuli/sounds/piano_sound_B.wav","null","","","","","","",""
"","","","","","html-keyboard-response","114","2.0.0","126084","pl5vymtxjjl","mus","lemur","23","female","yes","yes","2","2","null","","null","","","","","","",""
"","","","","","image-keyboard-response","115","2.0.0","127061","pl5vymtxjjl","mus","lemur","23","female","yes","yes","2","2","975","stimuli/pictures/flute_wooden_2.jpg","0","0","","true","no","sound","stimuli/sounds/piano_sound_B.wav",""
"","","","","","audio-keyboard-response","116","2.0.0","128064","pl5vymtxjjl","mus","lemur","23","female","yes","yes","2","2","null","stimuli/sounds/bleep.wav","null","","","","","","",""
"","","","","","html-keyboard-response","117","2.0.0","128965","pl5vymtxjjl","mus","lemur","23","female","yes","yes","2","2","800","<div style=""font-size:30px;"">Press space to start the trial</div>"," ","","","","","","",""
"","","","","","html-keyboard-response","118","2.0.0","129217","pl5vymtxjjl","mus","lemur","23","female","yes","yes","2","2","null","<div style=""font-size:60px;"">+</div>","null","","","","","","",""
"","","","","","audio-keyboard-response","119","2.0.0","129818","pl5vymtxjjl","mus","lemur","23","female","yes","yes","2","2","null","stimuli/sounds/drum_label_A.wav","null","","","","","","",""
"","","","","","html-keyboard-response","120","2.0.0","130821","pl5vymtxjjl","mus","lemur","23","female","yes","yes","2","2","null","","null","","","","","","",""
"","","","","","image-keyboard-response","121","2.0.0","131240","pl5vymtxjjl","mus","lemur","23","female","yes","yes","2","2","417","stimuli/pictures/bird_hawk_1.jpg","0","0","","true","no","sound","stimuli/sounds/drum_label_A.wav",""
"","","","","","audio-keyboard-response","122","2.0.0","132242","pl5vymtxjjl","mus","lemur","23","female","yes","yes","2","2","null","stimuli/sounds/bleep.wav","null","","","","","","",""
"","","","","","html-keyboard-response","123","2.0.0","132788","pl5vymtxjjl","mus","lemur","23","female","yes","yes","2","2","444","<div style=""font-size:30px;"">Press space to start the trial</div>"," ","","","","","","",""
"","","","","","html-keyboard-response","124","2.0.0","133039","pl5vymtxjjl","mus","lemur","23","female","yes","yes","2","2","null","<div style=""font-size:60px;"">+</div>","null","","","","","","",""
"","","","","","audio-keyboard-response","125","2.0.0","133642","pl5vymtxjjl","mus","lemur","23","female","yes","yes","2","2","null","stimuli/sounds/bird_sound_B.wav","null","","","","","","",""
"","","","","","html-keyboard-response","126","2.0.0","134645","pl5vymtxjjl","mus","lemur","23","female","yes","yes","2","2","null","","null","","","","","","",""
"","","","","","image-keyboard-response","127","2.0.0","135215","pl5vymtxjjl","mus","lemur","23","female","yes","yes","2","2","568","stimuli/pictures/drum_bongo_1.jpg","0","0","","true","no","sound","stimuli/sounds/bird_sound_B.wav",""
"","","","","","audio-keyboard-response","128","2.0.0","136217","pl5vymtxjjl","mus","lemur","23","female","yes","yes","2","2","null","stimuli/sounds/bleep.wav","null","","","","","","",""
"","","","","","html-keyboard-response","129","2.0.0","137190","pl5vymtxjjl","mus","lemur","23","female","yes","yes","2","2","870","<div style=""font-size:30px;"">Press space to start the trial</div>"," ","","","","","","",""
"","","","","","html-keyboard-response","130","2.0.0","137441","pl5vymtxjjl","mus","lemur","23","female","yes","yes","2","2","null","<div style=""font-size:60px;"">+</div>","null","","","","","","",""
"","","","","","audio-keyboard-response","131","2.0.0","138042","pl5vymtxjjl","mus","lemur","23","female","yes","yes","2","2","null","stimuli/sounds/drum_label_A.wav","null","","","","","","",""
"","","","","","html-keyboard-response","132","2.0.0","139044","pl5vymtxjjl","mus","lemur","23","female","yes","yes","2","2","null","","null","","","","","","",""
"","","","","","image-keyboard-response","133","2.0.0","139473","pl5vymtxjjl","mus","lemur","23","female","yes","yes","2","2","427","stimuli/pictures/bird_hawk_1.jpg","0","0","","true","no","sound","stimuli/sounds/drum_label_A.wav",""
"","","","","","audio-keyboard-response","134","2.0.0","140475","pl5vymtxjjl","mus","lemur","23","female","yes","yes","2","2","null","stimuli/sounds/bleep.wav","null","","","","","","",""
"","","","","","html-keyboard-response","135","2.0.0","141204","pl5vymtxjjl","mus","lemur","23","female","yes","yes","2","2","626","<div style=""font-size:30px;"">Press space to start the trial</div>"," ","","","","","","",""
"","","","","","html-keyboard-response","136","2.0.0","141455","pl5vymtxjjl","mus","lemur","23","female","yes","yes","2","2","null","<div style=""font-size:60px;"">+</div>","null","","","","","","",""
"","","","","","audio-keyboard-response","137","2.0.0","142058","pl5vymtxjjl","mus","lemur","23","female","yes","yes","2","2","null","stimuli/sounds/phone_label_A.wav","null","","","","","","",""
"","","","","","html-keyboard-response","138","2.0.0","143061","pl5vymtxjjl","mus","lemur","23","female","yes","yes","2","2","null","","null","","","","","","",""
"","","","","","image-keyboard-response","139","2.0.0","143535","pl5vymtxjjl","mus","lemur","23","female","yes","yes","2","2","472","stimuli/pictures/drum_bongo_2.jpg","0","0","","true","no","sound","stimuli/sounds/phone_label_A.wav",""
"","","","","","audio-keyboard-response","140","2.0.0","144537","pl5vymtxjjl","mus","lemur","23","female","yes","yes","2","2","null","stimuli/sounds/bleep.wav","null","","","","","","",""
"","","","","","html-keyboard-response","141","2.0.0","145194","pl5vymtxjjl","mus","lemur","23","female","yes","yes","2","2","555","<div style=""font-size:30px;"">Press space to start the trial</div>"," ","","","","","","",""
"","","","","","html-keyboard-response","142","2.0.0","145446","pl5vymtxjjl","mus","lemur","23","female","yes","yes","2","2","null","<div style=""font-size:60px;"">+</div>","null","","","","","","",""
"","","","","","audio-keyboard-response","143","2.0.0","146047","pl5vymtxjjl","mus","lemur","23","female","yes","yes","2","2","null","stimuli/sounds/phone_label_A.wav","null","","","","","","",""
"","","","","","html-keyboard-response","144","2.0.0","147050","pl5vymtxjjl","mus","lemur","23","female","yes","yes","2","2","null","","null","","","","","","",""
"","","","","","image-keyboard-response","145","2.0.0","147639","pl5vymtxjjl","mus","lemur","23","female","yes","yes","2","2","587","stimuli/pictures/drum_kit_1.jpg","0","0","","true","no","sound","stimuli/sounds/phone_label_A.wav",""
"","","","","","audio-keyboard-response","146","2.0.0","148641","pl5vymtxjjl","mus","lemur","23","female","yes","yes","2","2","null","stimuli/sounds/bleep.wav","null","","","","","","",""
"","","","","","html-keyboard-response","147","2.0.0","151593","pl5vymtxjjl","mus","lemur","23","female","yes","yes","2","2","2851","<p>You have completed a block. Press R when you are ready to continue</p>","r","","","","","","",""
"","","","","","html-keyboard-response","148","2.0.0","153917","pl5vymtxjjl","mus","lemur","23","female","yes","yes","2","2","2323","<div style=""font-size:30px;"">Press space to start the trial</div>"," ","","","","","","",""
"","","","","","html-keyboard-response","149","2.0.0","154169","pl5vymtxjjl","mus","lemur","23","female","yes","yes","2","2","null","<div style=""font-size:60px;"">+</div>","null","","","","","","",""
"","","","","","audio-keyboard-response","150","2.0.0","154778","pl5vymtxjjl","mus","lemur","23","female","yes","yes","2","2","null","stimuli/sounds/phone_label_B.wav","null","","","","","","",""
"","","","","","html-keyboard-response","151","2.0.0","155781","pl5vymtxjjl","mus","lemur","23","female","yes","yes","2","2","null","","null","","","","","","",""
"","","","","","image-keyboard-response","152","2.0.0","156323","pl5vymtxjjl","mus","lemur","23","female","yes","yes","2","2","540","stimuli/pictures/flute_wooden_1.jpg","0","0","","true","no","sound","stimuli/sounds/phone_label_B.wav",""
"","","","","","audio-keyboard-response","153","2.0.0","157326","pl5vymtxjjl","mus","lemur","23","female","yes","yes","2","2","null","stimuli/sounds/bleep.wav","null","","","","","","",""
"","","","","","html-keyboard-response","154","2.0.0","158904","pl5vymtxjjl","mus","lemur","23","female","yes","yes","2","2","1476","<div style=""font-size:30px;"">Press space to start the trial</div>"," ","","","","","","",""
"","","","","","html-keyboard-response","155","2.0.0","159156","pl5vymtxjjl","mus","lemur","23","female","yes","yes","2","2","null","<div style=""font-size:60px;"">+</div>","null","","","","","","",""
"","","","","","audio-keyboard-response","156","2.0.0","159760","pl5vymtxjjl","mus","lemur","23","female","yes","yes","2","2","null","stimuli/sounds/flute_sound_A.wav","null","","","","","","",""
"","","","","","html-keyboard-response","157","2.0.0","160762","pl5vymtxjjl","mus","lemur","23","female","yes","yes","2","2","null","","null","","","","","","",""
"","","","","","image-keyboard-response","158","2.0.0","161288","pl5vymtxjjl","mus","lemur","23","female","yes","yes","2","2","524","stimuli/pictures/phone_cell_2.jpg","0","0","","true","no","sound","stimuli/sounds/flute_sound_A.wav",""
"","","","","","audio-keyboard-response","159","2.0.0","162291","pl5vymtxjjl","mus","lemur","23","female","yes","yes","2","2","null","stimuli/sounds/bleep.wav","null","","","","","","",""
"","","","","","html-keyboard-response","160","2.0.0","163016","pl5vymtxjjl","mus","lemur","23","female","yes","yes","2","2","623","<div style=""font-size:30px;"">Press space to start the trial</div>"," ","","","","","","",""
"","","","","","html-keyboard-response","161","2.0.0","163268","pl5vymtxjjl","mus","lemur","23","female","yes","yes","2","2","null","<div style=""font-size:60px;"">+</div>","null","","","","","","",""
"","","","","","audio-keyboard-response","162","2.0.0","163871","pl5vymtxjjl","mus","lemur","23","female","yes","yes","2","2","null","stimuli/sounds/bird_label_B.wav","null","","","","","","",""
"","","","","","html-keyboard-response","163","2.0.0","164873","pl5vymtxjjl","mus","lemur","23","female","yes","yes","2","2","null","","null","","","","","","",""
"","","","","","image-keyboard-response","164","2.0.0","165224","pl5vymtxjjl","mus","lemur","23","female","yes","yes","2","2","350","stimuli/pictures/bird_hawk_1.jpg","1","1","","true","yes","sound","stimuli/sounds/bird_label_B.wav",""
"","","","","","audio-keyboard-response","165","2.0.0","166227","pl5vymtxjjl","mus","lemur","23","female","yes","yes","2","2","null","stimuli/sounds/bleep.wav","null","","","","","","",""
"","","","","","html-keyboard-response","166","2.0.0","167125","pl5vymtxjjl","mus","lemur","23","female","yes","yes","2","2","796","<div style=""font-size:30px;"">Press space to start the trial</div>"," ","","","","","","",""
"","","","","","html-keyboard-response","167","2.0.0","167377","pl5vymtxjjl","mus","lemur","23","female","yes","yes","2","2","null","<div style=""font-size:60px;"">+</div>","null","","","","","","",""
"","","","","","audio-keyboard-response","168","2.0.0","167978","pl5vymtxjjl","mus","lemur","23","female","yes","yes","2","2","null","stimuli/sounds/drum_label_B.wav","null","","","","","","",""
"","","","","","html-keyboard-response","169","2.0.0","168981","pl5vymtxjjl","mus","lemur","23","female","yes","yes","2","2","null","","null","","","","","","",""
"","","","","","image-keyboard-response","170","2.0.0","169448","pl5vymtxjjl","mus","lemur","23","female","yes","yes","2","2","465","stimuli/pictures/drum_kit_1.jpg","1","1","","true","yes","sound","stimuli/sounds/drum_label_B.wav",""
"","","","","","audio-keyboard-response","171","2.0.0","170450","pl5vymtxjjl","mus","lemur","23","female","yes","yes","2","2","null","stimuli/sounds/bleep.wav","null","","","","","","",""
"","","","","","html-keyboard-response","172","2.0.0","171948","pl5vymtxjjl","mus","lemur","23","female","yes","yes","2","2","1395","<div style=""font-size:30px;"">Press space to start the trial</div>"," ","","","","","","",""
"","","","","","html-keyboard-response","173","2.0.0","172199","pl5vymtxjjl","mus","lemur","23","female","yes","yes","2","2","null","<div style=""font-size:60px;"">+</div>","null","","","","","","",""
"","","","","","audio-keyboard-response","174","2.0.0","172799","pl5vymtxjjl","mus","lemur","23","female","yes","yes","2","2","null","stimuli/sounds/drum_sound_A.wav","null","","","","","","",""
"","","","","","html-keyboard-response","175","2.0.0","173802","pl5vymtxjjl","mus","lemur","23","female","yes","yes","2","2","null","","null","","","","","","",""
"","","","","","image-keyboard-response","176","2.0.0","174512","pl5vymtxjjl","mus","lemur","23","female","yes","yes","2","2","709","stimuli/pictures/drum_bongo_2.jpg","0","1","","false","no","sound","stimuli/sounds/drum_sound_A.wav",""
"","","","","","audio-keyboard-response","177","2.0.0","175514","pl5vymtxjjl","mus","lemur","23","female","yes","yes","2","2","null","stimuli/sounds/buzz.wav","null","","","","","","",""
"","","","","","html-keyboard-response","178","2.0.0","177537","pl5vymtxjjl","mus","lemur","23","female","yes","yes","2","2","1920","<div style=""font-size:30px;"">Press space to start the trial</div>"," ","","","","","","",""
"","","","","","html-keyboard-response","179","2.0.0","177789","pl5vymtxjjl","mus","lemur","23","female","yes","yes","2","2","null","<div style=""font-size:60px;"">+</div>","null","","","","","","",""
"","","","","","audio-keyboard-response","180","2.0.0","178389","pl5vymtxjjl","mus","lemur","23","female","yes","yes","2","2","null","stimuli/sounds/flute_label_A.wav","null","","","","","","",""
"","","","","","html-keyboard-response","181","2.0.0","179391","pl5vymtxjjl","mus","lemur","23","female","yes","yes","2","2","null","","null","","","","","","",""
"","","","","","image-keyboard-response","182","2.0.0","179830","pl5vymtxjjl","mus","lemur","23","female","yes","yes","2","2","437","stimuli/pictures/flute_metal_2.jpg","1","1","","true","yes","sound","stimuli/sounds/flute_label_A.wav",""
"","","","","","audio-keyboard-response","183","2.0.0","180833","pl5vymtxjjl","mus","lemur","23","female","yes","yes","2","2","null","stimuli/sounds/bleep.wav","null","","","","","","",""
"","","","","","html-keyboard-response","184","2.0.0","181641","pl5vymtxjjl","mus","lemur","23","female","yes","yes","2","2","706","<div style=""font-size:30px;"">Press space to start the trial</div>"," ","","","","","","",""
"","","","","","html-keyboard-response","185","2.0.0","181892","pl5vymtxjjl","mus","lemur","23","female","yes","yes","2","2","null","<div style=""font-size:60px;"">+</div>","null","","","","","","",""
"","","","","","audio-keyboard-response","186","2.0.0","182501","pl5vymtxjjl","mus","lemur","23","female","yes","yes","2","2","null","stimuli/sounds/flute_label_B.wav","null","","","","","","",""
"","","","","","html-keyboard-response","187","2.0.0","183503","pl5vymtxjjl","mus","lemur","23","female","yes","yes","2","2","null","","null","","","","","","",""
"","","","","","image-keyboard-response","188","2.0.0","183862","pl5vymtxjjl","mus","lemur","23","female","yes","yes","2","2","357","stimuli/pictures/drum_bongo_1.jpg","0","0","","true","no","sound","stimuli/sounds/flute_label_B.wav",""
"","","","","","audio-keyboard-response","189","2.0.0","184864","pl5vymtxjjl","mus","lemur","23","female","yes","yes","2","2","null","stimuli/sounds/bleep.wav","null","","","","","","",""
"","","","","","html-keyboard-response","190","2.0.0","185902","pl5vymtxjjl","mus","lemur","23","female","yes","yes","2","2","936","<div style=""font-size:30px;"">Press space to start the trial</div>"," ","","","","","","",""
"","","","","","html-keyboard-response","191","2.0.0","186154","pl5vymtxjjl","mus","lemur","23","female","yes","yes","2","2","null","<div style=""font-size:60px;"">+</div>","null","","","","","","",""
"","","","","","audio-keyboard-response","192","2.0.0","186756","pl5vymtxjjl","mus","lemur","23","female","yes","yes","2","2","null","stimuli/sounds/flute_sound_A.wav","null","","","","","","",""
"","","","","","html-keyboard-response","193","2.0.0","187758","pl5vymtxjjl","mus","lemur","23","female","yes","yes","2","2","null","","null","","","","","","",""
"","","","","","image-keyboard-response","194","2.0.0","188686","pl5vymtxjjl","mus","lemur","23","female","yes","yes","2","2","926","stimuli/pictures/flute_wooden_1.jpg","1","1","","true","no","sound","stimuli/sounds/flute_sound_A.wav",""
"","","","","","audio-keyboard-response","195","2.0.0","189688","pl5vymtxjjl","mus","lemur","23","female","yes","yes","2","2","null","stimuli/sounds/bleep.wav","null","","","","","","",""
"","","","","","html-keyboard-response","196","2.0.0","190441","pl5vymtxjjl","mus","lemur","23","female","yes","yes","2","2","650","<div style=""font-size:30px;"">Press space to start the trial</div>"," ","","","","","","",""
"","","","","","html-keyboard-response","197","2.0.0","190693","pl5vymtxjjl","mus","lemur","23","female","yes","yes","2","2","null","<div style=""font-size:60px;"">+</div>","null","","","","","","",""
"","","","","","audio-keyboard-response","198","2.0.0","191295","pl5vymtxjjl","mus","lemur","23","female","yes","yes","2","2","null","stimuli/sounds/drum_sound_B.wav","null","","","","","","",""
"","","","","","html-keyboard-response","199","2.0.0","192298","pl5vymtxjjl","mus","lemur","23","female","yes","yes","2","2","null","","null","","","","","","",""
"","","","","","image-keyboard-response","200","2.0.0","192801","pl5vymtxjjl","mus","lemur","23","female","yes","yes","2","2","501","stimuli/pictures/phone_rotary_1.jpg","0","0","","true","no","sound","stimuli/sounds/drum_sound_B.wav",""
"","","","","","audio-keyboard-response","201","2.0.0","193804","pl5vymtxjjl","mus","lemur","23","female","yes","yes","2","2","null","stimuli/sounds/bleep.wav","null","","","","","","",""
"","","","","","html-keyboard-response","202","2.0.0","194357","pl5vymtxjjl","mus","lemur","23","female","yes","yes","2","2","451","<div style=""font-size:30px;"">Press space to start the trial</div>"," ","","","","","","",""
"","","","","","html-keyboard-response","203","2.0.0","194609","pl5vymtxjjl","mus","lemur","23","female","yes","yes","2","2","null","<div style=""font-size:60px;"">+</div>","null","","","","","","",""
"","","","","","audio-keyboard-response","204","2.0.0","195210","pl5vymtxjjl","mus","lemur","23","female","yes","yes","2","2","null","stimuli/sounds/phone_label_B.wav","null","","","","","","",""
"","","","","","html-keyboard-response","205","2.0.0","196213","pl5vymtxjjl","mus","lemur","23","female","yes","yes","2","2","null","","null","","","","","","",""
"","","","","","image-keyboard-response","206","2.0.0","196916","pl5vymtxjjl","mus","lemur","23","female","yes","yes","2","2","701","stimuli/pictures/flute_metal_1.jpg","0","0","","true","no","sound","stimuli/sounds/phone_label_B.wav",""
"","","","","","audio-keyboard-response","207","2.0.0","197918","pl5vymtxjjl","mus","lemur","23","female","yes","yes","2","2","null","stimuli/sounds/bleep.wav","null","","","","","","",""
"","","","","","html-keyboard-response","208","2.0.0","199080","pl5vymtxjjl","mus","lemur","23","female","yes","yes","2","2","1059","<div style=""font-size:30px;"">Press space to start the trial</div>"," ","","","","","","",""
"","","","","","html-keyboard-response","209","2.0.0","199332","pl5vymtxjjl","mus","lemur","23","female","yes","yes","2","2","null","<div style=""font-size:60px;"">+</div>","null","","","","","","",""
"","","","","","audio-keyboard-response","210","2.0.0","199941","pl5vymtxjjl","mus","lemur","23","female","yes","yes","2","2","null","stimuli/sounds/piano_sound_B.wav","null","","","","","","",""
"","","","","","html-keyboard-response","211","2.0.0","200943","pl5vymtxjjl","mus","lemur","23","female","yes","yes","2","2","null","","null","","","","","","",""
"","","","","","image-keyboard-response","212","2.0.0","201664","pl5vymtxjjl","mus","lemur","23","female","yes","yes","2","2","719","stimuli/pictures/flute_metal_1.jpg","0","0","","true","no","sound","stimuli/sounds/piano_sound_B.wav",""
"","","","","","audio-keyboard-response","213","2.0.0","202666","pl5vymtxjjl","mus","lemur","23","female","yes","yes","2","2","null","stimuli/sounds/bleep.wav","null","","","","","","",""
"","","","","","html-keyboard-response","214","2.0.0","203498","pl5vymtxjjl","mus","lemur","23","female","yes","yes","2","2","730","<div style=""font-size:30px;"">Press space to start the trial</div>"," ","","","","","","",""
"","","","","","html-keyboard-response","215","2.0.0","203750","pl5vymtxjjl","mus","lemur","23","female","yes","yes","2","2","null","<div style=""font-size:60px;"">+</div>","null","","","","","","",""
"","","","","","audio-keyboard-response","216","2.0.0","204351","pl5vymtxjjl","mus","lemur","23","female","yes","yes","2","2","null","stimuli/sounds/drum_label_A.wav","null","","","","","","",""
"","","","","","html-keyboard-response","217","2.0.0","205354","pl5vymtxjjl","mus","lemur","23","female","yes","yes","2","2","null","","null","","","","","","",""
"","","","","","image-keyboard-response","218","2.0.0","205785","pl5vymtxjjl","mus","lemur","23","female","yes","yes","2","2","430","stimuli/pictures/drum_bongo_2.jpg","1","1","","true","yes","sound","stimuli/sounds/drum_label_A.wav",""
"","","","","","audio-keyboard-response","219","2.0.0","206787","pl5vymtxjjl","mus","lemur","23","female","yes","yes","2","2","null","stimuli/sounds/bleep.wav","null","","","","","","",""
"","","","","","html-keyboard-response","220","2.0.0","207627","pl5vymtxjjl","mus","lemur","23","female","yes","yes","2","2","738","<div style=""font-size:30px;"">Press space to start the trial</div>"," ","","","","","","",""
"","","","","","html-keyboard-response","221","2.0.0","207877","pl5vymtxjjl","mus","lemur","23","female","yes","yes","2","2","null","<div style=""font-size:60px;"">+</div>","null","","","","","","",""
"","","","","","audio-keyboard-response","222","2.0.0","208484","pl5vymtxjjl","mus","lemur","23","female","yes","yes","2","2","null","stimuli/sounds/piano_sound_B.wav","null","","","","","","",""
"","","","","","html-keyboard-response","223","2.0.0","209486","pl5vymtxjjl","mus","lemur","23","female","yes","yes","2","2","null","","null","","","","","","",""
"","","","","","image-keyboard-response","224","2.0.0","210353","pl5vymtxjjl","mus","lemur","23","female","yes","yes","2","2","865","stimuli/pictures/piano_electric_1.jpg","1","1","","true","yes","sound","stimuli/sounds/piano_sound_B.wav",""
"","","","","","audio-keyboard-response","225","2.0.0","211356","pl5vymtxjjl","mus","lemur","23","female","yes","yes","2","2","null","stimuli/sounds/bleep.wav","null","","","","","","",""
"","","","","","html-keyboard-response","226","2.0.0","212098","pl5vymtxjjl","mus","lemur","23","female","yes","yes","2","2","640","<div style=""font-size:30px;"">Press space to start the trial</div>"," ","","","","","","",""
"","","","","","html-keyboard-response","227","2.0.0","212351","pl5vymtxjjl","mus","lemur","23","female","yes","yes","2","2","null","<div style=""font-size:60px;"">+</div>","null","","","","","","",""
"","","","","","audio-keyboard-response","228","2.0.0","212954","pl5vymtxjjl","mus","lemur","23","female","yes","yes","2","2","null","stimuli/sounds/bird_sound_A.wav","null","","","","","","",""
"","","","","","html-keyboard-response","229","2.0.0","213957","pl5vymtxjjl","mus","lemur","23","female","yes","yes","2","2","null","","null","","","","","","",""
"","","","","","image-keyboard-response","230","2.0.0","214382","pl5vymtxjjl","mus","lemur","23","female","yes","yes","2","2","423","stimuli/pictures/bird_song_2.jpg","1","1","","true","no","sound","stimuli/sounds/bird_sound_A.wav",""
"","","","","","audio-keyboard-response","231","2.0.0","215384","pl5vymtxjjl","mus","lemur","23","female","yes","yes","2","2","null","stimuli/sounds/bleep.wav","null","","","","","","",""
"","","","","","html-keyboard-response","232","2.0.0","216045","pl5vymtxjjl","mus","lemur","23","female","yes","yes","2","2","558","<div style=""font-size:30px;"">Press space to start the trial</div>"," ","","","","","","",""
"","","","","","html-keyboard-response","233","2.0.0","216296","pl5vymtxjjl","mus","lemur","23","female","yes","yes","2","2","null","<div style=""font-size:60px;"">+</div>","null","","","","","","",""
"","","","","","audio-keyboard-response","234","2.0.0","216901","pl5vymtxjjl","mus","lemur","23","female","yes","yes","2","2","null","stimuli/sounds/piano_sound_B.wav","null","","","","","","",""
"","","","","","html-keyboard-response","235","2.0.0","217902","pl5vymtxjjl","mus","lemur","23","female","yes","yes","2","2","null","","null","","","","","","",""
"","","","","","image-keyboard-response","236","2.0.0","218432","pl5vymtxjjl","mus","lemur","23","female","yes","yes","2","2","528","stimuli/pictures/flute_metal_2.jpg","0","0","","true","no","sound","stimuli/sounds/piano_sound_B.wav",""
"","","","","","audio-keyboard-response","237","2.0.0","219436","pl5vymtxjjl","mus","lemur","23","female","yes","yes","2","2","null","stimuli/sounds/bleep.wav","null","","","","","","",""
"","","","","","html-keyboard-response","238","2.0.0","220024","pl5vymtxjjl","mus","lemur","23","female","yes","yes","2","2","486","<div style=""font-size:30px;"">Press space to start the trial</div>"," ","","","","","","",""
"","","","","","html-keyboard-response","239","2.0.0","220276","pl5vymtxjjl","mus","lemur","23","female","yes","yes","2","2","null","<div style=""font-size:60px;"">+</div>","null","","","","","","",""
"","","","","","audio-keyboard-response","240","2.0.0","220879","pl5vymtxjjl","mus","lemur","23","female","yes","yes","2","2","null","stimuli/sounds/flute_label_A.wav","null","","","","","","",""
"","","","","","html-keyboard-response","241","2.0.0","221882","pl5vymtxjjl","mus","lemur","23","female","yes","yes","2","2","null","","null","","","","","","",""
"","","","","","image-keyboard-response","242","2.0.0","222318","pl5vymtxjjl","mus","lemur","23","female","yes","yes","2","2","434","stimuli/pictures/piano_electric_1.jpg","0","0","","true","no","sound","stimuli/sounds/flute_label_A.wav",""
"","","","","","audio-keyboard-response","243","2.0.0","223321","pl5vymtxjjl","mus","lemur","23","female","yes","yes","2","2","null","stimuli/sounds/bleep.wav","null","","","","","","",""
"","","","","","html-keyboard-response","244","2.0.0","223998","pl5vymtxjjl","mus","lemur","23","female","yes","yes","2","2","576","<div style=""font-size:30px;"">Press space to start the trial</div>"," ","","","","","","",""
"","","","","","html-keyboard-response","245","2.0.0","224250","pl5vymtxjjl","mus","lemur","23","female","yes","yes","2","2","null","<div style=""font-size:60px;"">+</div>","null","","","","","","",""
"","","","","","audio-keyboard-response","246","2.0.0","224853","pl5vymtxjjl","mus","lemur","23","female","yes","yes","2","2","null","stimuli/sounds/flute_sound_A.wav","null","","","","","","",""
"","","","","","html-keyboard-response","247","2.0.0","225855","pl5vymtxjjl","mus","lemur","23","female","yes","yes","2","2","null","","null","","","","","","",""
"","","","","","image-keyboard-response","248","2.0.0","226576","pl5vymtxjjl","mus","lemur","23","female","yes","yes","2","2","718","stimuli/pictures/flute_wooden_2.jpg","1","1","","true","no","sound","stimuli/sounds/flute_sound_A.wav",""
"","","","","","audio-keyboard-response","249","2.0.0","227578","pl5vymtxjjl","mus","lemur","23","female","yes","yes","2","2","null","stimuli/sounds/bleep.wav","null","","","","","","",""
"","","","","","html-keyboard-response","250","2.0.0","228461","pl5vymtxjjl","mus","lemur","23","female","yes","yes","2","2","781","<div style=""font-size:30px;"">Press space to start the trial</div>"," ","","","","","","",""
"","","","","","html-keyboard-response","251","2.0.0","228714","pl5vymtxjjl","mus","lemur","23","female","yes","yes","2","2","null","<div style=""font-size:60px;"">+</div>","null","","","","","","",""
"","","","","","audio-keyboard-response","252","2.0.0","229317","pl5vymtxjjl","mus","lemur","23","female","yes","yes","2","2","null","stimuli/sounds/bird_label_A.wav","null","","","","","","",""
"","","","","","html-keyboard-response","253","2.0.0","230319","pl5vymtxjjl","mus","lemur","23","female","yes","yes","2","2","null","","null","","","","","","",""
"","","","","","image-keyboard-response","254","2.0.0","230846","pl5vymtxjjl","mus","lemur","23","female","yes","yes","2","2","525","stimuli/pictures/flute_wooden_2.jpg","0","0","","true","no","sound","stimuli/sounds/bird_label_A.wav",""
"","","","","","audio-keyboard-response","255","2.0.0","231849","pl5vymtxjjl","mus","lemur","23","female","yes","yes","2","2","null","stimuli/sounds/bleep.wav","null","","","","","","",""
"","","","","","html-keyboard-response","256","2.0.0","232553","pl5vymtxjjl","mus","lemur","23","female","yes","yes","2","2","602","<div style=""font-size:30px;"">Press space to start the trial</div>"," ","","","","","","",""
"","","","","","html-keyboard-response","257","2.0.0","232805","pl5vymtxjjl","mus","lemur","23","female","yes","yes","2","2","null","<div style=""font-size:60px;"">+</div>","null","","","","","","",""
"","","","","","audio-keyboard-response","258","2.0.0","233407","pl5vymtxjjl","mus","lemur","23","female","yes","yes","2","2","null","stimuli/sounds/drum_sound_B.wav","null","","","","","","",""
"","","","","","html-keyboard-response","259","2.0.0","234410","pl5vymtxjjl","mus","lemur","23","female","yes","yes","2","2","null","","null","","","","","","",""
"","","","","","image-keyboard-response","260","2.0.0","234868","pl5vymtxjjl","mus","lemur","23","female","yes","yes","2","2","456","stimuli/pictures/drum_bongo_1.jpg","1","1","","true","yes","sound","stimuli/sounds/drum_sound_B.wav",""
"","","","","","audio-keyboard-response","261","2.0.0","235870","pl5vymtxjjl","mus","lemur","23","female","yes","yes","2","2","null","stimuli/sounds/bleep.wav","null","","","","","","",""
"","","","","","html-keyboard-response","262","2.0.0","236776","pl5vymtxjjl","mus","lemur","23","female","yes","yes","2","2","804","<div style=""font-size:30px;"">Press space to start the trial</div>"," ","","","","","","",""
"","","","","","html-keyboard-response","263","2.0.0","237027","pl5vymtxjjl","mus","lemur","23","female","yes","yes","2","2","null","<div style=""font-size:60px;"">+</div>","null","","","","","","",""
"","","","","","audio-keyboard-response","264","2.0.0","237626","pl5vymtxjjl","mus","lemur","23","female","yes","yes","2","2","null","stimuli/sounds/bird_label_B.wav","null","","","","","","",""
"","","","","","html-keyboard-response","265","2.0.0","238629","pl5vymtxjjl","mus","lemur","23","female","yes","yes","2","2","null","","null","","","","","","",""
"","","","","","image-keyboard-response","266","2.0.0","239221","pl5vymtxjjl","mus","lemur","23","female","yes","yes","2","2","591","stimuli/pictures/phone_rotary_2.jpg","0","0","","true","no","sound","stimuli/sounds/bird_label_B.wav",""
"","","","","","audio-keyboard-response","267","2.0.0","240224","pl5vymtxjjl","mus","lemur","23","female","yes","yes","2","2","null","stimuli/sounds/bleep.wav","null","","","","","","",""
"","","","","","html-keyboard-response","268","2.0.0","242375","pl5vymtxjjl","mus","lemur","23","female","yes","yes","2","2","2049","<p>You have completed a block. Press R when you are ready to continue</p>","r","","","","","","",""
"","","","","","html-keyboard-response","269","2.0.0","244166","pl5vymtxjjl","mus","lemur","23","female","yes","yes","2","2","1790","<div style=""font-size:30px;"">Press space to start the trial</div>"," ","","","","","","",""
"","","","","","html-keyboard-response","270","2.0.0","244417","pl5vymtxjjl","mus","lemur","23","female","yes","yes","2","2","null","<div style=""font-size:60px;"">+</div>","null","","","","","","",""
"","","","","","audio-keyboard-response","271","2.0.0","245018","pl5vymtxjjl","mus","lemur","23","female","yes","yes","2","2","null","stimuli/sounds/drum_sound_A.wav","null","","","","","","",""
"","","","","","html-keyboard-response","272","2.0.0","246020","pl5vymtxjjl","mus","lemur","23","female","yes","yes","2","2","null","","null","","","","","","",""
"","","","","","image-keyboard-response","273","2.0.0","246484","pl5vymtxjjl","mus","lemur","23","female","yes","yes","2","2","462","stimuli/pictures/flute_wooden_1.jpg","0","0","","true","no","sound","stimuli/sounds/drum_sound_A.wav",""
"","","","","","audio-keyboard-response","274","2.0.0","247488","pl5vymtxjjl","mus","lemur","23","female","yes","yes","2","2","null","stimuli/sounds/bleep.wav","null","","","","","","",""
"","","","","","html-keyboard-response","275","2.0.0","248297","pl5vymtxjjl","mus","lemur","23","female","yes","yes","2","2","707","<div style=""font-size:30px;"">Press space to start the trial</div>"," ","","","","","","",""
"","","","","","html-keyboard-response","276","2.0.0","248549","pl5vymtxjjl","mus","lemur","23","female","yes","yes","2","2","null","<div style=""font-size:60px;"">+</div>","null","","","","","","",""
"","","","","","audio-keyboard-response","277","2.0.0","249151","pl5vymtxjjl","mus","lemur","23","female","yes","yes","2","2","null","stimuli/sounds/phone_sound_A.wav","null","","","","","","",""
"","","","","","html-keyboard-response","278","2.0.0","250154","pl5vymtxjjl","mus","lemur","23","female","yes","yes","2","2","null","","null","","","","","","",""
"","","","","","image-keyboard-response","279","2.0.0","250519","pl5vymtxjjl","mus","lemur","23","female","yes","yes","2","2","365","stimuli/pictures/phone_rotary_2.jpg","1","1","","true","no","sound","stimuli/sounds/phone_sound_A.wav",""
"","","","","","audio-keyboard-response","280","2.0.0","251522","pl5vymtxjjl","mus","lemur","23","female","yes","yes","2","2","null","stimuli/sounds/bleep.wav","null","","","","","","",""
"","","","","","html-keyboard-response","281","2.0.0","253195","pl5vymtxjjl","mus","lemur","23","female","yes","yes","2","2","1571","<div style=""font-size:30px;"">Press space to start the trial</div>"," ","","","","","","",""
"","","","","","html-keyboard-response","282","2.0.0","253447","pl5vymtxjjl","mus","lemur","23","female","yes","yes","2","2","null","<div style=""font-size:60px;"">+</div>","null","","","","","","",""
"","","","","","audio-keyboard-response","283","2.0.0","254074","pl5vymtxjjl","mus","lemur","23","female","yes","yes","2","2","null","stimuli/sounds/piano_label_A.wav","null","","","","","","",""
"","","","","","html-keyboard-response","284","2.0.0","255077","pl5vymtxjjl","mus","lemur","23","female","yes","yes","2","2","null","","null","","","","","","",""
"","","","","","image-keyboard-response","285","2.0.0","255500","pl5vymtxjjl","mus","lemur","23","female","yes","yes","2","2","421","stimuli/pictures/phone_cell_2.jpg","0","0","","true","no","sound","stimuli/sounds/piano_label_A.wav",""
"","","","","","audio-keyboard-response","286","2.0.0","256503","pl5vymtxjjl","mus","lemur","23","female","yes","yes","2","2","null","stimuli/sounds/bleep.wav","null","","","","","","",""
"","","","","","html-keyboard-response","287","2.0.0","258047","pl5vymtxjjl","mus","lemur","23","female","yes","yes","2","2","1442","<div style=""font-size:30px;"">Press space to start the trial</div>"," ","","","","","","",""
"","","","","","html-keyboard-response","288","2.0.0","258300","pl5vymtxjjl","mus","lemur","23","female","yes","yes","2","2","null","<div style=""font-size:60px;"">+</div>","null","","","","","","",""
"","","","","","audio-keyboard-response","289","2.0.0","258901","pl5vymtxjjl","mus","lemur","23","female","yes","yes","2","2","null","stimuli/sounds/bird_label_A.wav","null","","","","","","",""
"","","","","","html-keyboard-response","290","2.0.0","259903","pl5vymtxjjl","mus","lemur","23","female","yes","yes","2","2","null","","null","","","","","","",""
"","","","","","image-keyboard-response","291","2.0.0","260396","pl5vymtxjjl","mus","lemur","23","female","yes","yes","2","2","492","stimuli/pictures/bird_hawk_1.jpg","1","1","","true","yes","sound","stimuli/sounds/bird_label_A.wav",""
"","","","","","audio-keyboard-response","292","2.0.0","261399","pl5vymtxjjl","mus","lemur","23","female","yes","yes","2","2","null","stimuli/sounds/bleep.wav","null","","","","","","",""
"","","","","","html-keyboard-response","293","2.0.0","262690","pl5vymtxjjl","mus","lemur","23","female","yes","yes","2","2","1189","<div style=""font-size:30px;"">Press space to start the trial</div>"," ","","","","","","",""
"","","","","","html-keyboard-response","294","2.0.0","262942","pl5vymtxjjl","mus","lemur","23","female","yes","yes","2","2","null","<div style=""font-size:60px;"">+</div>","null","","","","","","",""
"","","","","","audio-keyboard-response","295","2.0.0","263541","pl5vymtxjjl","mus","lemur","23","female","yes","yes","2","2","null","stimuli/sounds/phone_sound_A.wav","null","","","","","","",""
"","","","","","html-keyboard-response","296","2.0.0","264543","pl5vymtxjjl","mus","lemur","23","female","yes","yes","2","2","null","","null","","","","","","",""
"","","","","","image-keyboard-response","297","2.0.0","265310","pl5vymtxjjl","mus","lemur","23","female","yes","yes","2","2","766","stimuli/pictures/phone_rotary_1.jpg","1","1","","true","no","sound","stimuli/sounds/phone_sound_A.wav",""
"","","","","","audio-keyboard-response","298","2.0.0","266313","pl5vymtxjjl","mus","lemur","23","female","yes","yes","2","2","null","stimuli/sounds/bleep.wav","null","","","","","","",""
"","","","","","html-keyboard-response","299","2.0.0","266680","pl5vymtxjjl","mus","lemur","23","female","yes","yes","2","2","266","<div style=""font-size:30px;"">Press space to start the trial</div>"," ","","","","","","",""
"","","","","","html-keyboard-response","300","2.0.0","266933","pl5vymtxjjl","mus","lemur","23","female","yes","yes","2","2","null","<div style=""font-size:60px;"">+</div>","null","","","","","","",""
"","","","","","audio-keyboard-response","301","2.0.0","267535","pl5vymtxjjl","mus","lemur","23","female","yes","yes","2","2","null","stimuli/sounds/drum_sound_B.wav","null","","","","","","",""
"","","","","","html-keyboard-response","302","2.0.0","268538","pl5vymtxjjl","mus","lemur","23","female","yes","yes","2","2","null","","null","","","","","","",""
"","","","","","image-keyboard-response","303","2.0.0","269078","pl5vymtxjjl","mus","lemur","23","female","yes","yes","2","2","539","stimuli/pictures/phone_cell_2.jpg","0","0","","true","no","sound","stimuli/sounds/drum_sound_B.wav",""
"","","","","","audio-keyboard-response","304","2.0.0","270080","pl5vymtxjjl","mus","lemur","23","female","yes","yes","2","2","null","stimuli/sounds/bleep.wav","null","","","","","","",""
"","","","","","html-keyboard-response","305","2.0.0","270583","pl5vymtxjjl","mus","lemur","23","female","yes","yes","2","2","401","<div style=""font-size:30px;"">Press space to start the trial</div>"," ","","","","","","",""
"","","","","","html-keyboard-response","306","2.0.0","270836","pl5vymtxjjl","mus","lemur","23","female","yes","yes","2","2","null","<div style=""font-size:60px;"">+</div>","null","","","","","","",""
"","","","","","audio-keyboard-response","307","2.0.0","271439","pl5vymtxjjl","mus","lemur","23","female","yes","yes","2","2","null","stimuli/sounds/phone_sound_B.wav","null","","","","","","",""
"","","","","","html-keyboard-response","308","2.0.0","272442","pl5vymtxjjl","mus","lemur","23","female","yes","yes","2","2","null","","null","","","","","","",""
"","","","","","image-keyboard-response","309","2.0.0","272794","pl5vymtxjjl","mus","lemur","23","female","yes","yes","2","2","351","stimuli/pictures/piano_grand_2.jpg","0","0","","true","no","sound","stimuli/sounds/phone_sound_B.wav",""
"","","","","","audio-keyboard-response","310","2.0.0","273796","pl5vymtxjjl","mus","lemur","23","female","yes","yes","2","2","null","stimuli/sounds/bleep.wav","null","","","","","","",""
"","","","","","html-keyboard-response","311","2.0.0","276623","pl5vymtxjjl","mus","lemur","23","female","yes","yes","2","2","2724","<div style=""font-size:30px;"">Press space to start the trial</div>"," ","","","","","","",""
"","","","","","html-keyboard-response","312","2.0.0","276876","pl5vymtxjjl","mus","lemur","23","female","yes","yes","2","2","null","<div style=""font-size:60px;"">+</div>","null","","","","","","",""
"","","","","","audio-keyboard-response","313","2.0.0","277477","pl5vymtxjjl","mus","lemur","23","female","yes","yes","2","2","null","stimuli/sounds/drum_sound_B.wav","null","","","","","","",""
"","","","","","html-keyboard-response","314","2.0.0","278479","pl5vymtxjjl","mus","lemur","23","female","yes","yes","2","2","null","","null","","","","","","",""
"","","","","","image-keyboard-response","315","2.0.0","279214","pl5vymtxjjl","mus","lemur","23","female","yes","yes","2","2","733","stimuli/pictures/phone_cell_1.jpg","0","0","","true","no","sound","stimuli/sounds/drum_sound_B.wav",""
"","","","","","audio-keyboard-response","316","2.0.0","280217","pl5vymtxjjl","mus","lemur","23","female","yes","yes","2","2","null","stimuli/sounds/bleep.wav","null","","","","","","",""
"","","","","","html-keyboard-response","317","2.0.0","281285","pl5vymtxjjl","mus","lemur","23","female","yes","yes","2","2","966","<div style=""font-size:30px;"">Press space to start the trial</div>"," ","","","","","","",""
"","","","","","html-keyboard-response","318","2.0.0","281537","pl5vymtxjjl","mus","lemur","23","female","yes","yes","2","2","null","<div style=""font-size:60px;"">+</div>","null","","","","","","",""
"","","","","","audio-keyboard-response","319","2.0.0","282138","pl5vymtxjjl","mus","lemur","23","female","yes","yes","2","2","null","stimuli/sounds/phone_sound_B.wav","null","","","","","","",""
"","","","","","html-keyboard-response","320","2.0.0","283140","pl5vymtxjjl","mus","lemur","23","female","yes","yes","2","2","null","","null","","","","","","",""
"","","","","","image-keyboard-response","321","2.0.0","283546","pl5vymtxjjl","mus","lemur","23","female","yes","yes","2","2","404","stimuli/pictures/phone_rotary_2.jpg","1","1","","true","yes","sound","stimuli/sounds/phone_sound_B.wav",""
"","","","","","audio-keyboard-response","322","2.0.0","284549","pl5vymtxjjl","mus","lemur","23","female","yes","yes","2","2","null","stimuli/sounds/bleep.wav","null","","","","","","",""
"","","","","","html-keyboard-response","323","2.0.0","285992","pl5vymtxjjl","mus","lemur","23","female","yes","yes","2","2","1341","<div style=""font-size:30px;"">Press space to start the trial</div>"," ","","","","","","",""
"","","","","","html-keyboard-response","324","2.0.0","286244","pl5vymtxjjl","mus","lemur","23","female","yes","yes","2","2","null","<div style=""font-size:60px;"">+</div>","null","","","","","","",""
"","","","","","audio-keyboard-response","325","2.0.0","286853","pl5vymtxjjl","mus","lemur","23","female","yes","yes","2","2","null","stimuli/sounds/flute_sound_B.wav","null","","","","","","",""
"","","","","","html-keyboard-response","326","2.0.0","287855","pl5vymtxjjl","mus","lemur","23","female","yes","yes","2","2","null","","null","","","","","","",""
"","","","","","image-keyboard-response","327","2.0.0","288271","pl5vymtxjjl","mus","lemur","23","female","yes","yes","2","2","415","stimuli/pictures/flute_wooden_1.jpg","1","1","","true","yes","sound","stimuli/sounds/flute_sound_B.wav",""
"","","","","","audio-keyboard-response","328","2.0.0","289274","pl5vymtxjjl","mus","lemur","23","female","yes","yes","2","2","null","stimuli/sounds/bleep.wav","null","","","","","","",""
"","","","","","html-keyboard-response","329","2.0.0","289779","pl5vymtxjjl","mus","lemur","23","female","yes","yes","2","2","403","<div style=""font-size:30px;"">Press space to start the trial</div>"," ","","","","","","",""
"","","","","","html-keyboard-response","330","2.0.0","290031","pl5vymtxjjl","mus","lemur","23","female","yes","yes","2","2","null","<div style=""font-size:60px;"">+</div>","null","","","","","","",""
"","","","","","audio-keyboard-response","331","2.0.0","290634","pl5vymtxjjl","mus","lemur","23","female","yes","yes","2","2","null","stimuli/sounds/piano_label_B.wav","null","","","","","","",""
"","","","","","html-keyboard-response","332","2.0.0","291637","pl5vymtxjjl","mus","lemur","23","female","yes","yes","2","2","null","","null","","","","","","",""
"","","","","","image-keyboard-response","333","2.0.0","292137","pl5vymtxjjl","mus","lemur","23","female","yes","yes","2","2","499","stimuli/pictures/bird_song_2.jpg","0","0","","true","no","sound","stimuli/sounds/piano_label_B.wav",""
"","","","","","audio-keyboard-response","334","2.0.0","293140","pl5vymtxjjl","mus","lemur","23","female","yes","yes","2","2","null","stimuli/sounds/bleep.wav","null","","","","","","",""
"","","","","","html-keyboard-response","335","2.0.0","293789","pl5vymtxjjl","mus","lemur","23","female","yes","yes","2","2","547","<div style=""font-size:30px;"">Press space to start the trial</div>"," ","","","","","","",""
"","","","","","html-keyboard-response","336","2.0.0","294041","pl5vymtxjjl","mus","lemur","23","female","yes","yes","2","2","null","<div style=""font-size:60px;"">+</div>","null","","","","","","",""
"","","","","","audio-keyboard-response","337","2.0.0","294645","pl5vymtxjjl","mus","lemur","23","female","yes","yes","2","2","null","stimuli/sounds/bird_label_B.wav","null","","","","","","",""
"","","","","","html-keyboard-response","338","2.0.0","295647","pl5vymtxjjl","mus","lemur","23","female","yes","yes","2","2","null","","null","","","","","","",""
"","","","","","image-keyboard-response","339","2.0.0","295957","pl5vymtxjjl","mus","lemur","23","female","yes","yes","2","2","308","stimuli/pictures/phone_cell_1.jpg","0","0","","true","no","sound","stimuli/sounds/bird_label_B.wav",""
"","","","","","audio-keyboard-response","340","2.0.0","296960","pl5vymtxjjl","mus","lemur","23","female","yes","yes","2","2","null","stimuli/sounds/bleep.wav","null","","","","","","",""
"","","","","","html-keyboard-response","341","2.0.0","297746","pl5vymtxjjl","mus","lemur","23","female","yes","yes","2","2","683","<div style=""font-size:30px;"">Press space to start the trial</div>"," ","","","","","","",""
"","","","","","html-keyboard-response","342","2.0.0","298004","pl5vymtxjjl","mus","lemur","23","female","yes","yes","2","2","null","<div style=""font-size:60px;"">+</div>","null","","","","","","",""
"","","","","","audio-keyboard-response","343","2.0.0","298607","pl5vymtxjjl","mus","lemur","23","female","yes","yes","2","2","null","stimuli/sounds/drum_sound_B.wav","null","","","","","","",""
"","","","","","html-keyboard-response","344","2.0.0","299610","pl5vymtxjjl","mus","lemur","23","female","yes","yes","2","2","null","","null","","","","","","",""
"","","","","","image-keyboard-response","345","2.0.0","300061","pl5vymtxjjl","mus","lemur","23","female","yes","yes","2","2","449","stimuli/pictures/drum_kit_1.jpg","1","1","","true","no","sound","stimuli/sounds/drum_sound_B.wav",""
"","","","","","audio-keyboard-response","346","2.0.0","301063","pl5vymtxjjl","mus","lemur","23","female","yes","yes","2","2","null","stimuli/sounds/bleep.wav","null","","","","","","",""
"","","","","","html-keyboard-response","347","2.0.0","302287","pl5vymtxjjl","mus","lemur","23","female","yes","yes","2","2","1122","<div style=""font-size:30px;"">Press space to start the trial</div>"," ","","","","","","",""
"","","","","","html-keyboard-response","348","2.0.0","302539","pl5vymtxjjl","mus","lemur","23","female","yes","yes","2","2","null","<div style=""font-size:60px;"">+</div>","null","","","","","","",""
"","","","","","audio-keyboard-response","349","2.0.0","303141","pl5vymtxjjl","mus","lemur","23","female","yes","yes","2","2","null","stimuli/sounds/drum_label_A.wav","null","","","","","","",""
"","","","","","html-keyboard-response","350","2.0.0","304142","pl5vymtxjjl","mus","lemur","23","female","yes","yes","2","2","null","","null","","","","","","",""
"","","","","","image-keyboard-response","351","2.0.0","304590","pl5vymtxjjl","mus","lemur","23","female","yes","yes","2","2","446","stimuli/pictures/bird_song_1.jpg","0","0","","true","no","sound","stimuli/sounds/drum_label_A.wav",""
"","","","","","audio-keyboard-response","352","2.0.0","305592","pl5vymtxjjl","mus","lemur","23","female","yes","yes","2","2","null","stimuli/sounds/bleep.wav","null","","","","","","",""
"","","","","","html-keyboard-response","353","2.0.0","306452","pl5vymtxjjl","mus","lemur","23","female","yes","yes","2","2","758","<div style=""font-size:30px;"">Press space to start the trial</div>"," ","","","","","","",""
"","","","","","html-keyboard-response","354","2.0.0","306704","pl5vymtxjjl","mus","lemur","23","female","yes","yes","2","2","null","<div style=""font-size:60px;"">+</div>","null","","","","","","",""
"","","","","","audio-keyboard-response","355","2.0.0","307306","pl5vymtxjjl","mus","lemur","23","female","yes","yes","2","2","null","stimuli/sounds/phone_sound_A.wav","null","","","","","","",""
"","","","","","html-keyboard-response","356","2.0.0","308307","pl5vymtxjjl","mus","lemur","23","female","yes","yes","2","2","null","","null","","","","","","",""
"","","","","","image-keyboard-response","357","2.0.0","308634","pl5vymtxjjl","mus","lemur","23","female","yes","yes","2","2","326","stimuli/pictures/phone_cell_2.jpg","1","1","","true","yes","sound","stimuli/sounds/phone_sound_A.wav",""
"","","","","","audio-keyboard-response","358","2.0.0","309637","pl5vymtxjjl","mus","lemur","23","female","yes","yes","2","2","null","stimuli/sounds/bleep.wav","null","","","","","","",""
"","","","","","html-keyboard-response","359","2.0.0","310340","pl5vymtxjjl","mus","lemur","23","female","yes","yes","2","2","602","<div style=""font-size:30px;"">Press space to start the trial</div>"," ","","","","","","",""
"","","","","","html-keyboard-response","360","2.0.0","310592","pl5vymtxjjl","mus","lemur","23","female","yes","yes","2","2","null","<div style=""font-size:60px;"">+</div>","null","","","","","","",""
"","","","","","audio-keyboard-response","361","2.0.0","311194","pl5vymtxjjl","mus","lemur","23","female","yes","yes","2","2","null","stimuli/sounds/phone_label_B.wav","null","","","","","","",""
"","","","","","html-keyboard-response","362","2.0.0","312196","pl5vymtxjjl","mus","lemur","23","female","yes","yes","2","2","null","","null","","","","","","",""
"","","","","","image-keyboard-response","363","2.0.0","312786","pl5vymtxjjl","mus","lemur","23","female","yes","yes","2","2","589","stimuli/pictures/flute_metal_2.jpg","0","0","","true","no","sound","stimuli/sounds/phone_label_B.wav",""
"","","","","","audio-keyboard-response","364","2.0.0","313789","pl5vymtxjjl","mus","lemur","23","female","yes","yes","2","2","null","stimuli/sounds/bleep.wav","null","","","","","","",""
"","","","","","html-keyboard-response","365","2.0.0","314729","pl5vymtxjjl","mus","lemur","23","female","yes","yes","2","2","838","<div style=""font-size:30px;"">Press space to start the trial</div>"," ","","","","","","",""
"","","","","","html-keyboard-response","366","2.0.0","314982","pl5vymtxjjl","mus","lemur","23","female","yes","yes","2","2","null","<div style=""font-size:60px;"">+</div>","null","","","","","","",""
"","","","","","audio-keyboard-response","367","2.0.0","315588","pl5vymtxjjl","mus","lemur","23","female","yes","yes","2","2","null","stimuli/sounds/piano_sound_B.wav","null","","","","","","",""
"","","","","","html-keyboard-response","368","2.0.0","316591","pl5vymtxjjl","mus","lemur","23","female","yes","yes","2","2","null","","null","","","","","","",""
"","","","","","image-keyboard-response","369","2.0.0","317132","pl5vymtxjjl","mus","lemur","23","female","yes","yes","2","2","540","stimuli/pictures/piano_electric_2.jpg","1","1","","true","yes","sound","stimuli/sounds/piano_sound_B.wav",""
"","","","","","audio-keyboard-response","370","2.0.0","318135","pl5vymtxjjl","mus","lemur","23","female","yes","yes","2","2","null","stimuli/sounds/bleep.wav","null","","","","","","",""
"","","","","","html-keyboard-response","371","2.0.0","319971","pl5vymtxjjl","mus","lemur","23","female","yes","yes","2","2","1734","<div style=""font-size:30px;"">Press space to start the trial</div>"," ","","","","","","",""
"","","","","","html-keyboard-response","372","2.0.0","320223","pl5vymtxjjl","mus","lemur","23","female","yes","yes","2","2","null","<div style=""font-size:60px;"">+</div>","null","","","","","","",""
"","","","","","audio-keyboard-response","373","2.0.0","320826","pl5vymtxjjl","mus","lemur","23","female","yes","yes","2","2","null","stimuli/sounds/phone_sound_B.wav","null","","","","","","",""
"","","","","","html-keyboard-response","374","2.0.0","321827","pl5vymtxjjl","mus","lemur","23","female","yes","yes","2","2","null","","null","","","","","","",""
"","","","","","image-keyboard-response","375","2.0.0","322363","pl5vymtxjjl","mus","lemur","23","female","yes","yes","2","2","534","stimuli/pictures/piano_electric_1.jpg","0","0","","true","no","sound","stimuli/sounds/phone_sound_B.wav",""
"","","","","","audio-keyboard-response","376","2.0.0","323366","pl5vymtxjjl","mus","lemur","23","female","yes","yes","2","2","null","stimuli/sounds/bleep.wav","null","","","","","","",""
"","","","","","html-keyboard-response","377","2.0.0","324422","pl5vymtxjjl","mus","lemur","23","female","yes","yes","2","2","954","<div style=""font-size:30px;"">Press space to start the trial</div>"," ","","","","","","",""
"","","","","","html-keyboard-response","378","2.0.0","324674","pl5vymtxjjl","mus","lemur","23","female","yes","yes","2","2","null","<div style=""font-size:60px;"">+</div>","null","","","","","","",""
"","","","","","audio-keyboard-response","379","2.0.0","325279","pl5vymtxjjl","mus","lemur","23","female","yes","yes","2","2","null","stimuli/sounds/flute_sound_B.wav","null","","","","","","",""
"","","","","","html-keyboard-response","380","2.0.0","326281","pl5vymtxjjl","mus","lemur","23","female","yes","yes","2","2","null","","null","","","","","","",""
"","","","","","image-keyboard-response","381","2.0.0","326623","pl5vymtxjjl","mus","lemur","23","female","yes","yes","2","2","339","stimuli/pictures/flute_wooden_2.jpg","1","1","","true","yes","sound","stimuli/sounds/flute_sound_B.wav",""
"","","","","","audio-keyboard-response","382","2.0.0","327625","pl5vymtxjjl","mus","lemur","23","female","yes","yes","2","2","null","stimuli/sounds/bleep.wav","null","","","","","","",""
"","","","","","html-keyboard-response","383","2.0.0","329401","pl5vymtxjjl","mus","lemur","23","female","yes","yes","2","2","1674","<div style=""font-size:30px;"">Press space to start the trial</div>"," ","","","","","","",""
"","","","","","html-keyboard-response","384","2.0.0","329654","pl5vymtxjjl","mus","lemur","23","female","yes","yes","2","2","null","<div style=""font-size:60px;"">+</div>","null","","","","","","",""
"","","","","","audio-keyboard-response","385","2.0.0","330255","pl5vymtxjjl","mus","lemur","23","female","yes","yes","2","2","null","stimuli/sounds/drum_sound_A.wav","null","","","","","","",""
"","","","","","html-keyboard-response","386","2.0.0","331257","pl5vymtxjjl","mus","lemur","23","female","yes","yes","2","2","null","","null","","","","","","",""
"","","","","","image-keyboard-response","387","2.0.0","331641","pl5vymtxjjl","mus","lemur","23","female","yes","yes","2","2","382","stimuli/pictures/drum_kit_2.jpg","1","1","","true","yes","sound","stimuli/sounds/drum_sound_A.wav",""
"","","","","","audio-keyboard-response","388","2.0.0","332643","pl5vymtxjjl","mus","lemur","23","female","yes","yes","2","2","null","stimuli/sounds/bleep.wav","null","","","","","","",""
"","","","","","html-keyboard-response","389","2.0.0","359562","pl5vymtxjjl","mus","lemur","23","female","yes","yes","2","2","26817","<p>You have completed a block. Press R when you are ready to continue</p>","r","","","","","","",""
"","","","","","html-keyboard-response","390","2.0.0","361049","pl5vymtxjjl","mus","lemur","23","female","yes","yes","2","2","1485","<div style=""font-size:30px;"">Press space to start the trial</div>"," ","","","","","","",""
"","","","","","html-keyboard-response","391","2.0.0","361301","pl5vymtxjjl","mus","lemur","23","female","yes","yes","2","2","null","<div style=""font-size:60px;"">+</div>","null","","","","","","",""
"","","","","","audio-keyboard-response","392","2.0.0","361909","pl5vymtxjjl","mus","lemur","23","female","yes","yes","2","2","null","stimuli/sounds/flute_label_B.wav","null","","","","","","",""
"","","","","","html-keyboard-response","393","2.0.0","362911","pl5vymtxjjl","mus","lemur","23","female","yes","yes","2","2","null","","null","","","","","","",""
"","","","","","image-keyboard-response","394","2.0.0","363315","pl5vymtxjjl","mus","lemur","23","female","yes","yes","2","2","403","stimuli/pictures/flute_wooden_1.jpg","0","1","","false","yes","sound","stimuli/sounds/flute_label_B.wav",""
"","","","","","audio-keyboard-response","395","2.0.0","364319","pl5vymtxjjl","mus","lemur","23","female","yes","yes","2","2","null","stimuli/sounds/buzz.wav","null","","","","","","",""
"","","","","","html-keyboard-response","396","2.0.0","365192","pl5vymtxjjl","mus","lemur","23","female","yes","yes","2","2","771","<div style=""font-size:30px;"">Press space to start the trial</div>"," ","","","","","","",""
"","","","","","html-keyboard-response","397","2.0.0","365443","pl5vymtxjjl","mus","lemur","23","female","yes","yes","2","2","null","<div style=""font-size:60px;"">+</div>","null","","","","","","",""
"","","","","","audio-keyboard-response","398","2.0.0","366042","pl5vymtxjjl","mus","lemur","23","female","yes","yes","2","2","null","stimuli/sounds/drum_sound_A.wav","null","","","","","","",""
"","","","","","html-keyboard-response","399","2.0.0","367044","pl5vymtxjjl","mus","lemur","23","female","yes","yes","2","2","null","","null","","","","","","",""
"","","","","","image-keyboard-response","400","2.0.0","367446","pl5vymtxjjl","mus","lemur","23","female","yes","yes","2","2","400","stimuli/pictures/drum_bongo_1.jpg","1","1","","true","no","sound","stimuli/sounds/drum_sound_A.wav",""
"","","","","","audio-keyboard-response","401","2.0.0","368450","pl5vymtxjjl","mus","lemur","23","female","yes","yes","2","2","null","stimuli/sounds/bleep.wav","null","","","","","","",""
"","","","","","html-keyboard-response","402","2.0.0","369811","pl5vymtxjjl","mus","lemur","23","female","yes","yes","2","2","1259","<div style=""font-size:30px;"">Press space to start the trial</div>"," ","","","","","","",""
"","","","","","html-keyboard-response","403","2.0.0","370064","pl5vymtxjjl","mus","lemur","23","female","yes","yes","2","2","null","<div style=""font-size:60px;"">+</div>","null","","","","","","",""
"","","","","","audio-keyboard-response","404","2.0.0","370666","pl5vymtxjjl","mus","lemur","23","female","yes","yes","2","2","null","stimuli/sounds/drum_sound_A.wav","null","","","","","","",""
"","","","","","html-keyboard-response","405","2.0.0","371667","pl5vymtxjjl","mus","lemur","23","female","yes","yes","2","2","null","","null","","","","","","",""
"","","","","","image-keyboard-response","406","2.0.0","371980","pl5vymtxjjl","mus","lemur","23","female","yes","yes","2","2","311","stimuli/pictures/flute_metal_2.jpg","0","0","","true","no","sound","stimuli/sounds/drum_sound_A.wav",""
"","","","","","audio-keyboard-response","407","2.0.0","372983","pl5vymtxjjl","mus","lemur","23","female","yes","yes","2","2","null","stimuli/sounds/bleep.wav","null","","","","","","",""
"","","","","","html-keyboard-response","408","2.0.0","373872","pl5vymtxjjl","mus","lemur","23","female","yes","yes","2","2","787","<div style=""font-size:30px;"">Press space to start the trial</div>"," ","","","","","","",""
"","","","","","html-keyboard-response","409","2.0.0","374124","pl5vymtxjjl","mus","lemur","23","female","yes","yes","2","2","null","<div style=""font-size:60px;"">+</div>","null","","","","","","",""
"","","","","","audio-keyboard-response","410","2.0.0","374724","pl5vymtxjjl","mus","lemur","23","female","yes","yes","2","2","null","stimuli/sounds/flute_label_A.wav","null","","","","","","",""
"","","","","","html-keyboard-response","411","2.0.0","375727","pl5vymtxjjl","mus","lemur","23","female","yes","yes","2","2","null","","null","","","","","","",""
"","","","","","image-keyboard-response","412","2.0.0","376208","pl5vymtxjjl","mus","lemur","23","female","yes","yes","2","2","480","stimuli/pictures/flute_wooden_1.jpg","1","1","","true","yes","sound","stimuli/sounds/flute_label_A.wav",""
"","","","","","audio-keyboard-response","413","2.0.0","377211","pl5vymtxjjl","mus","lemur","23","female","yes","yes","2","2","null","stimuli/sounds/bleep.wav","null","","","","","","",""
"","","","","","html-keyboard-response","414","2.0.0","377908","pl5vymtxjjl","mus","lemur","23","female","yes","yes","2","2","595","<div style=""font-size:30px;"">Press space to start the trial</div>"," ","","","","","","",""
"","","","","","html-keyboard-response","415","2.0.0","378160","pl5vymtxjjl","mus","lemur","23","female","yes","yes","2","2","null","<div style=""font-size:60px;"">+</div>","null","","","","","","",""
"","","","","","audio-keyboard-response","416","2.0.0","378762","pl5vymtxjjl","mus","lemur","23","female","yes","yes","2","2","null","stimuli/sounds/phone_sound_B.wav","null","","","","","","",""
"","","","","","html-keyboard-response","417","2.0.0","379764","pl5vymtxjjl","mus","lemur","23","female","yes","yes","2","2","null","","null","","","","","","",""
"","","","","","image-keyboard-response","418","2.0.0","380192","pl5vymtxjjl","mus","lemur","23","female","yes","yes","2","2","426","stimuli/pictures/phone_cell_1.jpg","0","1","","false","no","sound","stimuli/sounds/phone_sound_B.wav",""
"","","","","","audio-keyboard-response","419","2.0.0","381194","pl5vymtxjjl","mus","lemur","23","female","yes","yes","2","2","null","stimuli/sounds/buzz.wav","null","","","","","","",""
"","","","","","html-keyboard-response","420","2.0.0","381936","pl5vymtxjjl","mus","lemur","23","female","yes","yes","2","2","640","<div style=""font-size:30px;"">Press space to start the trial</div>"," ","","","","","","",""
"","","","","","html-keyboard-response","421","2.0.0","382188","pl5vymtxjjl","mus","lemur","23","female","yes","yes","2","2","null","<div style=""font-size:60px;"">+</div>","null","","","","","","",""
"","","","","","audio-keyboard-response","422","2.0.0","382789","pl5vymtxjjl","mus","lemur","23","female","yes","yes","2","2","null","stimuli/sounds/drum_sound_B.wav","null","","","","","","",""
"","","","","","html-keyboard-response","423","2.0.0","383791","pl5vymtxjjl","mus","lemur","23","female","yes","yes","2","2","null","","null","","","","","","",""
"","","","","","image-keyboard-response","424","2.0.0","384305","pl5vymtxjjl","mus","lemur","23","female","yes","yes","2","2","512","stimuli/pictures/drum_bongo_2.jpg","1","1","","true","yes","sound","stimuli/sounds/drum_sound_B.wav",""
"","","","","","audio-keyboard-response","425","2.0.0","385308","pl5vymtxjjl","mus","lemur","23","female","yes","yes","2","2","null","stimuli/sounds/bleep.wav","null","","","","","","",""
"","","","","","html-keyboard-response","426","2.0.0","385939","pl5vymtxjjl","mus","lemur","23","female","yes","yes","2","2","529","<div style=""font-size:30px;"">Press space to start the trial</div>"," ","","","","","","",""
"","","","","","html-keyboard-response","427","2.0.0","386190","pl5vymtxjjl","mus","lemur","23","female","yes","yes","2","2","null","<div style=""font-size:60px;"">+</div>","null","","","","","","",""
"","","","","","audio-keyboard-response","428","2.0.0","386794","pl5vymtxjjl","mus","lemur","23","female","yes","yes","2","2","null","stimuli/sounds/piano_sound_B.wav","null","","","","","","",""
"","","","","","html-keyboard-response","429","2.0.0","387795","pl5vymtxjjl","mus","lemur","23","female","yes","yes","2","2","null","","null","","","","","","",""
"","","","","","image-keyboard-response","430","2.0.0","388403","pl5vymtxjjl","mus","lemur","23","female","yes","yes","2","2","606","stimuli/pictures/flute_wooden_1.jpg","0","0","","true","no","sound","stimuli/sounds/piano_sound_B.wav",""
"","","","","","audio-keyboard-response","431","2.0.0","389408","pl5vymtxjjl","mus","lemur","23","female","yes","yes","2","2","null","stimuli/sounds/bleep.wav","null","","","","","","",""
"","","","","","html-keyboard-response","432","2.0.0","390053","pl5vymtxjjl","mus","lemur","23","female","yes","yes","2","2","543","<div style=""font-size:30px;"">Press space to start the trial</div>"," ","","","","","","",""
"","","","","","html-keyboard-response","433","2.0.0","390304","pl5vymtxjjl","mus","lemur","23","female","yes","yes","2","2","null","<div style=""font-size:60px;"">+</div>","null","","","","","","",""
"","","","","","audio-keyboard-response","434","2.0.0","390906","pl5vymtxjjl","mus","lemur","23","female","yes","yes","2","2","null","stimuli/sounds/flute_sound_A.wav","null","","","","","","",""
"","","","","","html-keyboard-response","435","2.0.0","391908","pl5vymtxjjl","mus","lemur","23","female","yes","yes","2","2","null","","null","","","","","","",""
"","","","","","image-keyboard-response","436","2.0.0","392566","pl5vymtxjjl","mus","lemur","23","female","yes","yes","2","2","657","stimuli/pictures/flute_metal_2.jpg","1","1","","true","yes","sound","stimuli/sounds/flute_sound_A.wav",""
"","","","","","audio-keyboard-response","437","2.0.0","393569","pl5vymtxjjl","mus","lemur","23","female","yes","yes","2","2","null","stimuli/sounds/bleep.wav","null","","","","","","",""
"","","","","","html-keyboard-response","438","2.0.0","394201","pl5vymtxjjl","mus","lemur","23","female","yes","yes","2","2","529","<div style=""font-size:30px;"">Press space to start the trial</div>"," ","","","","","","",""
"","","","","","html-keyboard-response","439","2.0.0","394453","pl5vymtxjjl","mus","lemur","23","female","yes","yes","2","2","null","<div style=""font-size:60px;"">+</div>","null","","","","","","",""
"","","","","","audio-keyboard-response","440","2.0.0","395060","pl5vymtxjjl","mus","lemur","23","female","yes","yes","2","2","null","stimuli/sounds/flute_sound_B.wav","null","","","","","","",""
"","","","","","html-keyboard-response","441","2.0.0","396063","pl5vymtxjjl","mus","lemur","23","female","yes","yes","2","2","null","","null","","","","","","",""
"","","","","","image-keyboard-response","442","2.0.0","396666","pl5vymtxjjl","mus","lemur","23","female","yes","yes","2","2","602","stimuli/pictures/flute_metal_1.jpg","1","1","","true","no","sound","stimuli/sounds/flute_sound_B.wav",""
"","","","","","audio-keyboard-response","443","2.0.0","397669","pl5vymtxjjl","mus","lemur","23","female","yes","yes","2","2","null","stimuli/sounds/bleep.wav","null","","","","","","",""
"","","","","","html-keyboard-response","444","2.0.0","398385","pl5vymtxjjl","mus","lemur","23","female","yes","yes","2","2","614","<div style=""font-size:30px;"">Press space to start the trial</div>"," ","","","","","","",""
"","","","","","html-keyboard-response","445","2.0.0","398637","pl5vymtxjjl","mus","lemur","23","female","yes","yes","2","2","null","<div style=""font-size:60px;"">+</div>","null","","","","","","",""
"","","","","","audio-keyboard-response","446","2.0.0","399236","pl5vymtxjjl","mus","lemur","23","female","yes","yes","2","2","null","stimuli/sounds/phone_label_A.wav","null","","","","","","",""
"","","","","","html-keyboard-response","447","2.0.0","400238","pl5vymtxjjl","mus","lemur","23","female","yes","yes","2","2","null","","null","","","","","","",""
"","","","","","image-keyboard-response","448","2.0.0","400615","pl5vymtxjjl","mus","lemur","23","female","yes","yes","2","2","375","stimuli/pictures/drum_bongo_1.jpg","0","0","","true","no","sound","stimuli/sounds/phone_label_A.wav",""
"","","","","","audio-keyboard-response","449","2.0.0","401618","pl5vymtxjjl","mus","lemur","23","female","yes","yes","2","2","null","stimuli/sounds/bleep.wav","null","","","","","","",""
"","","","","","html-keyboard-response","450","2.0.0","402409","pl5vymtxjjl","mus","lemur","23","female","yes","yes","2","2","689","<div style=""font-size:30px;"">Press space to start the trial</div>"," ","","","","","","",""
"","","","","","html-keyboard-response","451","2.0.0","402661","pl5vymtxjjl","mus","lemur","23","female","yes","yes","2","2","null","<div style=""font-size:60px;"">+</div>","null","","","","","","",""
"","","","","","audio-keyboard-response","452","2.0.0","403263","pl5vymtxjjl","mus","lemur","23","female","yes","yes","2","2","null","stimuli/sounds/phone_sound_B.wav","null","","","","","","",""
"","","","","","html-keyboard-response","453","2.0.0","404266","pl5vymtxjjl","mus","lemur","23","female","yes","yes","2","2","null","","null","","","","","","",""
"","","","","","image-keyboard-response","454","2.0.0","404704","pl5vymtxjjl","mus","lemur","23","female","yes","yes","2","2","437","stimuli/pictures/phone_cell_2.jpg","1","1","","true","no","sound","stimuli/sounds/phone_sound_B.wav",""
"","","","","","audio-keyboard-response","455","2.0.0","405707","pl5vymtxjjl","mus","lemur","23","female","yes","yes","2","2","null","stimuli/sounds/bleep.wav","null","","","","","","",""
"","","","","","html-keyboard-response","456","2.0.0","406279","pl5vymtxjjl","mus","lemur","23","female","yes","yes","2","2","470","<div style=""font-size:30px;"">Press space to start the trial</div>"," ","","","","","","",""
"","","","","","html-keyboard-response","457","2.0.0","406531","pl5vymtxjjl","mus","lemur","23","female","yes","yes","2","2","null","<div style=""font-size:60px;"">+</div>","null","","","","","","",""
"","","","","","audio-keyboard-response","458","2.0.0","407130","pl5vymtxjjl","mus","lemur","23","female","yes","yes","2","2","null","stimuli/sounds/piano_label_B.wav","null","","","","","","",""
"","","","","","html-keyboard-response","459","2.0.0","408132","pl5vymtxjjl","mus","lemur","23","female","yes","yes","2","2","null","","null","","","","","","",""
"","","","","","image-keyboard-response","460","2.0.0","408708","pl5vymtxjjl","mus","lemur","23","female","yes","yes","2","2","575","stimuli/pictures/piano_grand_1.jpg","1","1","","true","yes","sound","stimuli/sounds/piano_label_B.wav",""
"","","","","","audio-keyboard-response","461","2.0.0","409711","pl5vymtxjjl","mus","lemur","23","female","yes","yes","2","2","null","stimuli/sounds/bleep.wav","null","","","","","","",""
"","","","","","html-keyboard-response","462","2.0.0","410410","pl5vymtxjjl","mus","lemur","23","female","yes","yes","2","2","598","<div style=""font-size:30px;"">Press space to start the trial</div>"," ","","","","","","",""
"","","","","","html-keyboard-response","463","2.0.0","410663","pl5vymtxjjl","mus","lemur","23","female","yes","yes","2","2","null","<div style=""font-size:60px;"">+</div>","null","","","","","","",""
"","","","","","audio-keyboard-response","464","2.0.0","411263","pl5vymtxjjl","mus","lemur","23","female","yes","yes","2","2","null","stimuli/sounds/phone_sound_B.wav","null","","","","","","",""
"","","","","","html-keyboard-response","465","2.0.0","412265","pl5vymtxjjl","mus","lemur","23","female","yes","yes","2","2","null","","null","","","","","","",""
"","","","","","image-keyboard-response","466","2.0.0","412724","pl5vymtxjjl","mus","lemur","23","female","yes","yes","2","2","457","stimuli/pictures/phone_rotary_1.jpg","1","1","","true","yes","sound","stimuli/sounds/phone_sound_B.wav",""
"","","","","","audio-keyboard-response","467","2.0.0","413727","pl5vymtxjjl","mus","lemur","23","female","yes","yes","2","2","null","stimuli/sounds/bleep.wav","null","","","","","","",""
"","","","","","html-keyboard-response","468","2.0.0","416111","pl5vymtxjjl","mus","lemur","23","female","yes","yes","2","2","2283","<div style=""font-size:30px;"">Press space to start the trial</div>"," ","","","","","","",""
"","","","","","html-keyboard-response","469","2.0.0","416363","pl5vymtxjjl","mus","lemur","23","female","yes","yes","2","2","null","<div style=""font-size:60px;"">+</div>","null","","","","","","",""
"","","","","","audio-keyboard-response","470","2.0.0","416970","pl5vymtxjjl","mus","lemur","23","female","yes","yes","2","2","null","stimuli/sounds/piano_sound_A.wav","null","","","","","","",""
"","","","","","html-keyboard-response","471","2.0.0","417972","pl5vymtxjjl","mus","lemur","23","female","yes","yes","2","2","null","","null","","","","","","",""
"","","","","","image-keyboard-response","472","2.0.0","418499","pl5vymtxjjl","mus","lemur","23","female","yes","yes","2","2","525","stimuli/pictures/drum_kit_1.jpg","0","0","","true","no","sound","stimuli/sounds/piano_sound_A.wav",""
"","","","","","audio-keyboard-response","473","2.0.0","419501","pl5vymtxjjl","mus","lemur","23","female","yes","yes","2","2","null","stimuli/sounds/bleep.wav","null","","","","","","",""
"","","","","","html-keyboard-response","474","2.0.0","420608","pl5vymtxjjl","mus","lemur","23","female","yes","yes","2","2","1005","<div style=""font-size:30px;"">Press space to start the trial</div>"," ","","","","","","",""
"","","","","","html-keyboard-response","475","2.0.0","420860","pl5vymtxjjl","mus","lemur","23","female","yes","yes","2","2","null","<div style=""font-size:60px;"">+</div>","null","","","","","","",""
"","","","","","audio-keyboard-response","476","2.0.0","421466","pl5vymtxjjl","mus","lemur","23","female","yes","yes","2","2","null","stimuli/sounds/flute_sound_B.wav","null","","","","","","",""
"","","","","","html-keyboard-response","477","2.0.0","422469","pl5vymtxjjl","mus","lemur","23","female","yes","yes","2","2","null","","null","","","","","","",""
"","","","","","image-keyboard-response","478","2.0.0","423054","pl5vymtxjjl","mus","lemur","23","female","yes","yes","2","2","584","stimuli/pictures/bird_hawk_1.jpg","0","0","","true","no","sound","stimuli/sounds/flute_sound_B.wav",""
"","","","","","audio-keyboard-response","479","2.0.0","424057","pl5vymtxjjl","mus","lemur","23","female","yes","yes","2","2","null","stimuli/sounds/bleep.wav","null","","","","","","",""
"","","","","","html-keyboard-response","480","2.0.0","425558","pl5vymtxjjl","mus","lemur","23","female","yes","yes","2","2","1399","<div style=""font-size:30px;"">Press space to start the trial</div>"," ","","","","","","",""
"","","","","","html-keyboard-response","481","2.0.0","425810","pl5vymtxjjl","mus","lemur","23","female","yes","yes","2","2","null","<div style=""font-size:60px;"">+</div>","null","","","","","","",""
"","","","","","audio-keyboard-response","482","2.0.0","426410","pl5vymtxjjl","mus","lemur","23","female","yes","yes","2","2","null","stimuli/sounds/phone_sound_B.wav","null","","","","","","",""
"","","","","","html-keyboard-response","483","2.0.0","427412","pl5vymtxjjl","mus","lemur","23","female","yes","yes","2","2","null","","null","","","","","","",""
"","","","","","image-keyboard-response","484","2.0.0","428091","pl5vymtxjjl","mus","lemur","23","female","yes","yes","2","2","677","stimuli/pictures/piano_electric_2.jpg","0","0","","true","no","sound","stimuli/sounds/phone_sound_B.wav",""
"","","","","","audio-keyboard-response","485","2.0.0","429094","pl5vymtxjjl","mus","lemur","23","female","yes","yes","2","2","null","stimuli/sounds/bleep.wav","null","","","","","","",""
"","","","","","html-keyboard-response","486","2.0.0","430147","pl5vymtxjjl","mus","lemur","23","female","yes","yes","2","2","952","<div style=""font-size:30px;"">Press space to start the trial</div>"," ","","","","","","",""
"","","","","","html-keyboard-response","487","2.0.0","430399","pl5vymtxjjl","mus","lemur","23","female","yes","yes","2","2","null","<div style=""font-size:60px;"">+</div>","null","","","","","","",""
"","","","","","audio-keyboard-response","488","2.0.0","431002","pl5vymtxjjl","mus","lemur","23","female","yes","yes","2","2","null","stimuli/sounds/drum_label_B.wav","null","","","","","","",""
