"success","timeout","failed_images","failed_audio","failed_video","trial_type","trial_index","plugin_version","time_elapsed","random_id","condition","participant","age","gender_id","mus_exp","inst_exp","years_exp","mus_listening","rt","stimulus","response","correct_response","practice","correct","congruent","sound_type","audio","question_order"
"true","false","[]","[]","[]","preload","0","2.0.0","1366","pmp97ju3xbt","ono","sheep","22","female","yes","yes","5-ish","yes, 1 hour","","","","","","","","","",""
"","","","","","html-keyboard-response","1","2.0.0","2405","pmp97ju3xbt","ono","sheep","22","female","yes","yes","5-ish","yes, 1 hour","1037","Welcome to the experiment! Press any key to begin."," ","","","","","","",""
"true","","","","","fullscreen","2","null","4669","pmp97ju3xbt","ono","sheep","22","female","yes","yes","5-ish","yes, 1 hour","1261","","","","","","","","",""
"","","","","","survey-text","3","2.0.0","7619","pmp97ju3xbt","ono","sheep","22","female","yes","yes","5-ish","yes, 1 hour","2945","","{""participant_id"":""sheep""}","","","","","","",""
"","","","","","html-keyboard-response","4","2.0.0","15530","pmp97ju3xbt","ono","sheep","22","female","yes","yes","5-ish","yes, 1 hour","7908","
    <p> Please use headphones for the duration of the study.</p>
    <p> Within each trial, you will hear a sound and then be presented with an image in the center of your screen.</p>
    <p>Press the <b>'1'</b> key if what you hear <u>matches</u> what you see.</p>
    <p>Press the <b>'0'</b> key if what you hear <u>does not match</u> what you see.</p>
    <p>Try to respond as quickly and accurately as you can.</p>
    <p> Press any key to begin.</p>
    "," ","","","","","","",""
"","","","","","html-keyboard-response","5","2.0.0","16843","pmp97ju3xbt","ono","sheep","22","female","yes","yes","5-ish","yes, 1 hour","1313","
    <div style=""font-size:28px;"">
      <p>You will now complete 4 short practice trials.</p>
      <p>This is just to help you get familiar with the task.</p>
      <p>Press any key to begin.</p>
    </div>
  "," ","","","","","","",""
"","","","","","html-keyboard-response","6","2.0.0","17346","pmp97ju3xbt","ono","sheep","22","female","yes","yes","5-ish","yes, 1 hour","null","<div style=""font-size:60px;"">+</div>","null","","","","","","",""
"","","","","","audio-keyboard-response","7","2.0.0","18324","pmp97ju3xbt","ono","sheep","22","female","yes","yes","5-ish","yes, 1 hour","null","stimuli/sounds/guitar_label_A.wav","null","","","","","","",""
"","","","","","image-keyboard-response","8","2.0.0","18752","pmp97ju3xbt","ono","sheep","22","female","yes","yes","5-ish","yes, 1 hour","424","stimuli/pictures/guitar_acoustic_1.jpg","1","1","true","true","","","",""
"","","","","","audio-keyboard-response","9","2.0.0","19556","pmp97ju3xbt","ono","sheep","22","female","yes","yes","5-ish","yes, 1 hour","null","stimuli/sounds/bleep.wav","null","","","","","","",""
"","","","","","html-keyboard-response","10","2.0.0","20259","pmp97ju3xbt","ono","sheep","22","female","yes","yes","5-ish","yes, 1 hour","null","<p style='color:green; font-size:30px;'>Correct!</p>","null","","","","","","",""
"","","","","","html-keyboard-response","11","2.0.0","20761","pmp97ju3xbt","ono","sheep","22","female","yes","yes","5-ish","yes, 1 hour","null","<div style=""font-size:60px;"">+</div>","null","","","","","","",""
"","","","","","audio-keyboard-response","12","2.0.0","21360","pmp97ju3xbt","ono","sheep","22","female","yes","yes","5-ish","yes, 1 hour","null","stimuli/sounds/guitar_sound_B.wav","null","","","","","","",""
"","","","","","image-keyboard-response","13","2.0.0","22026","pmp97ju3xbt","ono","sheep","22","female","yes","yes","5-ish","yes, 1 hour","664","stimuli/pictures/guitar_acoustic_2.jpg","1","1","true","true","","","",""
"","","","","","audio-keyboard-response","14","2.0.0","22829","pmp97ju3xbt","ono","sheep","22","female","yes","yes","5-ish","yes, 1 hour","null","stimuli/sounds/bleep.wav","null","","","","","","",""
"","","","","","html-keyboard-response","15","2.0.0","23532","pmp97ju3xbt","ono","sheep","22","female","yes","yes","5-ish","yes, 1 hour","null","<p style='color:green; font-size:30px;'>Correct!</p>","null","","","","","","",""
"","","","","","html-keyboard-response","16","2.0.0","24035","pmp97ju3xbt","ono","sheep","22","female","yes","yes","5-ish","yes, 1 hour","null","<div style=""font-size:60px;"">+</div>","null","","","","","","",""
"","","","","","audio-keyboard-response","17","2.0.0","24635","pmp97ju3xbt","ono","sheep","22","female","yes","yes","5-ish","yes, 1 hour","null","stimuli/sounds/flute_sound_A.wav","null","","","","","","",""
"","","","","","image-keyboard-response","18","2.0.0","25354","pmp97ju3xbt","ono","sheep","22","female","yes","yes","5-ish","yes, 1 hour","717","stimuli/pictures/guitar_electric_1.jpg","0","0","true","true","","","",""
"","","","","","audio-keyboard-response","19","2.0.0","26156","pmp97ju3xbt","ono","sheep","22","female","yes","yes","5-ish","yes, 1 hour","null","stimuli/sounds/bleep.wav","null","","","","","","",""
"","","","","","html-keyboard-response","20","2.0.0","26858","pmp97ju3xbt","ono","sheep","22","female","yes","yes","5-ish","yes, 1 hour","null","<p style='color:green; font-size:30px;'>Correct!</p>","null","","","","","","",""
"","","","","","html-keyboard-response","21","2.0.0","27360","pmp97ju3xbt","ono","sheep","22","female","yes","yes","5-ish","yes, 1 hour","null","<div style=""font-size:60px;"">+</div>","null","","","","","","",""
"","","","","","audio-keyboard-response","22","2.0.0","27963","pmp97ju3xbt","ono","sheep","22","female","yes","yes","5-ish","yes, 1 hour","null","stimuli/sounds/guitar_sound_A.wav","null","","","","","","",""
"","","","","","image-keyboard-response","23","2.0.0","28777","pmp97ju3xbt","ono","sheep","22","female","yes","yes","5-ish","yes, 1 hour","813","stimuli/pictures/guitar_acoustic_1.jpg","0","1","true","false","","","",""
"","","","","","audio-keyboard-response","24","2.0.0","29579","pmp97ju3xbt","ono","sheep","22","female","yes","yes","5-ish","yes, 1 hour","null","stimuli/sounds/buzz.wav","null","","","","","","",""
"","","","","","html-keyboard-response","25","2.0.0","30282","pmp97ju3xbt","ono","sheep","22","female","yes","yes","5-ish","yes, 1 hour","null","<p style='color:red; font-size:30px;'>Incorrect</p>","null","","","","","","",""
"","","","","","html-keyboard-response","26","2.0.0","32502","pmp97ju3xbt","ono","sheep","22","female","yes","yes","5-ish","yes, 1 hour","2219","<p>Practice complete. Press any key to begin the real experiment.</p>"," ","","","","","","",""
"","","","","","html-keyboard-response","27","2.0.0","35364","pmp97ju3xbt","ono","sheep","22","female","yes","yes","5-ish","yes, 1 hour","2861","<div style=""font-size:30px;"">Press space to start the trial</div>"," ","","","","","","",""
"","","","","","html-keyboard-response","28","2.0.0","35615","pmp97ju3xbt","ono","sheep","22","female","yes","yes","5-ish","yes, 1 hour","null","<div style=""font-size:60px;"">+</div>","null","","","","","","",""
"","","","","","audio-keyboard-response","29","2.0.0","36224","pmp97ju3xbt","ono","sheep","22","female","yes","yes","5-ish","yes, 1 hour","null","stimuli/sounds/hiccup_sound_A.wav","null","","","","","","",""
"","","","","","html-keyboard-response","30","2.0.0","37227","pmp97ju3xbt","ono","sheep","22","female","yes","yes","5-ish","yes, 1 hour","null","","null","","","","","","",""
"","","","","","image-keyboard-response","31","2.0.0","38110","pmp97ju3xbt","ono","sheep","22","female","yes","yes","5-ish","yes, 1 hour","882","stimuli/pictures/motor_harley_2.jpg","0","0","","true","no","sound","stimuli/sounds/hiccup_sound_A.wav",""
"","","","","","audio-keyboard-response","32","2.0.0","39113","pmp97ju3xbt","ono","sheep","22","female","yes","yes","5-ish","yes, 1 hour","null","stimuli/sounds/bleep.wav","null","","","","","","",""
"","","","","","html-keyboard-response","33","2.0.0","41885","pmp97ju3xbt","ono","sheep","22","female","yes","yes","5-ish","yes, 1 hour","2670","<div style=""font-size:30px;"">Press space to start the trial</div>"," ","","","","","","",""
"","","","","","html-keyboard-response","34","2.0.0","42137","pmp97ju3xbt","ono","sheep","22","female","yes","yes","5-ish","yes, 1 hour","null","<div style=""font-size:60px;"">+</div>","null","","","","","","",""
"","","","","","audio-keyboard-response","35","2.0.0","42741","pmp97ju3xbt","ono","sheep","22","female","yes","yes","5-ish","yes, 1 hour","null","stimuli/sounds/motor_sound_B.wav","null","","","","","","",""
"","","","","","html-keyboard-response","36","2.0.0","43744","pmp97ju3xbt","ono","sheep","22","female","yes","yes","5-ish","yes, 1 hour","null","","null","","","","","","",""
"","","","","","image-keyboard-response","37","2.0.0","44236","pmp97ju3xbt","ono","sheep","22","female","yes","yes","5-ish","yes, 1 hour","491","stimuli/pictures/motor_harley_1.jpg","1","1","","true","yes","sound","stimuli/sounds/motor_sound_B.wav",""
"","","","","","audio-keyboard-response","38","2.0.0","45239","pmp97ju3xbt","ono","sheep","22","female","yes","yes","5-ish","yes, 1 hour","null","stimuli/sounds/bleep.wav","null","","","","","","",""
"","","","","","html-keyboard-response","39","2.0.0","46127","pmp97ju3xbt","ono","sheep","22","female","yes","yes","5-ish","yes, 1 hour","787","<div style=""font-size:30px;"">Press space to start the trial</div>"," ","","","","","","",""
"","","","","","html-keyboard-response","40","2.0.0","46379","pmp97ju3xbt","ono","sheep","22","female","yes","yes","5-ish","yes, 1 hour","null","<div style=""font-size:60px;"">+</div>","null","","","","","","",""
"","","","","","audio-keyboard-response","41","2.0.0","46986","pmp97ju3xbt","ono","sheep","22","female","yes","yes","5-ish","yes, 1 hour","null","stimuli/sounds/hiccup_label_B.wav","null","","","","","","",""
"","","","","","html-keyboard-response","42","2.0.0","47989","pmp97ju3xbt","ono","sheep","22","female","yes","yes","5-ish","yes, 1 hour","null","","null","","","","","","",""
"","","","","","image-keyboard-response","43","2.0.0","48645","pmp97ju3xbt","ono","sheep","22","female","yes","yes","5-ish","yes, 1 hour","654","stimuli/pictures/hiccup_wom_1.jpg","1","1","","true","yes","sound","stimuli/sounds/hiccup_label_B.wav",""
"","","","","","audio-keyboard-response","44","2.0.0","49649","pmp97ju3xbt","ono","sheep","22","female","yes","yes","5-ish","yes, 1 hour","null","stimuli/sounds/bleep.wav","null","","","","","","",""
"","","","","","html-keyboard-response","45","2.0.0","50363","pmp97ju3xbt","ono","sheep","22","female","yes","yes","5-ish","yes, 1 hour","612","<div style=""font-size:30px;"">Press space to start the trial</div>"," ","","","","","","",""
"","","","","","html-keyboard-response","46","2.0.0","50615","pmp97ju3xbt","ono","sheep","22","female","yes","yes","5-ish","yes, 1 hour","null","<div style=""font-size:60px;"">+</div>","null","","","","","","",""
"","","","","","audio-keyboard-response","47","2.0.0","51215","pmp97ju3xbt","ono","sheep","22","female","yes","yes","5-ish","yes, 1 hour","null","stimuli/sounds/dog_sound_B.wav","null","","","","","","",""
"","","","","","html-keyboard-response","48","2.0.0","52218","pmp97ju3xbt","ono","sheep","22","female","yes","yes","5-ish","yes, 1 hour","null","","null","","","","","","",""
"","","","","","image-keyboard-response","49","2.0.0","52712","pmp97ju3xbt","ono","sheep","22","female","yes","yes","5-ish","yes, 1 hour","492","stimuli/pictures/motor_dirt_1.jpg","0","0","","true","no","sound","stimuli/sounds/dog_sound_B.wav",""
"","","","","","audio-keyboard-response","50","2.0.0","53715","pmp97ju3xbt","ono","sheep","22","female","yes","yes","5-ish","yes, 1 hour","null","stimuli/sounds/bleep.wav","null","","","","","","",""
"","","","","","html-keyboard-response","51","2.0.0","54594","pmp97ju3xbt","ono","sheep","22","female","yes","yes","5-ish","yes, 1 hour","777","<div style=""font-size:30px;"">Press space to start the trial</div>"," ","","","","","","",""
"","","","","","html-keyboard-response","52","2.0.0","54846","pmp97ju3xbt","ono","sheep","22","female","yes","yes","5-ish","yes, 1 hour","null","<div style=""font-size:60px;"">+</div>","null","","","","","","",""
"","","","","","audio-keyboard-response","53","2.0.0","55445","pmp97ju3xbt","ono","sheep","22","female","yes","yes","5-ish","yes, 1 hour","null","stimuli/sounds/motor_label_A.wav","null","","","","","","",""
"","","","","","html-keyboard-response","54","2.0.0","56447","pmp97ju3xbt","ono","sheep","22","female","yes","yes","5-ish","yes, 1 hour","null","","null","","","","","","",""
"","","","","","image-keyboard-response","55","2.0.0","56918","pmp97ju3xbt","ono","sheep","22","female","yes","yes","5-ish","yes, 1 hour","469","stimuli/pictures/motor_harley_1.jpg","1","1","","true","yes","sound","stimuli/sounds/motor_label_A.wav",""
"","","","","","audio-keyboard-response","56","2.0.0","57921","pmp97ju3xbt","ono","sheep","22","female","yes","yes","5-ish","yes, 1 hour","null","stimuli/sounds/bleep.wav","null","","","","","","",""
"","","","","","html-keyboard-response","57","2.0.0","58523","pmp97ju3xbt","ono","sheep","22","female","yes","yes","5-ish","yes, 1 hour","500","<div style=""font-size:30px;"">Press space to start the trial</div>"," ","","","","","","",""
"","","","","","html-keyboard-response","58","2.0.0","58776","pmp97ju3xbt","ono","sheep","22","female","yes","yes","5-ish","yes, 1 hour","null","<div style=""font-size:60px;"">+</div>","null","","","","","","",""
"","","","","","audio-keyboard-response","59","2.0.0","59439","pmp97ju3xbt","ono","sheep","22","female","yes","yes","5-ish","yes, 1 hour","null","stimuli/sounds/cough_sound_A.wav","null","","","","","","",""
"","","","","","html-keyboard-response","60","2.0.0","60442","pmp97ju3xbt","ono","sheep","22","female","yes","yes","5-ish","yes, 1 hour","null","","null","","","","","","",""
"","","","","","image-keyboard-response","61","2.0.0","61128","pmp97ju3xbt","ono","sheep","22","female","yes","yes","5-ish","yes, 1 hour","684","stimuli/pictures/dog_rott_1.jpg","0","0","","true","no","sound","stimuli/sounds/cough_sound_A.wav",""
"","","","","","audio-keyboard-response","62","2.0.0","62131","pmp97ju3xbt","ono","sheep","22","female","yes","yes","5-ish","yes, 1 hour","null","stimuli/sounds/bleep.wav","null","","","","","","",""
"","","","","","html-keyboard-response","63","2.0.0","62790","pmp97ju3xbt","ono","sheep","22","female","yes","yes","5-ish","yes, 1 hour","557","<div style=""font-size:30px;"">Press space to start the trial</div>"," ","","","","","","",""
"","","","","","html-keyboard-response","64","2.0.0","63043","pmp97ju3xbt","ono","sheep","22","female","yes","yes","5-ish","yes, 1 hour","null","<div style=""font-size:60px;"">+</div>","null","","","","","","",""
"","","","","","audio-keyboard-response","65","2.0.0","63642","pmp97ju3xbt","ono","sheep","22","female","yes","yes","5-ish","yes, 1 hour","null","stimuli/sounds/hiccup_sound_B.wav","null","","","","","","",""
"","","","","","html-keyboard-response","66","2.0.0","64644","pmp97ju3xbt","ono","sheep","22","female","yes","yes","5-ish","yes, 1 hour","null","","null","","","","","","",""
"","","","","","image-keyboard-response","67","2.0.0","65149","pmp97ju3xbt","ono","sheep","22","female","yes","yes","5-ish","yes, 1 hour","503","stimuli/pictures/hiccup_man_2.jpg","1","1","","true","yes","sound","stimuli/sounds/hiccup_sound_B.wav",""
"","","","","","audio-keyboard-response","68","2.0.0","66152","pmp97ju3xbt","ono","sheep","22","female","yes","yes","5-ish","yes, 1 hour","null","stimuli/sounds/bleep.wav","null","","","","","","",""
"","","","","","html-keyboard-response","69","2.0.0","66746","pmp97ju3xbt","ono","sheep","22","female","yes","yes","5-ish","yes, 1 hour","491","<div style=""font-size:30px;"">Press space to start the trial</div>"," ","","","","","","",""
"","","","","","html-keyboard-response","70","2.0.0","66997","pmp97ju3xbt","ono","sheep","22","female","yes","yes","5-ish","yes, 1 hour","null","<div style=""font-size:60px;"">+</div>","null","","","","","","",""
"","","","","","audio-keyboard-response","71","2.0.0","67599","pmp97ju3xbt","ono","sheep","22","female","yes","yes","5-ish","yes, 1 hour","null","stimuli/sounds/dog_label_A.wav","null","","","","","","",""
"","","","","","html-keyboard-response","72","2.0.0","68602","pmp97ju3xbt","ono","sheep","22","female","yes","yes","5-ish","yes, 1 hour","null","","null","","","","","","",""
"","","","","","image-keyboard-response","73","2.0.0","69113","pmp97ju3xbt","ono","sheep","22","female","yes","yes","5-ish","yes, 1 hour","510","stimuli/pictures/dog_york_1.jpg","1","1","","true","yes","sound","stimuli/sounds/dog_label_A.wav",""
"","","","","","audio-keyboard-response","74","2.0.0","70116","pmp97ju3xbt","ono","sheep","22","female","yes","yes","5-ish","yes, 1 hour","null","stimuli/sounds/bleep.wav","null","","","","","","",""
"","","","","","html-keyboard-response","75","2.0.0","70869","pmp97ju3xbt","ono","sheep","22","female","yes","yes","5-ish","yes, 1 hour","651","<div style=""font-size:30px;"">Press space to start the trial</div>"," ","","","","","","",""
"","","","","","html-keyboard-response","76","2.0.0","71122","pmp97ju3xbt","ono","sheep","22","female","yes","yes","5-ish","yes, 1 hour","null","<div style=""font-size:60px;"">+</div>","null","","","","","","",""
"","","","","","audio-keyboard-response","77","2.0.0","71754","pmp97ju3xbt","ono","sheep","22","female","yes","yes","5-ish","yes, 1 hour","null","stimuli/sounds/cough_label_A.wav","null","","","","","","",""
"","","","","","html-keyboard-response","78","2.0.0","72756","pmp97ju3xbt","ono","sheep","22","female","yes","yes","5-ish","yes, 1 hour","null","","null","","","","","","",""
"","","","","","image-keyboard-response","79","2.0.0","73013","pmp97ju3xbt","ono","sheep","22","female","yes","yes","5-ish","yes, 1 hour","254","stimuli/pictures/motor_harley_2.jpg","1","0","","false","no","sound","stimuli/sounds/cough_label_A.wav",""
"","","","","","audio-keyboard-response","80","2.0.0","74014","pmp97ju3xbt","ono","sheep","22","female","yes","yes","5-ish","yes, 1 hour","null","stimuli/sounds/buzz.wav","null","","","","","","",""
"","","","","","html-keyboard-response","81","2.0.0","74666","pmp97ju3xbt","ono","sheep","22","female","yes","yes","5-ish","yes, 1 hour","549","<div style=""font-size:30px;"">Press space to start the trial</div>"," ","","","","","","",""
"","","","","","html-keyboard-response","82","2.0.0","74918","pmp97ju3xbt","ono","sheep","22","female","yes","yes","5-ish","yes, 1 hour","null","<div style=""font-size:60px;"">+</div>","null","","","","","","",""
"","","","","","audio-keyboard-response","83","2.0.0","75519","pmp97ju3xbt","ono","sheep","22","female","yes","yes","5-ish","yes, 1 hour","null","stimuli/sounds/dog_sound_B.wav","null","","","","","","",""
"","","","","","html-keyboard-response","84","2.0.0","76522","pmp97ju3xbt","ono","sheep","22","female","yes","yes","5-ish","yes, 1 hour","null","","null","","","","","","",""
"","","","","","image-keyboard-response","85","2.0.0","77123","pmp97ju3xbt","ono","sheep","22","female","yes","yes","5-ish","yes, 1 hour","599","stimuli/pictures/dog_rott_1.jpg","1","1","","true","no","sound","stimuli/sounds/dog_sound_B.wav",""
"","","","","","audio-keyboard-response","86","2.0.0","78125","pmp97ju3xbt","ono","sheep","22","female","yes","yes","5-ish","yes, 1 hour","null","stimuli/sounds/bleep.wav","null","","","","","","",""
"","","","","","html-keyboard-response","87","2.0.0","78764","pmp97ju3xbt","ono","sheep","22","female","yes","yes","5-ish","yes, 1 hour","536","<div style=""font-size:30px;"">Press space to start the trial</div>"," ","","","","","","",""
"","","","","","html-keyboard-response","88","2.0.0","79016","pmp97ju3xbt","ono","sheep","22","female","yes","yes","5-ish","yes, 1 hour","null","<div style=""font-size:60px;"">+</div>","null","","","","","","",""
"","","","","","audio-keyboard-response","89","2.0.0","79626","pmp97ju3xbt","ono","sheep","22","female","yes","yes","5-ish","yes, 1 hour","null","stimuli/sounds/drop_sound_B.wav","null","","","","","","",""
"","","","","","html-keyboard-response","90","2.0.0","80629","pmp97ju3xbt","ono","sheep","22","female","yes","yes","5-ish","yes, 1 hour","null","","null","","","","","","",""
"","","","","","image-keyboard-response","91","2.0.0","81718","pmp97ju3xbt","ono","sheep","22","female","yes","yes","5-ish","yes, 1 hour","1088","stimuli/pictures/dog_rott_1.jpg","0","0","","true","no","sound","stimuli/sounds/drop_sound_B.wav",""
"","","","","","audio-keyboard-response","92","2.0.0","82722","pmp97ju3xbt","ono","sheep","22","female","yes","yes","5-ish","yes, 1 hour","null","stimuli/sounds/bleep.wav","null","","","","","","",""
"","","","","","html-keyboard-response","93","2.0.0","83285","pmp97ju3xbt","ono","sheep","22","female","yes","yes","5-ish","yes, 1 hour","461","<div style=""font-size:30px;"">Press space to start the trial</div>"," ","","","","","","",""
"","","","","","html-keyboard-response","94","2.0.0","83537","pmp97ju3xbt","ono","sheep","22","female","yes","yes","5-ish","yes, 1 hour","null","<div style=""font-size:60px;"">+</div>","null","","","","","","",""
"","","","","","audio-keyboard-response","95","2.0.0","84138","pmp97ju3xbt","ono","sheep","22","female","yes","yes","5-ish","yes, 1 hour","null","stimuli/sounds/dog_label_A.wav","null","","","","","","",""
"","","","","","html-keyboard-response","96","2.0.0","85141","pmp97ju3xbt","ono","sheep","22","female","yes","yes","5-ish","yes, 1 hour","null","","null","","","","","","",""
"","","","","","image-keyboard-response","97","2.0.0","85621","pmp97ju3xbt","ono","sheep","22","female","yes","yes","5-ish","yes, 1 hour","478","stimuli/pictures/dog_rott_2.jpg","1","1","","true","yes","sound","stimuli/sounds/dog_label_A.wav",""
"","","","","","audio-keyboard-response","98","2.0.0","86624","pmp97ju3xbt","ono","sheep","22","female","yes","yes","5-ish","yes, 1 hour","null","stimuli/sounds/bleep.wav","null","","","","","","",""
"","","","","","html-keyboard-response","99","2.0.0","87649","pmp97ju3xbt","ono","sheep","22","female","yes","yes","5-ish","yes, 1 hour","922","<div style=""font-size:30px;"">Press space to start the trial</div>"," ","","","","","","",""
"","","","","","html-keyboard-response","100","2.0.0","87901","pmp97ju3xbt","ono","sheep","22","female","yes","yes","5-ish","yes, 1 hour","null","<div style=""font-size:60px;"">+</div>","null","","","","","","",""
"","","","","","audio-keyboard-response","101","2.0.0","88580","pmp97ju3xbt","ono","sheep","22","female","yes","yes","5-ish","yes, 1 hour","null","stimuli/sounds/cough_sound_B.wav","null","","","","","","",""
"","","","","","html-keyboard-response","102","2.0.0","89583","pmp97ju3xbt","ono","sheep","22","female","yes","yes","5-ish","yes, 1 hour","null","","null","","","","","","",""
"","","","","","image-keyboard-response","103","2.0.0","90092","pmp97ju3xbt","ono","sheep","22","female","yes","yes","5-ish","yes, 1 hour","508","stimuli/pictures/hiccup_wom_2.jpg","1","0","","false","no","sound","stimuli/sounds/cough_sound_B.wav",""
"","","","","","audio-keyboard-response","104","2.0.0","91094","pmp97ju3xbt","ono","sheep","22","female","yes","yes","5-ish","yes, 1 hour","null","stimuli/sounds/buzz.wav","null","","","","","","",""
"","","","","","html-keyboard-response","105","2.0.0","91855","pmp97ju3xbt","ono","sheep","22","female","yes","yes","5-ish","yes, 1 hour","658","<div style=""font-size:30px;"">Press space to start the trial</div>"," ","","","","","","",""
"","","","","","html-keyboard-response","106","2.0.0","92107","pmp97ju3xbt","ono","sheep","22","female","yes","yes","5-ish","yes, 1 hour","null","<div style=""font-size:60px;"">+</div>","null","","","","","","",""
"","","","","","audio-keyboard-response","107","2.0.0","92708","pmp97ju3xbt","ono","sheep","22","female","yes","yes","5-ish","yes, 1 hour","null","stimuli/sounds/motor_sound_A.wav","null","","","","","","",""
"","","","","","html-keyboard-response","108","2.0.0","93710","pmp97ju3xbt","ono","sheep","22","female","yes","yes","5-ish","yes, 1 hour","null","","null","","","","","","",""
"","","","","","image-keyboard-response","109","2.0.0","94122","pmp97ju3xbt","ono","sheep","22","female","yes","yes","5-ish","yes, 1 hour","410","stimuli/pictures/motor_dirt_2.jpg","1","1","","true","yes","sound","stimuli/sounds/motor_sound_A.wav",""
"","","","","","audio-keyboard-response","110","2.0.0","95124","pmp97ju3xbt","ono","sheep","22","female","yes","yes","5-ish","yes, 1 hour","null","stimuli/sounds/bleep.wav","null","","","","","","",""
"","","","","","html-keyboard-response","111","2.0.0","95687","pmp97ju3xbt","ono","sheep","22","female","yes","yes","5-ish","yes, 1 hour","460","<div style=""font-size:30px;"">Press space to start the trial</div>"," ","","","","","","",""
"","","","","","html-keyboard-response","112","2.0.0","95940","pmp97ju3xbt","ono","sheep","22","female","yes","yes","5-ish","yes, 1 hour","null","<div style=""font-size:60px;"">+</div>","null","","","","","","",""
"","","","","","audio-keyboard-response","113","2.0.0","96607","pmp97ju3xbt","ono","sheep","22","female","yes","yes","5-ish","yes, 1 hour","null","stimuli/sounds/cough_sound_A.wav","null","","","","","","",""
"","","","","","html-keyboard-response","114","2.0.0","97608","pmp97ju3xbt","ono","sheep","22","female","yes","yes","5-ish","yes, 1 hour","null","","null","","","","","","",""
"","","","","","image-keyboard-response","115","2.0.0","98161","pmp97ju3xbt","ono","sheep","22","female","yes","yes","5-ish","yes, 1 hour","551","stimuli/pictures/cough_man_2.jpg","1","1","","true","no","sound","stimuli/sounds/cough_sound_A.wav",""
"","","","","","audio-keyboard-response","116","2.0.0","99163","pmp97ju3xbt","ono","sheep","22","female","yes","yes","5-ish","yes, 1 hour","null","stimuli/sounds/bleep.wav","null","","","","","","",""
"","","","","","html-keyboard-response","117","2.0.0","99993","pmp97ju3xbt","ono","sheep","22","female","yes","yes","5-ish","yes, 1 hour","727","<div style=""font-size:30px;"">Press space to start the trial</div>"," ","","","","","","",""
"","","","","","html-keyboard-response","118","2.0.0","100245","pmp97ju3xbt","ono","sheep","22","female","yes","yes","5-ish","yes, 1 hour","null","<div style=""font-size:60px;"">+</div>","null","","","","","","",""
"","","","","","audio-keyboard-response","119","2.0.0","100847","pmp97ju3xbt","ono","sheep","22","female","yes","yes","5-ish","yes, 1 hour","null","stimuli/sounds/dog_sound_A.wav","null","","","","","","",""
"","","","","","html-keyboard-response","120","2.0.0","101848","pmp97ju3xbt","ono","sheep","22","female","yes","yes","5-ish","yes, 1 hour","null","","null","","","","","","",""
"","","","","","image-keyboard-response","121","2.0.0","102171","pmp97ju3xbt","ono","sheep","22","female","yes","yes","5-ish","yes, 1 hour","321","stimuli/pictures/dog_rott_2.jpg","1","1","","true","yes","sound","stimuli/sounds/dog_sound_A.wav",""
"","","","","","audio-keyboard-response","122","2.0.0","103173","pmp97ju3xbt","ono","sheep","22","female","yes","yes","5-ish","yes, 1 hour","null","stimuli/sounds/bleep.wav","null","","","","","","",""
"","","","","","html-keyboard-response","123","2.0.0","103913","pmp97ju3xbt","ono","sheep","22","female","yes","yes","5-ish","yes, 1 hour","638","<div style=""font-size:30px;"">Press space to start the trial</div>"," ","","","","","","",""
"","","","","","html-keyboard-response","124","2.0.0","104166","pmp97ju3xbt","ono","sheep","22","female","yes","yes","5-ish","yes, 1 hour","null","<div style=""font-size:60px;"">+</div>","null","","","","","","",""
"","","","","","audio-keyboard-response","125","2.0.0","104767","pmp97ju3xbt","ono","sheep","22","female","yes","yes","5-ish","yes, 1 hour","null","stimuli/sounds/motor_label_A.wav","null","","","","","","",""
"","","","","","html-keyboard-response","126","2.0.0","105770","pmp97ju3xbt","ono","sheep","22","female","yes","yes","5-ish","yes, 1 hour","null","","null","","","","","","",""
"","","","","","image-keyboard-response","127","2.0.0","106643","pmp97ju3xbt","ono","sheep","22","female","yes","yes","5-ish","yes, 1 hour","872","stimuli/pictures/dog_rott_1.jpg","0","0","","true","no","sound","stimuli/sounds/motor_label_A.wav",""
"","","","","","audio-keyboard-response","128","2.0.0","107646","pmp97ju3xbt","ono","sheep","22","female","yes","yes","5-ish","yes, 1 hour","null","stimuli/sounds/bleep.wav","null","","","","","","",""
"","","","","","html-keyboard-response","129","2.0.0","108138","pmp97ju3xbt","ono","sheep","22","female","yes","yes","5-ish","yes, 1 hour","390","<div style=""font-size:30px;"">Press space to start the trial</div>"," ","","","","","","",""
"","","","","","html-keyboard-response","130","2.0.0","108391","pmp97ju3xbt","ono","sheep","22","female","yes","yes","5-ish","yes, 1 hour","null","<div style=""font-size:60px;"">+</div>","null","","","","","","",""
"","","","","","audio-keyboard-response","131","2.0.0","108990","pmp97ju3xbt","ono","sheep","22","female","yes","yes","5-ish","yes, 1 hour","null","stimuli/sounds/motor_label_A.wav","null","","","","","","",""
"","","","","","html-keyboard-response","132","2.0.0","109993","pmp97ju3xbt","ono","sheep","22","female","yes","yes","5-ish","yes, 1 hour","null","","null","","","","","","",""
"","","","","","image-keyboard-response","133","2.0.0","110464","pmp97ju3xbt","ono","sheep","22","female","yes","yes","5-ish","yes, 1 hour","469","stimuli/pictures/motor_harley_2.jpg","1","1","","true","yes","sound","stimuli/sounds/motor_label_A.wav",""
"","","","","","audio-keyboard-response","134","2.0.0","111466","pmp97ju3xbt","ono","sheep","22","female","yes","yes","5-ish","yes, 1 hour","null","stimuli/sounds/bleep.wav","null","","","","","","",""
"","","","","","html-keyboard-response","135","2.0.0","112135","pmp97ju3xbt","ono","sheep","22","female","yes","yes","5-ish","yes, 1 hour","566","<div style=""font-size:30px;"">Press space to start the trial</div>"," ","","","","","","",""
"","","","","","html-keyboard-response","136","2.0.0","112387","pmp97ju3xbt","ono","sheep","22","female","yes","yes","5-ish","yes, 1 hour","null","<div style=""font-size:60px;"">+</div>","null","","","","","","",""
"","","","","","audio-keyboard-response","137","2.0.0","113001","pmp97ju3xbt","ono","sheep","22","female","yes","yes","5-ish","yes, 1 hour","null","stimuli/sounds/drop_label_B.wav","null","","","","","","",""
"","","","","","html-keyboard-response","138","2.0.0","114003","pmp97ju3xbt","ono","sheep","22","female","yes","yes","5-ish","yes, 1 hour","null","","null","","","","","","",""
"","","","","","image-keyboard-response","139","2.0.0","114864","pmp97ju3xbt","ono","sheep","22","female","yes","yes","5-ish","yes, 1 hour","859","stimuli/pictures/motor_harley_1.jpg","0","0","","true","no","sound","stimuli/sounds/drop_label_B.wav",""
"","","","","","audio-keyboard-response","140","2.0.0","115866","pmp97ju3xbt","ono","sheep","22","female","yes","yes","5-ish","yes, 1 hour","null","stimuli/sounds/bleep.wav","null","","","","","","",""
"","","","","","html-keyboard-response","141","2.0.0","116399","pmp97ju3xbt","ono","sheep","22","female","yes","yes","5-ish","yes, 1 hour","431","<div style=""font-size:30px;"">Press space to start the trial</div>"," ","","","","","","",""
"","","","","","html-keyboard-response","142","2.0.0","116652","pmp97ju3xbt","ono","sheep","22","female","yes","yes","5-ish","yes, 1 hour","null","<div style=""font-size:60px;"">+</div>","null","","","","","","",""
"","","","","","audio-keyboard-response","143","2.0.0","117198","pmp97ju3xbt","ono","sheep","22","female","yes","yes","5-ish","yes, 1 hour","null","stimuli/sounds/drop_label_A.wav","null","","","","","","",""
"","","","","","html-keyboard-response","144","2.0.0","118201","pmp97ju3xbt","ono","sheep","22","female","yes","yes","5-ish","yes, 1 hour","null","","null","","","","","","",""
"","","","","","image-keyboard-response","145","2.0.0","118940","pmp97ju3xbt","ono","sheep","22","female","yes","yes","5-ish","yes, 1 hour","737","stimuli/pictures/drop_single_1.jpg","1","1","","true","yes","sound","stimuli/sounds/drop_label_A.wav",""
"","","","","","audio-keyboard-response","146","2.0.0","119942","pmp97ju3xbt","ono","sheep","22","female","yes","yes","5-ish","yes, 1 hour","null","stimuli/sounds/bleep.wav","null","","","","","","",""
"","","","","","html-keyboard-response","147","2.0.0","123395","pmp97ju3xbt","ono","sheep","22","female","yes","yes","5-ish","yes, 1 hour","3351","<p>You have completed a block. Press R when you are ready to continue</p>","r","","","","","","",""
"","","","","","html-keyboard-response","148","2.0.0","124185","pmp97ju3xbt","ono","sheep","22","female","yes","yes","5-ish","yes, 1 hour","788","<div style=""font-size:30px;"">Press space to start the trial</div>"," ","","","","","","",""
"","","","","","html-keyboard-response","149","2.0.0","124438","pmp97ju3xbt","ono","sheep","22","female","yes","yes","5-ish","yes, 1 hour","null","<div style=""font-size:60px;"">+</div>","null","","","","","","",""
"","","","","","audio-keyboard-response","150","2.0.0","125043","pmp97ju3xbt","ono","sheep","22","female","yes","yes","5-ish","yes, 1 hour","null","stimuli/sounds/hiccup_sound_A.wav","null","","","","","","",""
"","","","","","html-keyboard-response","151","2.0.0","126046","pmp97ju3xbt","ono","sheep","22","female","yes","yes","5-ish","yes, 1 hour","null","","null","","","","","","",""
"","","","","","image-keyboard-response","152","2.0.0","126606","pmp97ju3xbt","ono","sheep","22","female","yes","yes","5-ish","yes, 1 hour","558","stimuli/pictures/motor_harley_1.jpg","0","0","","true","no","sound","stimuli/sounds/hiccup_sound_A.wav",""
"","","","","","audio-keyboard-response","153","2.0.0","127608","pmp97ju3xbt","ono","sheep","22","female","yes","yes","5-ish","yes, 1 hour","null","stimuli/sounds/bleep.wav","null","","","","","","",""
"","","","","","html-keyboard-response","154","2.0.0","128338","pmp97ju3xbt","ono","sheep","22","female","yes","yes","5-ish","yes, 1 hour","628","<div style=""font-size:30px;"">Press space to start the trial</div>"," ","","","","","","",""
"","","","","","html-keyboard-response","155","2.0.0","128591","pmp97ju3xbt","ono","sheep","22","female","yes","yes","5-ish","yes, 1 hour","null","<div style=""font-size:60px;"">+</div>","null","","","","","","",""
"","","","","","audio-keyboard-response","156","2.0.0","129198","pmp97ju3xbt","ono","sheep","22","female","yes","yes","5-ish","yes, 1 hour","null","stimuli/sounds/cough_label_B.wav","null","","","","","","",""
"","","","","","html-keyboard-response","157","2.0.0","130201","pmp97ju3xbt","ono","sheep","22","female","yes","yes","5-ish","yes, 1 hour","null","","null","","","","","","",""
"","","","","","image-keyboard-response","158","2.0.0","130600","pmp97ju3xbt","ono","sheep","22","female","yes","yes","5-ish","yes, 1 hour","397","stimuli/pictures/cough_wom_2.jpg","1","1","","true","yes","sound","stimuli/sounds/cough_label_B.wav",""
"","","","","","audio-keyboard-response","159","2.0.0","131603","pmp97ju3xbt","ono","sheep","22","female","yes","yes","5-ish","yes, 1 hour","null","stimuli/sounds/bleep.wav","null","","","","","","",""
"","","","","","html-keyboard-response","160","2.0.0","132274","pmp97ju3xbt","ono","sheep","22","female","yes","yes","5-ish","yes, 1 hour","569","<div style=""font-size:30px;"">Press space to start the trial</div>"," ","","","","","","",""
"","","","","","html-keyboard-response","161","2.0.0","132525","pmp97ju3xbt","ono","sheep","22","female","yes","yes","5-ish","yes, 1 hour","null","<div style=""font-size:60px;"">+</div>","null","","","","","","",""
"","","","","","audio-keyboard-response","162","2.0.0","133129","pmp97ju3xbt","ono","sheep","22","female","yes","yes","5-ish","yes, 1 hour","null","stimuli/sounds/dog_sound_B.wav","null","","","","","","",""
"","","","","","html-keyboard-response","163","2.0.0","134131","pmp97ju3xbt","ono","sheep","22","female","yes","yes","5-ish","yes, 1 hour","null","","null","","","","","","",""
"","","","","","image-keyboard-response","164","2.0.0","134568","pmp97ju3xbt","ono","sheep","22","female","yes","yes","5-ish","yes, 1 hour","435","stimuli/pictures/dog_york_1.jpg","1","1","","true","yes","sound","stimuli/sounds/dog_sound_B.wav",""
"","","","","","audio-keyboard-response","165","2.0.0","135571","pmp97ju3xbt","ono","sheep","22","female","yes","yes","5-ish","yes, 1 hour","null","stimuli/sounds/bleep.wav","null","","","","","","",""
"","","","","","html-keyboard-response","166","2.0.0","136320","pmp97ju3xbt","ono","sheep","22","female","yes","yes","5-ish","yes, 1 hour","647","<div style=""font-size:30px;"">Press space to start the trial</div>"," ","","","","","","",""
"","","","","","html-keyboard-response","167","2.0.0","136572","pmp97ju3xbt","ono","sheep","22","female","yes","yes","5-ish","yes, 1 hour","null","<div style=""font-size:60px;"">+</div>","null","","","","","","",""
"","","","","","audio-keyboard-response","168","2.0.0","137171","pmp97ju3xbt","ono","sheep","22","female","yes","yes","5-ish","yes, 1 hour","null","stimuli/sounds/hiccup_sound_B.wav","null","","","","","","",""
"","","","","","html-keyboard-response","169","2.0.0","138175","pmp97ju3xbt","ono","sheep","22","female","yes","yes","5-ish","yes, 1 hour","null","","null","","","","","","",""
"","","","","","image-keyboard-response","170","2.0.0","138778","pmp97ju3xbt","ono","sheep","22","female","yes","yes","5-ish","yes, 1 hour","602","stimuli/pictures/hiccup_man_1.jpg","1","1","","true","yes","sound","stimuli/sounds/hiccup_sound_B.wav",""
"","","","","","audio-keyboard-response","171","2.0.0","139780","pmp97ju3xbt","ono","sheep","22","female","yes","yes","5-ish","yes, 1 hour","null","stimuli/sounds/bleep.wav","null","","","","","","",""
"","","","","","html-keyboard-response","172","2.0.0","140380","pmp97ju3xbt","ono","sheep","22","female","yes","yes","5-ish","yes, 1 hour","497","<div style=""font-size:30px;"">Press space to start the trial</div>"," ","","","","","","",""
"","","","","","html-keyboard-response","173","2.0.0","140631","pmp97ju3xbt","ono","sheep","22","female","yes","yes","5-ish","yes, 1 hour","null","<div style=""font-size:60px;"">+</div>","null","","","","","","",""
"","","","","","audio-keyboard-response","174","2.0.0","141230","pmp97ju3xbt","ono","sheep","22","female","yes","yes","5-ish","yes, 1 hour","null","stimuli/sounds/hiccup_sound_B.wav","null","","","","","","",""
"","","","","","html-keyboard-response","175","2.0.0","142233","pmp97ju3xbt","ono","sheep","22","female","yes","yes","5-ish","yes, 1 hour","null","","null","","","","","","",""
"","","","","","image-keyboard-response","176","2.0.0","142808","pmp97ju3xbt","ono","sheep","22","female","yes","yes","5-ish","yes, 1 hour","574","stimuli/pictures/drop_single_2.jpg","0","0","","true","no","sound","stimuli/sounds/hiccup_sound_B.wav",""
"","","","","","audio-keyboard-response","177","2.0.0","143811","pmp97ju3xbt","ono","sheep","22","female","yes","yes","5-ish","yes, 1 hour","null","stimuli/sounds/bleep.wav","null","","","","","","",""
"","","","","","html-keyboard-response","178","2.0.0","144463","pmp97ju3xbt","ono","sheep","22","female","yes","yes","5-ish","yes, 1 hour","550","<div style=""font-size:30px;"">Press space to start the trial</div>"," ","","","","","","",""
"","","","","","html-keyboard-response","179","2.0.0","144715","pmp97ju3xbt","ono","sheep","22","female","yes","yes","5-ish","yes, 1 hour","null","<div style=""font-size:60px;"">+</div>","null","","","","","","",""
"","","","","","audio-keyboard-response","180","2.0.0","145262","pmp97ju3xbt","ono","sheep","22","female","yes","yes","5-ish","yes, 1 hour","null","stimuli/sounds/drop_label_A.wav","null","","","","","","",""
"","","","","","html-keyboard-response","181","2.0.0","146264","pmp97ju3xbt","ono","sheep","22","female","yes","yes","5-ish","yes, 1 hour","null","","null","","","","","","",""
"","","","","","image-keyboard-response","182","2.0.0","146630","pmp97ju3xbt","ono","sheep","22","female","yes","yes","5-ish","yes, 1 hour","365","stimuli/pictures/drop_multi_1.jpg","1","1","","true","yes","sound","stimuli/sounds/drop_label_A.wav",""
"","","","","","audio-keyboard-response","183","2.0.0","147633","pmp97ju3xbt","ono","sheep","22","female","yes","yes","5-ish","yes, 1 hour","null","stimuli/sounds/bleep.wav","null","","","","","","",""
"","","","","","html-keyboard-response","184","2.0.0","148195","pmp97ju3xbt","ono","sheep","22","female","yes","yes","5-ish","yes, 1 hour","459","<div style=""font-size:30px;"">Press space to start the trial</div>"," ","","","","","","",""
"","","","","","html-keyboard-response","185","2.0.0","148448","pmp97ju3xbt","ono","sheep","22","female","yes","yes","5-ish","yes, 1 hour","null","<div style=""font-size:60px;"">+</div>","null","","","","","","",""
"","","","","","audio-keyboard-response","186","2.0.0","149048","pmp97ju3xbt","ono","sheep","22","female","yes","yes","5-ish","yes, 1 hour","null","stimuli/sounds/motor_sound_B.wav","null","","","","","","",""
"","","","","","html-keyboard-response","187","2.0.0","150051","pmp97ju3xbt","ono","sheep","22","female","yes","yes","5-ish","yes, 1 hour","null","","null","","","","","","",""
"","","","","","image-keyboard-response","188","2.0.0","150735","pmp97ju3xbt","ono","sheep","22","female","yes","yes","5-ish","yes, 1 hour","682","stimuli/pictures/motor_dirt_2.jpg","1","1","","true","no","sound","stimuli/sounds/motor_sound_B.wav",""
"","","","","","audio-keyboard-response","189","2.0.0","151737","pmp97ju3xbt","ono","sheep","22","female","yes","yes","5-ish","yes, 1 hour","null","stimuli/sounds/bleep.wav","null","","","","","","",""
"","","","","","html-keyboard-response","190","2.0.0","152890","pmp97ju3xbt","ono","sheep","22","female","yes","yes","5-ish","yes, 1 hour","1050","<div style=""font-size:30px;"">Press space to start the trial</div>"," ","","","","","","",""
"","","","","","html-keyboard-response","191","2.0.0","153142","pmp97ju3xbt","ono","sheep","22","female","yes","yes","5-ish","yes, 1 hour","null","<div style=""font-size:60px;"">+</div>","null","","","","","","",""
"","","","","","audio-keyboard-response","192","2.0.0","153688","pmp97ju3xbt","ono","sheep","22","female","yes","yes","5-ish","yes, 1 hour","null","stimuli/sounds/drop_label_A.wav","null","","","","","","",""
"","","","","","html-keyboard-response","193","2.0.0","154691","pmp97ju3xbt","ono","sheep","22","female","yes","yes","5-ish","yes, 1 hour","null","","null","","","","","","",""
"","","","","","image-keyboard-response","194","2.0.0","155423","pmp97ju3xbt","ono","sheep","22","female","yes","yes","5-ish","yes, 1 hour","730","stimuli/pictures/hiccup_wom_2.jpg","0","0","","true","no","sound","stimuli/sounds/drop_label_A.wav",""
"","","","","","audio-keyboard-response","195","2.0.0","156426","pmp97ju3xbt","ono","sheep","22","female","yes","yes","5-ish","yes, 1 hour","null","stimuli/sounds/bleep.wav","null","","","","","","",""
"","","","","","html-keyboard-response","196","2.0.0","157595","pmp97ju3xbt","ono","sheep","22","female","yes","yes","5-ish","yes, 1 hour","1066","<div style=""font-size:30px;"">Press space to start the trial</div>"," ","","","","","","",""
"","","","","","html-keyboard-response","197","2.0.0","157847","pmp97ju3xbt","ono","sheep","22","female","yes","yes","5-ish","yes, 1 hour","null","<div style=""font-size:60px;"">+</div>","null","","","","","","",""
"","","","","","audio-keyboard-response","198","2.0.0","158451","pmp97ju3xbt","ono","sheep","22","female","yes","yes","5-ish","yes, 1 hour","null","stimuli/sounds/dog_label_B.wav","null","","","","","","",""
"","","","","","html-keyboard-response","199","2.0.0","159453","pmp97ju3xbt","ono","sheep","22","female","yes","yes","5-ish","yes, 1 hour","null","","null","","","","","","",""
"","","","","","image-keyboard-response","200","2.0.0","160225","pmp97ju3xbt","ono","sheep","22","female","yes","yes","5-ish","yes, 1 hour","771","stimuli/pictures/dog_rott_2.jpg","1","1","","true","yes","sound","stimuli/sounds/dog_label_B.wav",""
"","","","","","audio-keyboard-response","201","2.0.0","161228","pmp97ju3xbt","ono","sheep","22","female","yes","yes","5-ish","yes, 1 hour","null","stimuli/sounds/bleep.wav","null","","","","","","",""
"","","","","","html-keyboard-response","202","2.0.0","161645","pmp97ju3xbt","ono","sheep","22","female","yes","yes","5-ish","yes, 1 hour","315","<div style=""font-size:30px;"">Press space to start the trial</div>"," ","","","","","","",""
"","","","","","html-keyboard-response","203","2.0.0","161898","pmp97ju3xbt","ono","sheep","22","female","yes","yes","5-ish","yes, 1 hour","null","<div style=""font-size:60px;"">+</div>","null","","","","","","",""
"","","","","","audio-keyboard-response","204","2.0.0","162504","pmp97ju3xbt","ono","sheep","22","female","yes","yes","5-ish","yes, 1 hour","null","stimuli/sounds/hiccup_sound_A.wav","null","","","","","","",""
"","","","","","html-keyboard-response","205","2.0.0","163507","pmp97ju3xbt","ono","sheep","22","female","yes","yes","5-ish","yes, 1 hour","null","","null","","","","","","",""
"","","","","","image-keyboard-response","206","2.0.0","164790","pmp97ju3xbt","ono","sheep","22","female","yes","yes","5-ish","yes, 1 hour","1281","stimuli/pictures/hiccup_man_2.jpg","1","1","","true","no","sound","stimuli/sounds/hiccup_sound_A.wav",""
"","","","","","audio-keyboard-response","207","2.0.0","165791","pmp97ju3xbt","ono","sheep","22","female","yes","yes","5-ish","yes, 1 hour","null","stimuli/sounds/bleep.wav","null","","","","","","",""
"","","","","","html-keyboard-response","208","2.0.0","166692","pmp97ju3xbt","ono","sheep","22","female","yes","yes","5-ish","yes, 1 hour","799","<div style=""font-size:30px;"">Press space to start the trial</div>"," ","","","","","","",""
"","","","","","html-keyboard-response","209","2.0.0","166945","pmp97ju3xbt","ono","sheep","22","female","yes","yes","5-ish","yes, 1 hour","null","<div style=""font-size:60px;"">+</div>","null","","","","","","",""
"","","","","","audio-keyboard-response","210","2.0.0","167480","pmp97ju3xbt","ono","sheep","22","female","yes","yes","5-ish","yes, 1 hour","null","stimuli/sounds/hiccup_label_A.wav","null","","","","","","",""
"","","","","","html-keyboard-response","211","2.0.0","168482","pmp97ju3xbt","ono","sheep","22","female","yes","yes","5-ish","yes, 1 hour","null","","null","","","","","","",""
"","","","","","image-keyboard-response","212","2.0.0","169215","pmp97ju3xbt","ono","sheep","22","female","yes","yes","5-ish","yes, 1 hour","731","stimuli/pictures/cough_wom_2.jpg","1","0","","false","no","sound","stimuli/sounds/hiccup_label_A.wav",""
"","","","","","audio-keyboard-response","213","2.0.0","170217","pmp97ju3xbt","ono","sheep","22","female","yes","yes","5-ish","yes, 1 hour","null","stimuli/sounds/buzz.wav","null","","","","","","",""
"","","","","","html-keyboard-response","214","2.0.0","171065","pmp97ju3xbt","ono","sheep","22","female","yes","yes","5-ish","yes, 1 hour","746","<div style=""font-size:30px;"">Press space to start the trial</div>"," ","","","","","","",""
"","","","","","html-keyboard-response","215","2.0.0","171318","pmp97ju3xbt","ono","sheep","22","female","yes","yes","5-ish","yes, 1 hour","null","<div style=""font-size:60px;"">+</div>","null","","","","","","",""
"","","","","","audio-keyboard-response","216","2.0.0","171901","pmp97ju3xbt","ono","sheep","22","female","yes","yes","5-ish","yes, 1 hour","null","stimuli/sounds/drop_sound_A.wav","null","","","","","","",""
"","","","","","html-keyboard-response","217","2.0.0","172904","pmp97ju3xbt","ono","sheep","22","female","yes","yes","5-ish","yes, 1 hour","null","","null","","","","","","",""
"","","","","","image-keyboard-response","218","2.0.0","173234","pmp97ju3xbt","ono","sheep","22","female","yes","yes","5-ish","yes, 1 hour","328","stimuli/pictures/cough_man_1.jpg","1","0","","false","no","sound","stimuli/sounds/drop_sound_A.wav",""
"","","","","","audio-keyboard-response","219","2.0.0","174237","pmp97ju3xbt","ono","sheep","22","female","yes","yes","5-ish","yes, 1 hour","null","stimuli/sounds/buzz.wav","null","","","","","","",""
"","","","","","html-keyboard-response","220","2.0.0","174966","pmp97ju3xbt","ono","sheep","22","female","yes","yes","5-ish","yes, 1 hour","627","<div style=""font-size:30px;"">Press space to start the trial</div>"," ","","","","","","",""
"","","","","","html-keyboard-response","221","2.0.0","175217","pmp97ju3xbt","ono","sheep","22","female","yes","yes","5-ish","yes, 1 hour","null","<div style=""font-size:60px;"">+</div>","null","","","","","","",""
"","","","","","audio-keyboard-response","222","2.0.0","175816","pmp97ju3xbt","ono","sheep","22","female","yes","yes","5-ish","yes, 1 hour","null","stimuli/sounds/dog_sound_A.wav","null","","","","","","",""
"","","","","","html-keyboard-response","223","2.0.0","176818","pmp97ju3xbt","ono","sheep","22","female","yes","yes","5-ish","yes, 1 hour","null","","null","","","","","","",""
"","","","","","image-keyboard-response","224","2.0.0","177420","pmp97ju3xbt","ono","sheep","22","female","yes","yes","5-ish","yes, 1 hour","600","stimuli/pictures/hiccup_wom_2.jpg","0","0","","true","no","sound","stimuli/sounds/dog_sound_A.wav",""
"","","","","","audio-keyboard-response","225","2.0.0","178423","pmp97ju3xbt","ono","sheep","22","female","yes","yes","5-ish","yes, 1 hour","null","stimuli/sounds/bleep.wav","null","","","","","","",""
"","","","","","html-keyboard-response","226","2.0.0","179280","pmp97ju3xbt","ono","sheep","22","female","yes","yes","5-ish","yes, 1 hour","754","<div style=""font-size:30px;"">Press space to start the trial</div>"," ","","","","","","",""
"","","","","","html-keyboard-response","227","2.0.0","179531","pmp97ju3xbt","ono","sheep","22","female","yes","yes","5-ish","yes, 1 hour","null","<div style=""font-size:60px;"">+</div>","null","","","","","","",""
"","","","","","audio-keyboard-response","228","2.0.0","180131","pmp97ju3xbt","ono","sheep","22","female","yes","yes","5-ish","yes, 1 hour","null","stimuli/sounds/dog_sound_B.wav","null","","","","","","",""
"","","","","","html-keyboard-response","229","2.0.0","181134","pmp97ju3xbt","ono","sheep","22","female","yes","yes","5-ish","yes, 1 hour","null","","null","","","","","","",""
"","","","","","image-keyboard-response","230","2.0.0","181732","pmp97ju3xbt","ono","sheep","22","female","yes","yes","5-ish","yes, 1 hour","597","stimuli/pictures/motor_dirt_2.jpg","0","0","","true","no","sound","stimuli/sounds/dog_sound_B.wav",""
"","","","","","audio-keyboard-response","231","2.0.0","182736","pmp97ju3xbt","ono","sheep","22","female","yes","yes","5-ish","yes, 1 hour","null","stimuli/sounds/bleep.wav","null","","","","","","",""
"","","","","","html-keyboard-response","232","2.0.0","183311","pmp97ju3xbt","ono","sheep","22","female","yes","yes","5-ish","yes, 1 hour","473","<div style=""font-size:30px;"">Press space to start the trial</div>"," ","","","","","","",""
"","","","","","html-keyboard-response","233","2.0.0","183563","pmp97ju3xbt","ono","sheep","22","female","yes","yes","5-ish","yes, 1 hour","null","<div style=""font-size:60px;"">+</div>","null","","","","","","",""
"","","","","","audio-keyboard-response","234","2.0.0","184173","pmp97ju3xbt","ono","sheep","22","female","yes","yes","5-ish","yes, 1 hour","null","stimuli/sounds/drop_label_B.wav","null","","","","","","",""
"","","","","","html-keyboard-response","235","2.0.0","185176","pmp97ju3xbt","ono","sheep","22","female","yes","yes","5-ish","yes, 1 hour","null","","null","","","","","","",""
"","","","","","image-keyboard-response","236","2.0.0","185595","pmp97ju3xbt","ono","sheep","22","female","yes","yes","5-ish","yes, 1 hour","417","stimuli/pictures/drop_multi_2.jpg","1","1","","true","yes","sound","stimuli/sounds/drop_label_B.wav",""
"","","","","","audio-keyboard-response","237","2.0.0","186598","pmp97ju3xbt","ono","sheep","22","female","yes","yes","5-ish","yes, 1 hour","null","stimuli/sounds/bleep.wav","null","","","","","","",""
"","","","","","html-keyboard-response","238","2.0.0","187446","pmp97ju3xbt","ono","sheep","22","female","yes","yes","5-ish","yes, 1 hour","746","<div style=""font-size:30px;"">Press space to start the trial</div>"," ","","","","","","",""
"","","","","","html-keyboard-response","239","2.0.0","187699","pmp97ju3xbt","ono","sheep","22","female","yes","yes","5-ish","yes, 1 hour","null","<div style=""font-size:60px;"">+</div>","null","","","","","","",""
"","","","","","audio-keyboard-response","240","2.0.0","188365","pmp97ju3xbt","ono","sheep","22","female","yes","yes","5-ish","yes, 1 hour","null","stimuli/sounds/cough_sound_A.wav","null","","","","","","",""
"","","","","","html-keyboard-response","241","2.0.0","189367","pmp97ju3xbt","ono","sheep","22","female","yes","yes","5-ish","yes, 1 hour","null","","null","","","","","","",""
"","","","","","image-keyboard-response","242","2.0.0","189763","pmp97ju3xbt","ono","sheep","22","female","yes","yes","5-ish","yes, 1 hour","393","stimuli/pictures/cough_wom_1.jpg","1","1","","true","yes","sound","stimuli/sounds/cough_sound_A.wav",""
"","","","","","audio-keyboard-response","243","2.0.0","190765","pmp97ju3xbt","ono","sheep","22","female","yes","yes","5-ish","yes, 1 hour","null","stimuli/sounds/bleep.wav","null","","","","","","",""
"","","","","","html-keyboard-response","244","2.0.0","191680","pmp97ju3xbt","ono","sheep","22","female","yes","yes","5-ish","yes, 1 hour","812","<div style=""font-size:30px;"">Press space to start the trial</div>"," ","","","","","","",""
"","","","","","html-keyboard-response","245","2.0.0","191932","pmp97ju3xbt","ono","sheep","22","female","yes","yes","5-ish","yes, 1 hour","null","<div style=""font-size:60px;"">+</div>","null","","","","","","",""
"","","","","","audio-keyboard-response","246","2.0.0","192535","pmp97ju3xbt","ono","sheep","22","female","yes","yes","5-ish","yes, 1 hour","null","stimuli/sounds/hiccup_label_B.wav","null","","","","","","",""
"","","","","","html-keyboard-response","247","2.0.0","193537","pmp97ju3xbt","ono","sheep","22","female","yes","yes","5-ish","yes, 1 hour","null","","null","","","","","","",""
"","","","","","image-keyboard-response","248","2.0.0","194096","pmp97ju3xbt","ono","sheep","22","female","yes","yes","5-ish","yes, 1 hour","557","stimuli/pictures/hiccup_man_1.jpg","1","1","","true","yes","sound","stimuli/sounds/hiccup_label_B.wav",""
"","","","","","audio-keyboard-response","249","2.0.0","195099","pmp97ju3xbt","ono","sheep","22","female","yes","yes","5-ish","yes, 1 hour","null","stimuli/sounds/bleep.wav","null","","","","","","",""
"","","","","","html-keyboard-response","250","2.0.0","195460","pmp97ju3xbt","ono","sheep","22","female","yes","yes","5-ish","yes, 1 hour","258","<div style=""font-size:30px;"">Press space to start the trial</div>"," ","","","","","","",""
"","","","","","html-keyboard-response","251","2.0.0","195713","pmp97ju3xbt","ono","sheep","22","female","yes","yes","5-ish","yes, 1 hour","null","<div style=""font-size:60px;"">+</div>","null","","","","","","",""
"","","","","","audio-keyboard-response","252","2.0.0","196317","pmp97ju3xbt","ono","sheep","22","female","yes","yes","5-ish","yes, 1 hour","null","stimuli/sounds/hiccup_label_B.wav","null","","","","","","",""
"","","","","","html-keyboard-response","253","2.0.0","197319","pmp97ju3xbt","ono","sheep","22","female","yes","yes","5-ish","yes, 1 hour","null","","null","","","","","","",""
"","","","","","image-keyboard-response","254","2.0.0","197661","pmp97ju3xbt","ono","sheep","22","female","yes","yes","5-ish","yes, 1 hour","339","stimuli/pictures/dog_york_2.jpg","1","0","","false","no","sound","stimuli/sounds/hiccup_label_B.wav",""
"","","","","","audio-keyboard-response","255","2.0.0","198663","pmp97ju3xbt","ono","sheep","22","female","yes","yes","5-ish","yes, 1 hour","null","stimuli/sounds/buzz.wav","null","","","","","","",""
"","","","","","html-keyboard-response","256","2.0.0","199265","pmp97ju3xbt","ono","sheep","22","female","yes","yes","5-ish","yes, 1 hour","500","<div style=""font-size:30px;"">Press space to start the trial</div>"," ","","","","","","",""
"","","","","","html-keyboard-response","257","2.0.0","199518","pmp97ju3xbt","ono","sheep","22","female","yes","yes","5-ish","yes, 1 hour","null","<div style=""font-size:60px;"">+</div>","null","","","","","","",""
"","","","","","audio-keyboard-response","258","2.0.0","200120","pmp97ju3xbt","ono","sheep","22","female","yes","yes","5-ish","yes, 1 hour","null","stimuli/sounds/dog_label_A.wav","null","","","","","","",""
"","","","","","html-keyboard-response","259","2.0.0","201122","pmp97ju3xbt","ono","sheep","22","female","yes","yes","5-ish","yes, 1 hour","null","","null","","","","","","",""
"","","","","","image-keyboard-response","260","2.0.0","201627","pmp97ju3xbt","ono","sheep","22","female","yes","yes","5-ish","yes, 1 hour","503","stimuli/pictures/drop_single_1.jpg","0","0","","true","no","sound","stimuli/sounds/dog_label_A.wav",""
"","","","","","audio-keyboard-response","261","2.0.0","202629","pmp97ju3xbt","ono","sheep","22","female","yes","yes","5-ish","yes, 1 hour","null","stimuli/sounds/bleep.wav","null","","","","","","",""
"","","","","","html-keyboard-response","262","2.0.0","203256","pmp97ju3xbt","ono","sheep","22","female","yes","yes","5-ish","yes, 1 hour","526","<div style=""font-size:30px;"">Press space to start the trial</div>"," ","","","","","","",""
"","","","","","html-keyboard-response","263","2.0.0","203508","pmp97ju3xbt","ono","sheep","22","female","yes","yes","5-ish","yes, 1 hour","null","<div style=""font-size:60px;"">+</div>","null","","","","","","",""
"","","","","","audio-keyboard-response","264","2.0.0","204109","pmp97ju3xbt","ono","sheep","22","female","yes","yes","5-ish","yes, 1 hour","null","stimuli/sounds/dog_label_A.wav","null","","","","","","",""
"","","","","","html-keyboard-response","265","2.0.0","205111","pmp97ju3xbt","ono","sheep","22","female","yes","yes","5-ish","yes, 1 hour","null","","null","","","","","","",""
"","","","","","image-keyboard-response","266","2.0.0","205777","pmp97ju3xbt","ono","sheep","22","female","yes","yes","5-ish","yes, 1 hour","663","stimuli/pictures/dog_york_2.jpg","1","1","","true","yes","sound","stimuli/sounds/dog_label_A.wav",""
"","","","","","audio-keyboard-response","267","2.0.0","206779","pmp97ju3xbt","ono","sheep","22","female","yes","yes","5-ish","yes, 1 hour","null","stimuli/sounds/bleep.wav","null","","","","","","",""
"","","","","","html-keyboard-response","268","2.0.0","208785","pmp97ju3xbt","ono","sheep","22","female","yes","yes","5-ish","yes, 1 hour","1905","<p>You have completed a block. Press R when you are ready to continue</p>","r","","","","","","",""
"","","","","","html-keyboard-response","269","2.0.0","209839","pmp97ju3xbt","ono","sheep","22","female","yes","yes","5-ish","yes, 1 hour","1054","<div style=""font-size:30px;"">Press space to start the trial</div>"," ","","","","","","",""
"","","","","","html-keyboard-response","270","2.0.0","210091","pmp97ju3xbt","ono","sheep","22","female","yes","yes","5-ish","yes, 1 hour","null","<div style=""font-size:60px;"">+</div>","null","","","","","","",""
"","","","","","audio-keyboard-response","271","2.0.0","210722","pmp97ju3xbt","ono","sheep","22","female","yes","yes","5-ish","yes, 1 hour","null","stimuli/sounds/cough_label_A.wav","null","","","","","","",""
"","","","","","html-keyboard-response","272","2.0.0","211725","pmp97ju3xbt","ono","sheep","22","female","yes","yes","5-ish","yes, 1 hour","null","","null","","","","","","",""
"","","","","","image-keyboard-response","273","2.0.0","212275","pmp97ju3xbt","ono","sheep","22","female","yes","yes","5-ish","yes, 1 hour","549","stimuli/pictures/motor_dirt_1.jpg","0","0","","true","no","sound","stimuli/sounds/cough_label_A.wav",""
"","","","","","audio-keyboard-response","274","2.0.0","213278","pmp97ju3xbt","ono","sheep","22","female","yes","yes","5-ish","yes, 1 hour","null","stimuli/sounds/bleep.wav","null","","","","","","",""
"","","","","","html-keyboard-response","275","2.0.0","214064","pmp97ju3xbt","ono","sheep","22","female","yes","yes","5-ish","yes, 1 hour","684","<div style=""font-size:30px;"">Press space to start the trial</div>"," ","","","","","","",""
"","","","","","html-keyboard-response","276","2.0.0","214317","pmp97ju3xbt","ono","sheep","22","female","yes","yes","5-ish","yes, 1 hour","null","<div style=""font-size:60px;"">+</div>","null","","","","","","",""
"","","","","","audio-keyboard-response","277","2.0.0","214951","pmp97ju3xbt","ono","sheep","22","female","yes","yes","5-ish","yes, 1 hour","null","stimuli/sounds/cough_label_A.wav","null","","","","","","",""
"","","","","","html-keyboard-response","278","2.0.0","215954","pmp97ju3xbt","ono","sheep","22","female","yes","yes","5-ish","yes, 1 hour","null","","null","","","","","","",""
"","","","","","image-keyboard-response","279","2.0.0","216375","pmp97ju3xbt","ono","sheep","22","female","yes","yes","5-ish","yes, 1 hour","419","stimuli/pictures/cough_man_1.jpg","1","1","","true","yes","sound","stimuli/sounds/cough_label_A.wav",""
"","","","","","audio-keyboard-response","280","2.0.0","217377","pmp97ju3xbt","ono","sheep","22","female","yes","yes","5-ish","yes, 1 hour","null","stimuli/sounds/bleep.wav","null","","","","","","",""
"","","","","","html-keyboard-response","281","2.0.0","217951","pmp97ju3xbt","ono","sheep","22","female","yes","yes","5-ish","yes, 1 hour","471","<div style=""font-size:30px;"">Press space to start the trial</div>"," ","","","","","","",""
"","","","","","html-keyboard-response","282","2.0.0","218203","pmp97ju3xbt","ono","sheep","22","female","yes","yes","5-ish","yes, 1 hour","null","<div style=""font-size:60px;"">+</div>","null","","","","","","",""
"","","","","","audio-keyboard-response","283","2.0.0","218818","pmp97ju3xbt","ono","sheep","22","female","yes","yes","5-ish","yes, 1 hour","null","stimuli/sounds/drop_label_B.wav","null","","","","","","",""
"","","","","","html-keyboard-response","284","2.0.0","219820","pmp97ju3xbt","ono","sheep","22","female","yes","yes","5-ish","yes, 1 hour","null","","null","","","","","","",""
"","","","","","image-keyboard-response","285","2.0.0","220328","pmp97ju3xbt","ono","sheep","22","female","yes","yes","5-ish","yes, 1 hour","506","stimuli/pictures/drop_single_2.jpg","1","1","","true","yes","sound","stimuli/sounds/drop_label_B.wav",""
"","","","","","audio-keyboard-response","286","2.0.0","221331","pmp97ju3xbt","ono","sheep","22","female","yes","yes","5-ish","yes, 1 hour","null","stimuli/sounds/bleep.wav","null","","","","","","",""
"","","","","","html-keyboard-response","287","2.0.0","221744","pmp97ju3xbt","ono","sheep","22","female","yes","yes","5-ish","yes, 1 hour","311","<div style=""font-size:30px;"">Press space to start the trial</div>"," ","","","","","","",""
"","","","","","html-keyboard-response","288","2.0.0","221997","pmp97ju3xbt","ono","sheep","22","female","yes","yes","5-ish","yes, 1 hour","null","<div style=""font-size:60px;"">+</div>","null","","","","","","",""
"","","","","","audio-keyboard-response","289","2.0.0","222599","pmp97ju3xbt","ono","sheep","22","female","yes","yes","5-ish","yes, 1 hour","null","stimuli/sounds/dog_sound_A.wav","null","","","","","","",""
"","","","","","html-keyboard-response","290","2.0.0","223601","pmp97ju3xbt","ono","sheep","22","female","yes","yes","5-ish","yes, 1 hour","null","","null","","","","","","",""
"","","","","","image-keyboard-response","291","2.0.0","224660","pmp97ju3xbt","ono","sheep","22","female","yes","yes","5-ish","yes, 1 hour","1057","stimuli/pictures/dog_york_1.jpg","0","1","","false","no","sound","stimuli/sounds/dog_sound_A.wav",""
"","","","","","audio-keyboard-response","292","2.0.0","225663","pmp97ju3xbt","ono","sheep","22","female","yes","yes","5-ish","yes, 1 hour","null","stimuli/sounds/buzz.wav","null","","","","","","",""
"","","","","","html-keyboard-response","293","2.0.0","226270","pmp97ju3xbt","ono","sheep","22","female","yes","yes","5-ish","yes, 1 hour","504","<div style=""font-size:30px;"">Press space to start the trial</div>"," ","","","","","","",""
"","","","","","html-keyboard-response","294","2.0.0","226522","pmp97ju3xbt","ono","sheep","22","female","yes","yes","5-ish","yes, 1 hour","null","<div style=""font-size:60px;"">+</div>","null","","","","","","",""
"","","","","","audio-keyboard-response","295","2.0.0","227122","pmp97ju3xbt","ono","sheep","22","female","yes","yes","5-ish","yes, 1 hour","null","stimuli/sounds/dog_label_A.wav","null","","","","","","",""
"","","","","","html-keyboard-response","296","2.0.0","228124","pmp97ju3xbt","ono","sheep","22","female","yes","yes","5-ish","yes, 1 hour","null","","null","","","","","","",""
"","","","","","image-keyboard-response","297","2.0.0","228618","pmp97ju3xbt","ono","sheep","22","female","yes","yes","5-ish","yes, 1 hour","492","stimuli/pictures/dog_rott_1.jpg","1","1","","true","yes","sound","stimuli/sounds/dog_label_A.wav",""
"","","","","","audio-keyboard-response","298","2.0.0","229621","pmp97ju3xbt","ono","sheep","22","female","yes","yes","5-ish","yes, 1 hour","null","stimuli/sounds/bleep.wav","null","","","","","","",""
"","","","","","html-keyboard-response","299","2.0.0","230195","pmp97ju3xbt","ono","sheep","22","female","yes","yes","5-ish","yes, 1 hour","472","<div style=""font-size:30px;"">Press space to start the trial</div>"," ","","","","","","",""
"","","","","","html-keyboard-response","300","2.0.0","230448","pmp97ju3xbt","ono","sheep","22","female","yes","yes","5-ish","yes, 1 hour","null","<div style=""font-size:60px;"">+</div>","null","","","","","","",""
"","","","","","audio-keyboard-response","301","2.0.0","231052","pmp97ju3xbt","ono","sheep","22","female","yes","yes","5-ish","yes, 1 hour","null","stimuli/sounds/drop_sound_B.wav","null","","","","","","",""
"","","","","","html-keyboard-response","302","2.0.0","232055","pmp97ju3xbt","ono","sheep","22","female","yes","yes","5-ish","yes, 1 hour","null","","null","","","","","","",""
"","","","","","image-keyboard-response","303","2.0.0","232728","pmp97ju3xbt","ono","sheep","22","female","yes","yes","5-ish","yes, 1 hour","671","stimuli/pictures/dog_york_2.jpg","0","0","","true","no","sound","stimuli/sounds/drop_sound_B.wav",""
"","","","","","audio-keyboard-response","304","2.0.0","233731","pmp97ju3xbt","ono","sheep","22","female","yes","yes","5-ish","yes, 1 hour","null","stimuli/sounds/bleep.wav","null","","","","","","",""
"","","","","","html-keyboard-response","305","2.0.0","234218","pmp97ju3xbt","ono","sheep","22","female","yes","yes","5-ish","yes, 1 hour","386","<div style=""font-size:30px;"">Press space to start the trial</div>"," ","","","","","","",""
"","","","","","html-keyboard-response","306","2.0.0","234471","pmp97ju3xbt","ono","sheep","22","female","yes","yes","5-ish","yes, 1 hour","null","<div style=""font-size:60px;"">+</div>","null","","","","","","",""
"","","","","","audio-keyboard-response","307","2.0.0","235074","pmp97ju3xbt","ono","sheep","22","female","yes","yes","5-ish","yes, 1 hour","null","stimuli/sounds/motor_sound_A.wav","null","","","","","","",""
"","","","","","html-keyboard-response","308","2.0.0","236076","pmp97ju3xbt","ono","sheep","22","female","yes","yes","5-ish","yes, 1 hour","null","","null","","","","","","",""
"","","","","","image-keyboard-response","309","2.0.0","236630","pmp97ju3xbt","ono","sheep","22","female","yes","yes","5-ish","yes, 1 hour","552","stimuli/pictures/drop_single_2.jpg","0","0","","true","no","sound","stimuli/sounds/motor_sound_A.wav",""
"","","","","","audio-keyboard-response","310","2.0.0","237633","pmp97ju3xbt","ono","sheep","22","female","yes","yes","5-ish","yes, 1 hour","null","stimuli/sounds/bleep.wav","null","","","","","","",""
"","","","","","html-keyboard-response","311","2.0.0","238324","pmp97ju3xbt","ono","sheep","22","female","yes","yes","5-ish","yes, 1 hour","589","<div style=""font-size:30px;"">Press space to start the trial</div>"," ","","","","","","",""
"","","","","","html-keyboard-response","312","2.0.0","238576","pmp97ju3xbt","ono","sheep","22","female","yes","yes","5-ish","yes, 1 hour","null","<div style=""font-size:60px;"">+</div>","null","","","","","","",""
"","","","","","audio-keyboard-response","313","2.0.0","239111","pmp97ju3xbt","ono","sheep","22","female","yes","yes","5-ish","yes, 1 hour","null","stimuli/sounds/hiccup_label_A.wav","null","","","","","","",""
"","","","","","html-keyboard-response","314","2.0.0","240113","pmp97ju3xbt","ono","sheep","22","female","yes","yes","5-ish","yes, 1 hour","null","","null","","","","","","",""
"","","","","","image-keyboard-response","315","2.0.0","240605","pmp97ju3xbt","ono","sheep","22","female","yes","yes","5-ish","yes, 1 hour","490","stimuli/pictures/cough_wom_1.jpg","1","0","","false","no","sound","stimuli/sounds/hiccup_label_A.wav",""
"","","","","","audio-keyboard-response","316","2.0.0","241606","pmp97ju3xbt","ono","sheep","22","female","yes","yes","5-ish","yes, 1 hour","null","stimuli/sounds/buzz.wav","null","","","","","","",""
"","","","","","html-keyboard-response","317","2.0.0","242263","pmp97ju3xbt","ono","sheep","22","female","yes","yes","5-ish","yes, 1 hour","555","<div style=""font-size:30px;"">Press space to start the trial</div>"," ","","","","","","",""
"","","","","","html-keyboard-response","318","2.0.0","242515","pmp97ju3xbt","ono","sheep","22","female","yes","yes","5-ish","yes, 1 hour","null","<div style=""font-size:60px;"">+</div>","null","","","","","","",""
"","","","","","audio-keyboard-response","319","2.0.0","243052","pmp97ju3xbt","ono","sheep","22","female","yes","yes","5-ish","yes, 1 hour","null","stimuli/sounds/hiccup_label_A.wav","null","","","","","","",""
"","","","","","html-keyboard-response","320","2.0.0","244054","pmp97ju3xbt","ono","sheep","22","female","yes","yes","5-ish","yes, 1 hour","null","","null","","","","","","",""
"","","","","","image-keyboard-response","321","2.0.0","244876","pmp97ju3xbt","ono","sheep","22","female","yes","yes","5-ish","yes, 1 hour","821","stimuli/pictures/cough_man_1.jpg","0","0","","true","no","sound","stimuli/sounds/hiccup_label_A.wav",""
"","","","","","audio-keyboard-response","322","2.0.0","245878","pmp97ju3xbt","ono","sheep","22","female","yes","yes","5-ish","yes, 1 hour","null","stimuli/sounds/bleep.wav","null","","","","","","",""
"","","","","","html-keyboard-response","323","2.0.0","246619","pmp97ju3xbt","ono","sheep","22","female","yes","yes","5-ish","yes, 1 hour","638","<div style=""font-size:30px;"">Press space to start the trial</div>"," ","","","","","","",""
"","","","","","html-keyboard-response","324","2.0.0","246871","pmp97ju3xbt","ono","sheep","22","female","yes","yes","5-ish","yes, 1 hour","null","<div style=""font-size:60px;"">+</div>","null","","","","","","",""
"","","","","","audio-keyboard-response","325","2.0.0","247553","pmp97ju3xbt","ono","sheep","22","female","yes","yes","5-ish","yes, 1 hour","null","stimuli/sounds/cough_sound_B.wav","null","","","","","","",""
"","","","","","html-keyboard-response","326","2.0.0","248556","pmp97ju3xbt","ono","sheep","22","female","yes","yes","5-ish","yes, 1 hour","null","","null","","","","","","",""
"","","","","","image-keyboard-response","327","2.0.0","248988","pmp97ju3xbt","ono","sheep","22","female","yes","yes","5-ish","yes, 1 hour","430","stimuli/pictures/cough_wom_1.jpg","1","1","","true","no","sound","stimuli/sounds/cough_sound_B.wav",""
"","","","","","audio-keyboard-response","328","2.0.0","249990","pmp97ju3xbt","ono","sheep","22","female","yes","yes","5-ish","yes, 1 hour","null","stimuli/sounds/bleep.wav","null","","","","","","",""
"","","","","","html-keyboard-response","329","2.0.0","250626","pmp97ju3xbt","ono","sheep","22","female","yes","yes","5-ish","yes, 1 hour","532","<div style=""font-size:30px;"">Press space to start the trial</div>"," ","","","","","","",""
"","","","","","html-keyboard-response","330","2.0.0","250877","pmp97ju3xbt","ono","sheep","22","female","yes","yes","5-ish","yes, 1 hour","null","<div style=""font-size:60px;"">+</div>","null","","","","","","",""
"","","","","","audio-keyboard-response","331","2.0.0","251415","pmp97ju3xbt","ono","sheep","22","female","yes","yes","5-ish","yes, 1 hour","null","stimuli/sounds/hiccup_label_A.wav","null","","","","","","",""
"","","","","","html-keyboard-response","332","2.0.0","252417","pmp97ju3xbt","ono","sheep","22","female","yes","yes","5-ish","yes, 1 hour","null","","null","","","","","","",""
"","","","","","image-keyboard-response","333","2.0.0","253575","pmp97ju3xbt","ono","sheep","22","female","yes","yes","5-ish","yes, 1 hour","1157","stimuli/pictures/hiccup_man_1.jpg","1","1","","true","yes","sound","stimuli/sounds/hiccup_label_A.wav",""
"","","","","","audio-keyboard-response","334","2.0.0","254578","pmp97ju3xbt","ono","sheep","22","female","yes","yes","5-ish","yes, 1 hour","null","stimuli/sounds/bleep.wav","null","","","","","","",""
"","","","","","html-keyboard-response","335","2.0.0","255481","pmp97ju3xbt","ono","sheep","22","female","yes","yes","5-ish","yes, 1 hour","801","<div style=""font-size:30px;"">Press space to start the trial</div>"," ","","","","","","",""
"","","","","","html-keyboard-response","336","2.0.0","255733","pmp97ju3xbt","ono","sheep","22","female","yes","yes","5-ish","yes, 1 hour","null","<div style=""font-size:60px;"">+</div>","null","","","","","","",""
"","","","","","audio-keyboard-response","337","2.0.0","256343","pmp97ju3xbt","ono","sheep","22","female","yes","yes","5-ish","yes, 1 hour","null","stimuli/sounds/drop_label_B.wav","null","","","","","","",""
"","","","","","html-keyboard-response","338","2.0.0","257345","pmp97ju3xbt","ono","sheep","22","female","yes","yes","5-ish","yes, 1 hour","null","","null","","","","","","",""
"","","","","","image-keyboard-response","339","2.0.0","257834","pmp97ju3xbt","ono","sheep","22","female","yes","yes","5-ish","yes, 1 hour","488","stimuli/pictures/motor_dirt_2.jpg","0","0","","true","no","sound","stimuli/sounds/drop_label_B.wav",""
"","","","","","audio-keyboard-response","340","2.0.0","258837","pmp97ju3xbt","ono","sheep","22","female","yes","yes","5-ish","yes, 1 hour","null","stimuli/sounds/bleep.wav","null","","","","","","",""
"","","","","","html-keyboard-response","341","2.0.0","259654","pmp97ju3xbt","ono","sheep","22","female","yes","yes","5-ish","yes, 1 hour","714","<div style=""font-size:30px;"">Press space to start the trial</div>"," ","","","","","","",""
"","","","","","html-keyboard-response","342","2.0.0","259906","pmp97ju3xbt","ono","sheep","22","female","yes","yes","5-ish","yes, 1 hour","null","<div style=""font-size:60px;"">+</div>","null","","","","","","",""
"","","","","","audio-keyboard-response","343","2.0.0","260572","pmp97ju3xbt","ono","sheep","22","female","yes","yes","5-ish","yes, 1 hour","null","stimuli/sounds/cough_sound_A.wav","null","","","","","","",""
"","","","","","html-keyboard-response","344","2.0.0","261574","pmp97ju3xbt","ono","sheep","22","female","yes","yes","5-ish","yes, 1 hour","null","","null","","","","","","",""
"","","","","","image-keyboard-response","345","2.0.0","262165","pmp97ju3xbt","ono","sheep","22","female","yes","yes","5-ish","yes, 1 hour","590","stimuli/pictures/dog_rott_1.jpg","0","0","","true","no","sound","stimuli/sounds/cough_sound_A.wav",""
"","","","","","audio-keyboard-response","346","2.0.0","263168","pmp97ju3xbt","ono","sheep","22","female","yes","yes","5-ish","yes, 1 hour","null","stimuli/sounds/bleep.wav","null","","","","","","",""
"","","","","","html-keyboard-response","347","2.0.0","263880","pmp97ju3xbt","ono","sheep","22","female","yes","yes","5-ish","yes, 1 hour","610","<div style=""font-size:30px;"">Press space to start the trial</div>"," ","","","","","","",""
"","","","","","html-keyboard-response","348","2.0.0","264133","pmp97ju3xbt","ono","sheep","22","female","yes","yes","5-ish","yes, 1 hour","null","<div style=""font-size:60px;"">+</div>","null","","","","","","",""
"","","","","","audio-keyboard-response","349","2.0.0","264742","pmp97ju3xbt","ono","sheep","22","female","yes","yes","5-ish","yes, 1 hour","null","stimuli/sounds/drop_label_B.wav","null","","","","","","",""
"","","","","","html-keyboard-response","350","2.0.0","265745","pmp97ju3xbt","ono","sheep","22","female","yes","yes","5-ish","yes, 1 hour","null","","null","","","","","","",""
"","","","","","image-keyboard-response","351","2.0.0","266204","pmp97ju3xbt","ono","sheep","22","female","yes","yes","5-ish","yes, 1 hour","458","stimuli/pictures/motor_dirt_1.jpg","0","0","","true","no","sound","stimuli/sounds/drop_label_B.wav",""
"","","","","","audio-keyboard-response","352","2.0.0","267206","pmp97ju3xbt","ono","sheep","22","female","yes","yes","5-ish","yes, 1 hour","null","stimuli/sounds/bleep.wav","null","","","","","","",""
"","","","","","html-keyboard-response","353","2.0.0","267951","pmp97ju3xbt","ono","sheep","22","female","yes","yes","5-ish","yes, 1 hour","642","<div style=""font-size:30px;"">Press space to start the trial</div>"," ","","","","","","",""
"","","","","","html-keyboard-response","354","2.0.0","268204","pmp97ju3xbt","ono","sheep","22","female","yes","yes","5-ish","yes, 1 hour","null","<div style=""font-size:60px;"">+</div>","null","","","","","","",""
"","","","","","audio-keyboard-response","355","2.0.0","268742","pmp97ju3xbt","ono","sheep","22","female","yes","yes","5-ish","yes, 1 hour","null","stimuli/sounds/hiccup_label_A.wav","null","","","","","","",""
"","","","","","html-keyboard-response","356","2.0.0","269744","pmp97ju3xbt","ono","sheep","22","female","yes","yes","5-ish","yes, 1 hour","null","","null","","","","","","",""
"","","","","","image-keyboard-response","357","2.0.0","270668","pmp97ju3xbt","ono","sheep","22","female","yes","yes","5-ish","yes, 1 hour","922","stimuli/pictures/hiccup_wom_1.jpg","1","1","","true","yes","sound","stimuli/sounds/hiccup_label_A.wav",""
"","","","","","audio-keyboard-response","358","2.0.0","271670","pmp97ju3xbt","ono","sheep","22","female","yes","yes","5-ish","yes, 1 hour","null","stimuli/sounds/bleep.wav","null","","","","","","",""
"","","","","","html-keyboard-response","359","2.0.0","272262","pmp97ju3xbt","ono","sheep","22","female","yes","yes","5-ish","yes, 1 hour","489","<div style=""font-size:30px;"">Press space to start the trial</div>"," ","","","","","","",""
"","","","","","html-keyboard-response","360","2.0.0","272514","pmp97ju3xbt","ono","sheep","22","female","yes","yes","5-ish","yes, 1 hour","null","<div style=""font-size:60px;"">+</div>","null","","","","","","",""
"","","","","","audio-keyboard-response","361","2.0.0","273116","pmp97ju3xbt","ono","sheep","22","female","yes","yes","5-ish","yes, 1 hour","null","stimuli/sounds/motor_sound_A.wav","null","","","","","","",""
"","","","","","html-keyboard-response","362","2.0.0","274118","pmp97ju3xbt","ono","sheep","22","female","yes","yes","5-ish","yes, 1 hour","null","","null","","","","","","",""
"","","","","","image-keyboard-response","363","2.0.0","276118","pmp97ju3xbt","ono","sheep","22","female","yes","yes","5-ish","yes, 1 hour","1998","stimuli/pictures/drop_multi_2.jpg","0","0","","true","no","sound","stimuli/sounds/motor_sound_A.wav",""
"","","","","","audio-keyboard-response","364","2.0.0","277120","pmp97ju3xbt","ono","sheep","22","female","yes","yes","5-ish","yes, 1 hour","null","stimuli/sounds/bleep.wav","null","","","","","","",""
"","","","","","html-keyboard-response","365","2.0.0","279880","pmp97ju3xbt","ono","sheep","22","female","yes","yes","5-ish","yes, 1 hour","2657","<div style=""font-size:30px;"">Press space to start the trial</div>"," ","","","","","","",""
"","","","","","html-keyboard-response","366","2.0.0","280132","pmp97ju3xbt","ono","sheep","22","female","yes","yes","5-ish","yes, 1 hour","null","<div style=""font-size:60px;"">+</div>","null","","","","","","",""
"","","","","","audio-keyboard-response","367","2.0.0","280668","pmp97ju3xbt","ono","sheep","22","female","yes","yes","5-ish","yes, 1 hour","null","stimuli/sounds/hiccup_label_A.wav","null","","","","","","",""
"","","","","","html-keyboard-response","368","2.0.0","281670","pmp97ju3xbt","ono","sheep","22","female","yes","yes","5-ish","yes, 1 hour","null","","null","","","","","","",""
"","","","","","image-keyboard-response","369","2.0.0","283367","pmp97ju3xbt","ono","sheep","22","female","yes","yes","5-ish","yes, 1 hour","1695","stimuli/pictures/cough_man_2.jpg","0","0","","true","no","sound","stimuli/sounds/hiccup_label_A.wav",""
"","","","","","audio-keyboard-response","370","2.0.0","284369","pmp97ju3xbt","ono","sheep","22","female","yes","yes","5-ish","yes, 1 hour","null","stimuli/sounds/bleep.wav","null","","","","","","",""
"","","","","","html-keyboard-response","371","2.0.0","284868","pmp97ju3xbt","ono","sheep","22","female","yes","yes","5-ish","yes, 1 hour","397","<div style=""font-size:30px;"">Press space to start the trial</div>"," ","","","","","","",""
"","","","","","html-keyboard-response","372","2.0.0","285120","pmp97ju3xbt","ono","sheep","22","female","yes","yes","5-ish","yes, 1 hour","null","<div style=""font-size:60px;"">+</div>","null","","","","","","",""
"","","","","","audio-keyboard-response","373","2.0.0","285788","pmp97ju3xbt","ono","sheep","22","female","yes","yes","5-ish","yes, 1 hour","null","stimuli/sounds/cough_sound_A.wav","null","","","","","","",""
"","","","","","html-keyboard-response","374","2.0.0","286791","pmp97ju3xbt","ono","sheep","22","female","yes","yes","5-ish","yes, 1 hour","null","","null","","","","","","",""
"","","","","","image-keyboard-response","375","2.0.0","287864","pmp97ju3xbt","ono","sheep","22","female","yes","yes","5-ish","yes, 1 hour","1071","stimuli/pictures/cough_man_1.jpg","1","1","","true","no","sound","stimuli/sounds/cough_sound_A.wav",""
"","","","","","audio-keyboard-response","376","2.0.0","288867","pmp97ju3xbt","ono","sheep","22","female","yes","yes","5-ish","yes, 1 hour","null","stimuli/sounds/bleep.wav","null","","","","","","",""
"","","","","","html-keyboard-response","377","2.0.0","289700","pmp97ju3xbt","ono","sheep","22","female","yes","yes","5-ish","yes, 1 hour","731","<div style=""font-size:30px;"">Press space to start the trial</div>"," ","","","","","","",""
"","","","","","html-keyboard-response","378","2.0.0","289953","pmp97ju3xbt","ono","sheep","22","female","yes","yes","5-ish","yes, 1 hour","null","<div style=""font-size:60px;"">+</div>","null","","","","","","",""
"","","","","","audio-keyboard-response","379","2.0.0","290555","pmp97ju3xbt","ono","sheep","22","female","yes","yes","5-ish","yes, 1 hour","null","stimuli/sounds/motor_label_B.wav","null","","","","","","",""
"","","","","","html-keyboard-response","380","2.0.0","291558","pmp97ju3xbt","ono","sheep","22","female","yes","yes","5-ish","yes, 1 hour","null","","null","","","","","","",""
"","","","","","image-keyboard-response","381","2.0.0","291932","pmp97ju3xbt","ono","sheep","22","female","yes","yes","5-ish","yes, 1 hour","373","stimuli/pictures/motor_dirt_2.jpg","1","1","","true","yes","sound","stimuli/sounds/motor_label_B.wav",""
"","","","","","audio-keyboard-response","382","2.0.0","292935","pmp97ju3xbt","ono","sheep","22","female","yes","yes","5-ish","yes, 1 hour","null","stimuli/sounds/bleep.wav","null","","","","","","",""
"","","","","","html-keyboard-response","383","2.0.0","293512","pmp97ju3xbt","ono","sheep","22","female","yes","yes","5-ish","yes, 1 hour","475","<div style=""font-size:30px;"">Press space to start the trial</div>"," ","","","","","","",""
"","","","","","html-keyboard-response","384","2.0.0","293765","pmp97ju3xbt","ono","sheep","22","female","yes","yes","5-ish","yes, 1 hour","null","<div style=""font-size:60px;"">+</div>","null","","","","","","",""
"","","","","","audio-keyboard-response","385","2.0.0","294433","pmp97ju3xbt","ono","sheep","22","female","yes","yes","5-ish","yes, 1 hour","null","stimuli/sounds/cough_sound_A.wav","null","","","","","","",""
"","","","","","html-keyboard-response","386","2.0.0","295435","pmp97ju3xbt","ono","sheep","22","female","yes","yes","5-ish","yes, 1 hour","null","","null","","","","","","",""
"","","","","","image-keyboard-response","387","2.0.0","296111","pmp97ju3xbt","ono","sheep","22","female","yes","yes","5-ish","yes, 1 hour","675","stimuli/pictures/dog_york_2.jpg","0","0","","true","no","sound","stimuli/sounds/cough_sound_A.wav",""
"","","","","","audio-keyboard-response","388","2.0.0","297113","pmp97ju3xbt","ono","sheep","22","female","yes","yes","5-ish","yes, 1 hour","null","stimuli/sounds/bleep.wav","null","","","","","","",""
"","","","","","html-keyboard-response","389","2.0.0","300778","pmp97ju3xbt","ono","sheep","22","female","yes","yes","5-ish","yes, 1 hour","3563","<p>You have completed a block. Press R when you are ready to continue</p>","r","","","","","","",""
"","","","","","html-keyboard-response","390","2.0.0","302454","pmp97ju3xbt","ono","sheep","22","female","yes","yes","5-ish","yes, 1 hour","1675","<div style=""font-size:30px;"">Press space to start the trial</div>"," ","","","","","","",""
"","","","","","html-keyboard-response","391","2.0.0","302707","pmp97ju3xbt","ono","sheep","22","female","yes","yes","5-ish","yes, 1 hour","null","<div style=""font-size:60px;"">+</div>","null","","","","","","",""
"","","","","","audio-keyboard-response","392","2.0.0","303312","pmp97ju3xbt","ono","sheep","22","female","yes","yes","5-ish","yes, 1 hour","null","stimuli/sounds/hiccup_sound_A.wav","null","","","","","","",""
"","","","","","html-keyboard-response","393","2.0.0","304315","pmp97ju3xbt","ono","sheep","22","female","yes","yes","5-ish","yes, 1 hour","null","","null","","","","","","",""
"","","","","","image-keyboard-response","394","2.0.0","305387","pmp97ju3xbt","ono","sheep","22","female","yes","yes","5-ish","yes, 1 hour","1071","stimuli/pictures/hiccup_wom_2.jpg","1","1","","true","yes","sound","stimuli/sounds/hiccup_sound_A.wav",""
"","","","","","audio-keyboard-response","395","2.0.0","306390","pmp97ju3xbt","ono","sheep","22","female","yes","yes","5-ish","yes, 1 hour","null","stimuli/sounds/bleep.wav","null","","","","","","",""
"","","","","","html-keyboard-response","396","2.0.0","307064","pmp97ju3xbt","ono","sheep","22","female","yes","yes","5-ish","yes, 1 hour","572","<div style=""font-size:30px;"">Press space to start the trial</div>"," ","","","","","","",""
"","","","","","html-keyboard-response","397","2.0.0","307318","pmp97ju3xbt","ono","sheep","22","female","yes","yes","5-ish","yes, 1 hour","null","<div style=""font-size:60px;"">+</div>","null","","","","","","",""
"","","","","","audio-keyboard-response","398","2.0.0","307904","pmp97ju3xbt","ono","sheep","22","female","yes","yes","5-ish","yes, 1 hour","null","stimuli/sounds/drop_sound_A.wav","null","","","","","","",""
"","","","","","html-keyboard-response","399","2.0.0","308907","pmp97ju3xbt","ono","sheep","22","female","yes","yes","5-ish","yes, 1 hour","null","","null","","","","","","",""
"","","","","","image-keyboard-response","400","2.0.0","309411","pmp97ju3xbt","ono","sheep","22","female","yes","yes","5-ish","yes, 1 hour","502","stimuli/pictures/cough_wom_1.jpg","0","0","","true","no","sound","stimuli/sounds/drop_sound_A.wav",""
"","","","","","audio-keyboard-response","401","2.0.0","310413","pmp97ju3xbt","ono","sheep","22","female","yes","yes","5-ish","yes, 1 hour","null","stimuli/sounds/bleep.wav","null","","","","","","",""
"","","","","","html-keyboard-response","402","2.0.0","311110","pmp97ju3xbt","ono","sheep","22","female","yes","yes","5-ish","yes, 1 hour","594","<div style=""font-size:30px;"">Press space to start the trial</div>"," ","","","","","","",""
"","","","","","html-keyboard-response","403","2.0.0","311362","pmp97ju3xbt","ono","sheep","22","female","yes","yes","5-ish","yes, 1 hour","null","<div style=""font-size:60px;"">+</div>","null","","","","","","",""
"","","","","","audio-keyboard-response","404","2.0.0","312043","pmp97ju3xbt","ono","sheep","22","female","yes","yes","5-ish","yes, 1 hour","null","stimuli/sounds/cough_sound_B.wav","null","","","","","","",""
"","","","","","html-keyboard-response","405","2.0.0","313046","pmp97ju3xbt","ono","sheep","22","female","yes","yes","5-ish","yes, 1 hour","null","","null","","","","","","",""
"","","","","","image-keyboard-response","406","2.0.0","313527","pmp97ju3xbt","ono","sheep","22","female","yes","yes","5-ish","yes, 1 hour","480","stimuli/pictures/cough_man_2.jpg","1","1","","true","yes","sound","stimuli/sounds/cough_sound_B.wav",""
"","","","","","audio-keyboard-response","407","2.0.0","313902","pmp97ju3xbt","ono","sheep","22","female","yes","yes","5-ish","yes, 1 hour","373","stimuli/sounds/bleep.wav"," ","","","","","","",""
"","","","","","html-keyboard-response","408","2.0.0","314513","pmp97ju3xbt","ono","sheep","22","female","yes","yes","5-ish","yes, 1 hour","509","<div style=""font-size:30px;"">Press space to start the trial</div>"," ","","","","","","",""
"","","","","","html-keyboard-response","409","2.0.0","314765","pmp97ju3xbt","ono","sheep","22","female","yes","yes","5-ish","yes, 1 hour","null","<div style=""font-size:60px;"">+</div>","null","","","","","","",""
"","","","","","audio-keyboard-response","410","2.0.0","315376","pmp97ju3xbt","ono","sheep","22","female","yes","yes","5-ish","yes, 1 hour","null","stimuli/sounds/drop_label_B.wav","null","","","","","","",""
"","","","","","html-keyboard-response","411","2.0.0","316379","pmp97ju3xbt","ono","sheep","22","female","yes","yes","5-ish","yes, 1 hour","null","","null","","","","","","",""
"","","","","","image-keyboard-response","412","2.0.0","316910","pmp97ju3xbt","ono","sheep","22","female","yes","yes","5-ish","yes, 1 hour","529","stimuli/pictures/motor_harley_2.jpg","0","0","","true","no","sound","stimuli/sounds/drop_label_B.wav",""
"","","","","","audio-keyboard-response","413","2.0.0","317307","pmp97ju3xbt","ono","sheep","22","female","yes","yes","5-ish","yes, 1 hour","400","stimuli/sounds/bleep.wav"," ","","","","","","",""
"","","","","","html-keyboard-response","414","2.0.0","317765","pmp97ju3xbt","ono","sheep","22","female","yes","yes","5-ish","yes, 1 hour","355","<div style=""font-size:30px;"">Press space to start the trial</div>"," ","","","","","","",""
"","","","","","html-keyboard-response","415","2.0.0","318018","pmp97ju3xbt","ono","sheep","22","female","yes","yes","5-ish","yes, 1 hour","null","<div style=""font-size:60px;"">+</div>","null","","","","","","",""
"","","","","","audio-keyboard-response","416","2.0.0","318619","pmp97ju3xbt","ono","sheep","22","female","yes","yes","5-ish","yes, 1 hour","null","stimuli/sounds/dog_label_A.wav","null","","","","","","",""
"","","","","","html-keyboard-response","417","2.0.0","319621","pmp97ju3xbt","ono","sheep","22","female","yes","yes","5-ish","yes, 1 hour","null","","null","","","","","","",""
"","","","","","image-keyboard-response","418","2.0.0","320202","pmp97ju3xbt","ono","sheep","22","female","yes","yes","5-ish","yes, 1 hour","579","stimuli/pictures/drop_multi_1.jpg","0","0","","true","no","sound","stimuli/sounds/dog_label_A.wav",""
"","","","","","audio-keyboard-response","419","2.0.0","320506","pmp97ju3xbt","ono","sheep","22","female","yes","yes","5-ish","yes, 1 hour","299","stimuli/sounds/bleep.wav"," ","","","","","","",""
"","","","","","html-keyboard-response","420","2.0.0","320891","pmp97ju3xbt","ono","sheep","22","female","yes","yes","5-ish","yes, 1 hour","282","<div style=""font-size:30px;"">Press space to start the trial</div>"," ","","","","","","",""
"","","","","","html-keyboard-response","421","2.0.0","321143","pmp97ju3xbt","ono","sheep","22","female","yes","yes","5-ish","yes, 1 hour","null","<div style=""font-size:60px;"">+</div>","null","","","","","","",""
"","","","","","audio-keyboard-response","422","2.0.0","321776","pmp97ju3xbt","ono","sheep","22","female","yes","yes","5-ish","yes, 1 hour","null","stimuli/sounds/cough_label_A.wav","null","","","","","","",""
"","","","","","html-keyboard-response","423","2.0.0","322779","pmp97ju3xbt","ono","sheep","22","female","yes","yes","5-ish","yes, 1 hour","null","","null","","","","","","",""
"","","","","","image-keyboard-response","424","2.0.0","323180","pmp97ju3xbt","ono","sheep","22","female","yes","yes","5-ish","yes, 1 hour","400","stimuli/pictures/cough_wom_1.jpg","1","1","","true","yes","sound","stimuli/sounds/cough_label_A.wav",""
"","","","","","audio-keyboard-response","425","2.0.0","324183","pmp97ju3xbt","ono","sheep","22","female","yes","yes","5-ish","yes, 1 hour","null","stimuli/sounds/bleep.wav","null","","","","","","",""
"","","","","","html-keyboard-response","426","2.0.0","324512","pmp97ju3xbt","ono","sheep","22","female","yes","yes","5-ish","yes, 1 hour","227","<div style=""font-size:30px;"">Press space to start the trial</div>"," ","","","","","","",""
"","","","","","html-keyboard-response","427","2.0.0","324764","pmp97ju3xbt","ono","sheep","22","female","yes","yes","5-ish","yes, 1 hour","null","<div style=""font-size:60px;"">+</div>","null","","","","","","",""
"","","","","","audio-keyboard-response","428","2.0.0","325365","pmp97ju3xbt","ono","sheep","22","female","yes","yes","5-ish","yes, 1 hour","null","stimuli/sounds/dog_label_B.wav","null","","","","","","",""
"","","","","","html-keyboard-response","429","2.0.0","326368","pmp97ju3xbt","ono","sheep","22","female","yes","yes","5-ish","yes, 1 hour","null","","null","","","","","","",""
"","","","","","image-keyboard-response","430","2.0.0","326957","pmp97ju3xbt","ono","sheep","22","female","yes","yes","5-ish","yes, 1 hour","588","stimuli/pictures/cough_man_2.jpg","0","0","","true","no","sound","stimuli/sounds/dog_label_B.wav",""
"","","","","","audio-keyboard-response","431","2.0.0","327960","pmp97ju3xbt","ono","sheep","22","female","yes","yes","5-ish","yes, 1 hour","null","stimuli/sounds/bleep.wav","null","","","","","","",""
"","","","","","html-keyboard-response","432","2.0.0","328529","pmp97ju3xbt","ono","sheep","22","female","yes","yes","5-ish","yes, 1 hour","467","<div style=""font-size:30px;"">Press space to start the trial</div>"," ","","","","","","",""
"","","","","","html-keyboard-response","433","2.0.0","328783","pmp97ju3xbt","ono","sheep","22","female","yes","yes","5-ish","yes, 1 hour","null","<div style=""font-size:60px;"">+</div>","null","","","","","","",""
"","","","","","audio-keyboard-response","434","2.0.0","329381","pmp97ju3xbt","ono","sheep","22","female","yes","yes","5-ish","yes, 1 hour","null","stimuli/sounds/dog_sound_B.wav","null","","","","","","",""
"","","","","","html-keyboard-response","435","2.0.0","330383","pmp97ju3xbt","ono","sheep","22","female","yes","yes","5-ish","yes, 1 hour","null","","null","","","","","","",""
"","","","","","image-keyboard-response","436","2.0.0","330926","pmp97ju3xbt","ono","sheep","22","female","yes","yes","5-ish","yes, 1 hour","541","stimuli/pictures/dog_rott_2.jpg","1","1","","true","no","sound","stimuli/sounds/dog_sound_B.wav",""
"","","","","","audio-keyboard-response","437","2.0.0","331929","pmp97ju3xbt","ono","sheep","22","female","yes","yes","5-ish","yes, 1 hour","null","stimuli/sounds/bleep.wav","null","","","","","","",""
"","","","","","html-keyboard-response","438","2.0.0","332592","pmp97ju3xbt","ono","sheep","22","female","yes","yes","5-ish","yes, 1 hour","560","<div style=""font-size:30px;"">Press space to start the trial</div>"," ","","","","","","",""
"","","","","","html-keyboard-response","439","2.0.0","332844","pmp97ju3xbt","ono","sheep","22","female","yes","yes","5-ish","yes, 1 hour","null","<div style=""font-size:60px;"">+</div>","null","","","","","","",""
"","","","","","audio-keyboard-response","440","2.0.0","333445","pmp97ju3xbt","ono","sheep","22","female","yes","yes","5-ish","yes, 1 hour","null","stimuli/sounds/dog_sound_B.wav","null","","","","","","",""
"","","","","","html-keyboard-response","441","2.0.0","334448","pmp97ju3xbt","ono","sheep","22","female","yes","yes","5-ish","yes, 1 hour","null","","null","","","","","","",""
"","","","","","image-keyboard-response","442","2.0.0","335535","pmp97ju3xbt","ono","sheep","22","female","yes","yes","5-ish","yes, 1 hour","1086","stimuli/pictures/motor_harley_1.jpg","0","0","","true","no","sound","stimuli/sounds/dog_sound_B.wav",""
"","","","","","audio-keyboard-response","443","2.0.0","336538","pmp97ju3xbt","ono","sheep","22","female","yes","yes","5-ish","yes, 1 hour","null","stimuli/sounds/bleep.wav","null","","","","","","",""
"","","","","","html-keyboard-response","444","2.0.0","337059","pmp97ju3xbt","ono","sheep","22","female","yes","yes","5-ish","yes, 1 hour","419","<div style=""font-size:30px;"">Press space to start the trial</div>"," ","","","","","","",""
"","","","","","html-keyboard-response","445","2.0.0","337312","pmp97ju3xbt","ono","sheep","22","female","yes","yes","5-ish","yes, 1 hour","null","<div style=""font-size:60px;"">+</div>","null","","","","","","",""
"","","","","","audio-keyboard-response","446","2.0.0","337915","pmp97ju3xbt","ono","sheep","22","female","yes","yes","5-ish","yes, 1 hour","null","stimuli/sounds/dog_label_A.wav","null","","","","","","",""
"","","","","","html-keyboard-response","447","2.0.0","338916","pmp97ju3xbt","ono","sheep","22","female","yes","yes","5-ish","yes, 1 hour","null","","null","","","","","","",""
"","","","","","image-keyboard-response","448","2.0.0","339346","pmp97ju3xbt","ono","sheep","22","female","yes","yes","5-ish","yes, 1 hour","428","stimuli/pictures/drop_multi_2.jpg","0","0","","true","no","sound","stimuli/sounds/dog_label_A.wav",""
"","","","","","audio-keyboard-response","449","2.0.0","340349","pmp97ju3xbt","ono","sheep","22","female","yes","yes","5-ish","yes, 1 hour","null","stimuli/sounds/bleep.wav","null","","","","","","",""
"","","","","","html-keyboard-response","450","2.0.0","340804","pmp97ju3xbt","ono","sheep","22","female","yes","yes","5-ish","yes, 1 hour","352","<div style=""font-size:30px;"">Press space to start the trial</div>"," ","","","","","","",""
"","","","","","html-keyboard-response","451","2.0.0","341057","pmp97ju3xbt","ono","sheep","22","female","yes","yes","5-ish","yes, 1 hour","null","<div style=""font-size:60px;"">+</div>","null","","","","","","",""
"","","","","","audio-keyboard-response","452","2.0.0","341659","pmp97ju3xbt","ono","sheep","22","female","yes","yes","5-ish","yes, 1 hour","null","stimuli/sounds/hiccup_sound_B.wav","null","","","","","","",""
"","","","","","html-keyboard-response","453","2.0.0","342661","pmp97ju3xbt","ono","sheep","22","female","yes","yes","5-ish","yes, 1 hour","null","","null","","","","","","",""
"","","","","","image-keyboard-response","454","2.0.0","343265","pmp97ju3xbt","ono","sheep","22","female","yes","yes","5-ish","yes, 1 hour","602","stimuli/pictures/hiccup_wom_1.jpg","1","1","","true","no","sound","stimuli/sounds/hiccup_sound_B.wav",""
"","","","","","audio-keyboard-response","455","2.0.0","344267","pmp97ju3xbt","ono","sheep","22","female","yes","yes","5-ish","yes, 1 hour","null","stimuli/sounds/bleep.wav","null","","","","","","",""
"","","","","","html-keyboard-response","456","2.0.0","344695","pmp97ju3xbt","ono","sheep","22","female","yes","yes","5-ish","yes, 1 hour","324","<div style=""font-size:30px;"">Press space to start the trial</div>"," ","","","","","","",""
"","","","","","html-keyboard-response","457","2.0.0","344947","pmp97ju3xbt","ono","sheep","22","female","yes","yes","5-ish","yes, 1 hour","null","<div style=""font-size:60px;"">+</div>","null","","","","","","",""
