"success","timeout","failed_images","failed_audio","failed_video","trial_type","trial_index","plugin_version","time_elapsed","random_id","condition","participant","age","gender_id","mus_exp","inst_exp","years_exp","mus_listening","rt","stimulus","response","correct_response","practice","correct","congruent","sound_type","audio","question_order"
"true","false","[]","[]","[]","preload","0","2.0.0","1039","pobx0qoju5t","ono","panda","21","female","no","no","0","4","","","","","","","","","",""
"","","","","","html-keyboard-response","1","2.0.0","3174","pobx0qoju5t","ono","panda","21","female","no","no","0","4","2134","Welcome to the experiment! Press any key to begin."," ","","","","","","",""
"true","","","","","fullscreen","2","null","5836","pobx0qoju5t","ono","panda","21","female","no","no","0","4","1658","","","","","","","","",""
"","","","","","survey-text","3","2.0.0","8855","pobx0qoju5t","ono","panda","21","female","no","no","0","4","3013","","{""participant_id"":""panda""}","","","","","","",""
"","","","","","html-keyboard-response","4","2.0.0","19184","pobx0qoju5t","ono","panda","21","female","no","no","0","4","10326","
    <p> Please use headphones for the duration of the study.</p>
    <p> Within each trial, you will hear a sound and then be presented with an image in the center of your screen.</p>
    <p>Press the <b>'1'</b> key if what you hear <u>matches</u> what you see.</p>
    <p>Press the <b>'0'</b> key if what you hear <u>does not match</u> what you see.</p>
    <p>Try to respond as quickly and accurately as you can.</p>
    <p> Press any key to begin.</p>
    "," ","","","","","","",""
"","","","","","html-keyboard-response","5","2.0.0","21475","pobx0qoju5t","ono","panda","21","female","no","no","0","4","2290","
    <div style=""font-size:28px;"">
      <p>You will now complete 4 short practice trials.</p>
      <p>This is just to help you get familiar with the task.</p>
      <p>Press any key to begin.</p>
    </div>
  "," ","","","","","","",""
"","","","","","html-keyboard-response","6","2.0.0","21976","pobx0qoju5t","ono","panda","21","female","no","no","0","4","null","<div style=""font-size:60px;"">+</div>","null","","","","","","",""
"","","","","","audio-keyboard-response","7","2.0.0","22933","pobx0qoju5t","ono","panda","21","female","no","no","0","4","null","stimuli/sounds/guitar_label_A.wav","null","","","","","","",""
"","","","","","image-keyboard-response","8","2.0.0","23728","pobx0qoju5t","ono","panda","21","female","no","no","0","4","791","stimuli/pictures/guitar_acoustic_1.jpg","1","1","true","true","","","",""
"","","","","","audio-keyboard-response","9","2.0.0","24531","pobx0qoju5t","ono","panda","21","female","no","no","0","4","null","stimuli/sounds/bleep.wav","null","","","","","","",""
"","","","","","html-keyboard-response","10","2.0.0","25234","pobx0qoju5t","ono","panda","21","female","no","no","0","4","null","<p style='color:green; font-size:30px;'>Correct!</p>","null","","","","","","",""
"","","","","","html-keyboard-response","11","2.0.0","25737","pobx0qoju5t","ono","panda","21","female","no","no","0","4","null","<div style=""font-size:60px;"">+</div>","null","","","","","","",""
"","","","","","audio-keyboard-response","12","2.0.0","26341","pobx0qoju5t","ono","panda","21","female","no","no","0","4","null","stimuli/sounds/guitar_sound_B.wav","null","","","","","","",""
"","","","","","image-keyboard-response","13","2.0.0","27144","pobx0qoju5t","ono","panda","21","female","no","no","0","4","801","stimuli/pictures/guitar_acoustic_2.jpg","1","1","true","true","","","",""
"","","","","","audio-keyboard-response","14","2.0.0","27947","pobx0qoju5t","ono","panda","21","female","no","no","0","4","null","stimuli/sounds/bleep.wav","null","","","","","","",""
"","","","","","html-keyboard-response","15","2.0.0","28649","pobx0qoju5t","ono","panda","21","female","no","no","0","4","null","<p style='color:green; font-size:30px;'>Correct!</p>","null","","","","","","",""
"","","","","","html-keyboard-response","16","2.0.0","29152","pobx0qoju5t","ono","panda","21","female","no","no","0","4","null","<div style=""font-size:60px;"">+</div>","null","","","","","","",""
"","","","","","audio-keyboard-response","17","2.0.0","29754","pobx0qoju5t","ono","panda","21","female","no","no","0","4","null","stimuli/sounds/flute_sound_A.wav","null","","","","","","",""
"","","","","","image-keyboard-response","18","2.0.0","34980","pobx0qoju5t","ono","panda","21","female","no","no","0","4","5224","stimuli/pictures/guitar_electric_1.jpg","0","0","true","true","","","",""
"","","","","","audio-keyboard-response","19","2.0.0","35782","pobx0qoju5t","ono","panda","21","female","no","no","0","4","null","stimuli/sounds/bleep.wav","null","","","","","","",""
"","","","","","html-keyboard-response","20","2.0.0","36485","pobx0qoju5t","ono","panda","21","female","no","no","0","4","null","<p style='color:green; font-size:30px;'>Correct!</p>","null","","","","","","",""
"","","","","","html-keyboard-response","21","2.0.0","36987","pobx0qoju5t","ono","panda","21","female","no","no","0","4","null","<div style=""font-size:60px;"">+</div>","null","","","","","","",""
"","","","","","audio-keyboard-response","22","2.0.0","37589","pobx0qoju5t","ono","panda","21","female","no","no","0","4","null","stimuli/sounds/guitar_sound_A.wav","null","","","","","","",""
"","","","","","image-keyboard-response","23","2.0.0","38752","pobx0qoju5t","ono","panda","21","female","no","no","0","4","1162","stimuli/pictures/guitar_acoustic_1.jpg","0","1","true","false","","","",""
"","","","","","audio-keyboard-response","24","2.0.0","39554","pobx0qoju5t","ono","panda","21","female","no","no","0","4","null","stimuli/sounds/buzz.wav","null","","","","","","",""
"","","","","","html-keyboard-response","25","2.0.0","40257","pobx0qoju5t","ono","panda","21","female","no","no","0","4","null","<p style='color:red; font-size:30px;'>Incorrect</p>","null","","","","","","",""
"","","","","","html-keyboard-response","26","2.0.0","42514","pobx0qoju5t","ono","panda","21","female","no","no","0","4","2256","<p>Practice complete. Press any key to begin the real experiment.</p>"," ","","","","","","",""
"","","","","","html-keyboard-response","27","2.0.0","46032","pobx0qoju5t","ono","panda","21","female","no","no","0","4","3516","<div style=""font-size:30px;"">Press space to start the trial</div>"," ","","","","","","",""
"","","","","","html-keyboard-response","28","2.0.0","46284","pobx0qoju5t","ono","panda","21","female","no","no","0","4","null","<div style=""font-size:60px;"">+</div>","null","","","","","","",""
"","","","","","audio-keyboard-response","29","2.0.0","46917","pobx0qoju5t","ono","panda","21","female","no","no","0","4","null","stimuli/sounds/cough_label_A.wav","null","","","","","","",""
"","","","","","html-keyboard-response","30","2.0.0","47920","pobx0qoju5t","ono","panda","21","female","no","no","0","4","null","","null","","","","","","",""
"","","","","","image-keyboard-response","31","2.0.0","48508","pobx0qoju5t","ono","panda","21","female","no","no","0","4","586","stimuli/pictures/motor_dirt_2.jpg","0","0","","true","no","sound","stimuli/sounds/cough_label_A.wav",""
"","","","","","audio-keyboard-response","32","2.0.0","49512","pobx0qoju5t","ono","panda","21","female","no","no","0","4","null","stimuli/sounds/bleep.wav","null","","","","","","",""
"","","","","","html-keyboard-response","33","2.0.0","51607","pobx0qoju5t","ono","panda","21","female","no","no","0","4","1993","<div style=""font-size:30px;"">Press space to start the trial</div>"," ","","","","","","",""
"","","","","","html-keyboard-response","34","2.0.0","51859","pobx0qoju5t","ono","panda","21","female","no","no","0","4","null","<div style=""font-size:60px;"">+</div>","null","","","","","","",""
"","","","","","audio-keyboard-response","35","2.0.0","52469","pobx0qoju5t","ono","panda","21","female","no","no","0","4","null","stimuli/sounds/drop_label_B.wav","null","","","","","","",""
"","","","","","html-keyboard-response","36","2.0.0","53471","pobx0qoju5t","ono","panda","21","female","no","no","0","4","null","","null","","","","","","",""
"","","","","","image-keyboard-response","37","2.0.0","54398","pobx0qoju5t","ono","panda","21","female","no","no","0","4","926","stimuli/pictures/drop_multi_1.jpg","1","1","","true","yes","sound","stimuli/sounds/drop_label_B.wav",""
"","","","","","audio-keyboard-response","38","2.0.0","55401","pobx0qoju5t","ono","panda","21","female","no","no","0","4","null","stimuli/sounds/bleep.wav","null","","","","","","",""
"","","","","","html-keyboard-response","39","2.0.0","55537","pobx0qoju5t","ono","panda","21","female","no","no","0","4","34","<div style=""font-size:30px;"">Press space to start the trial</div>"," ","","","","","","",""
"","","","","","html-keyboard-response","40","2.0.0","55789","pobx0qoju5t","ono","panda","21","female","no","no","0","4","null","<div style=""font-size:60px;"">+</div>","null","","","","","","",""
"","","","","","audio-keyboard-response","41","2.0.0","56469","pobx0qoju5t","ono","panda","21","female","no","no","0","4","null","stimuli/sounds/cough_sound_B.wav","null","","","","","","",""
"","","","","","html-keyboard-response","42","2.0.0","57471","pobx0qoju5t","ono","panda","21","female","no","no","0","4","null","","null","","","","","","",""
"","","","","","image-keyboard-response","43","2.0.0","58514","pobx0qoju5t","ono","panda","21","female","no","no","0","4","1040","stimuli/pictures/cough_wom_1.jpg","1","1","","true","no","sound","stimuli/sounds/cough_sound_B.wav",""
"","","","","","audio-keyboard-response","44","2.0.0","59210","pobx0qoju5t","ono","panda","21","female","no","no","0","4","693","stimuli/sounds/bleep.wav"," ","","","","","","",""
"","","","","","html-keyboard-response","45","2.0.0","59812","pobx0qoju5t","ono","panda","21","female","no","no","0","4","501","<div style=""font-size:30px;"">Press space to start the trial</div>"," ","","","","","","",""
"","","","","","html-keyboard-response","46","2.0.0","60065","pobx0qoju5t","ono","panda","21","female","no","no","0","4","null","<div style=""font-size:60px;"">+</div>","null","","","","","","",""
"","","","","","audio-keyboard-response","47","2.0.0","60666","pobx0qoju5t","ono","panda","21","female","no","no","0","4","null","stimuli/sounds/motor_sound_B.wav","null","","","","","","",""
"","","","","","html-keyboard-response","48","2.0.0","61668","pobx0qoju5t","ono","panda","21","female","no","no","0","4","null","","null","","","","","","",""
"","","","","","image-keyboard-response","49","2.0.0","62370","pobx0qoju5t","ono","panda","21","female","no","no","0","4","699","stimuli/pictures/cough_wom_2.jpg","0","0","","true","no","sound","stimuli/sounds/motor_sound_B.wav",""
"","","","","","audio-keyboard-response","50","2.0.0","63373","pobx0qoju5t","ono","panda","21","female","no","no","0","4","null","stimuli/sounds/bleep.wav","null","","","","","","",""
"","","","","","html-keyboard-response","51","2.0.0","64097","pobx0qoju5t","ono","panda","21","female","no","no","0","4","621","<div style=""font-size:30px;"">Press space to start the trial</div>"," ","","","","","","",""
"","","","","","html-keyboard-response","52","2.0.0","64349","pobx0qoju5t","ono","panda","21","female","no","no","0","4","null","<div style=""font-size:60px;"">+</div>","null","","","","","","",""
"","","","","","audio-keyboard-response","53","2.0.0","64949","pobx0qoju5t","ono","panda","21","female","no","no","0","4","null","stimuli/sounds/dog_label_A.wav","null","","","","","","",""
"","","","","","html-keyboard-response","54","2.0.0","65951","pobx0qoju5t","ono","panda","21","female","no","no","0","4","null","","null","","","","","","",""
"","","","","","image-keyboard-response","55","2.0.0","66489","pobx0qoju5t","ono","panda","21","female","no","no","0","4","536","stimuli/pictures/dog_york_2.jpg","1","1","","true","yes","sound","stimuli/sounds/dog_label_A.wav",""
"","","","","","audio-keyboard-response","56","2.0.0","67065","pobx0qoju5t","ono","panda","21","female","no","no","0","4","571","stimuli/sounds/bleep.wav"," ","","","","","","",""
"","","","","","html-keyboard-response","57","2.0.0","67498","pobx0qoju5t","ono","panda","21","female","no","no","0","4","330","<div style=""font-size:30px;"">Press space to start the trial</div>"," ","","","","","","",""
"","","","","","html-keyboard-response","58","2.0.0","67750","pobx0qoju5t","ono","panda","21","female","no","no","0","4","null","<div style=""font-size:60px;"">+</div>","null","","","","","","",""
"","","","","","audio-keyboard-response","59","2.0.0","68335","pobx0qoju5t","ono","panda","21","female","no","no","0","4","null","stimuli/sounds/drop_sound_A.wav","null","","","","","","",""
"","","","","","html-keyboard-response","60","2.0.0","69338","pobx0qoju5t","ono","panda","21","female","no","no","0","4","null","","null","","","","","","",""
"","","","","","image-keyboard-response","61","2.0.0","69697","pobx0qoju5t","ono","panda","21","female","no","no","0","4","357","stimuli/pictures/drop_multi_2.jpg","1","1","","true","no","sound","stimuli/sounds/drop_sound_A.wav",""
"","","","","","audio-keyboard-response","62","2.0.0","70426","pobx0qoju5t","ono","panda","21","female","no","no","0","4","731","stimuli/sounds/bleep.wav"," ","","","","","","",""
"","","","","","html-keyboard-response","63","2.0.0","70804","pobx0qoju5t","ono","panda","21","female","no","no","0","4","275","<div style=""font-size:30px;"">Press space to start the trial</div>"," ","","","","","","",""
"","","","","","html-keyboard-response","64","2.0.0","71057","pobx0qoju5t","ono","panda","21","female","no","no","0","4","null","<div style=""font-size:60px;"">+</div>","null","","","","","","",""
"","","","","","audio-keyboard-response","65","2.0.0","71663","pobx0qoju5t","ono","panda","21","female","no","no","0","4","null","stimuli/sounds/cough_label_B.wav","null","","","","","","",""
"","","","","","html-keyboard-response","66","2.0.0","72666","pobx0qoju5t","ono","panda","21","female","no","no","0","4","null","","null","","","","","","",""
"","","","","","image-keyboard-response","67","2.0.0","73042","pobx0qoju5t","ono","panda","21","female","no","no","0","4","374","stimuli/pictures/cough_wom_2.jpg","1","1","","true","yes","sound","stimuli/sounds/cough_label_B.wav",""
"","","","","","audio-keyboard-response","68","2.0.0","74044","pobx0qoju5t","ono","panda","21","female","no","no","0","4","null","stimuli/sounds/bleep.wav","null","","","","","","",""
"","","","","","html-keyboard-response","69","2.0.0","74569","pobx0qoju5t","ono","panda","21","female","no","no","0","4","422","<div style=""font-size:30px;"">Press space to start the trial</div>"," ","","","","","","",""
"","","","","","html-keyboard-response","70","2.0.0","74821","pobx0qoju5t","ono","panda","21","female","no","no","0","4","null","<div style=""font-size:60px;"">+</div>","null","","","","","","",""
"","","","","","audio-keyboard-response","71","2.0.0","75423","pobx0qoju5t","ono","panda","21","female","no","no","0","4","null","stimuli/sounds/dog_sound_B.wav","null","","","","","","",""
"","","","","","html-keyboard-response","72","2.0.0","76425","pobx0qoju5t","ono","panda","21","female","no","no","0","4","null","","null","","","","","","",""
"","","","","","image-keyboard-response","73","2.0.0","76794","pobx0qoju5t","ono","panda","21","female","no","no","0","4","367","stimuli/pictures/motor_harley_2.jpg","0","0","","true","no","sound","stimuli/sounds/dog_sound_B.wav",""
"","","","","","audio-keyboard-response","74","2.0.0","77509","pobx0qoju5t","ono","panda","21","female","no","no","0","4","715","stimuli/sounds/bleep.wav"," ","","","","","","",""
"","","","","","html-keyboard-response","75","2.0.0","78061","pobx0qoju5t","ono","panda","21","female","no","no","0","4","450","<div style=""font-size:30px;"">Press space to start the trial</div>"," ","","","","","","",""
"","","","","","html-keyboard-response","76","2.0.0","78314","pobx0qoju5t","ono","panda","21","female","no","no","0","4","null","<div style=""font-size:60px;"">+</div>","null","","","","","","",""
"","","","","","audio-keyboard-response","77","2.0.0","78917","pobx0qoju5t","ono","panda","21","female","no","no","0","4","null","stimuli/sounds/motor_sound_A.wav","null","","","","","","",""
"","","","","","html-keyboard-response","78","2.0.0","79919","pobx0qoju5t","ono","panda","21","female","no","no","0","4","null","","null","","","","","","",""
"","","","","","image-keyboard-response","79","2.0.0","80395","pobx0qoju5t","ono","panda","21","female","no","no","0","4","475","stimuli/pictures/drop_single_2.jpg","0","0","","true","no","sound","stimuli/sounds/motor_sound_A.wav",""
"","","","","","audio-keyboard-response","80","2.0.0","81137","pobx0qoju5t","ono","panda","21","female","no","no","0","4","741","stimuli/sounds/bleep.wav"," ","","","","","","",""
"","","","","","html-keyboard-response","81","2.0.0","81549","pobx0qoju5t","ono","panda","21","female","no","no","0","4","310","<div style=""font-size:30px;"">Press space to start the trial</div>"," ","","","","","","",""
"","","","","","html-keyboard-response","82","2.0.0","81802","pobx0qoju5t","ono","panda","21","female","no","no","0","4","null","<div style=""font-size:60px;"">+</div>","null","","","","","","",""
"","","","","","audio-keyboard-response","83","2.0.0","82405","pobx0qoju5t","ono","panda","21","female","no","no","0","4","null","stimuli/sounds/motor_label_A.wav","null","","","","","","",""
"","","","","","html-keyboard-response","84","2.0.0","83407","pobx0qoju5t","ono","panda","21","female","no","no","0","4","null","","null","","","","","","",""
"","","","","","image-keyboard-response","85","2.0.0","83877","pobx0qoju5t","ono","panda","21","female","no","no","0","4","468","stimuli/pictures/dog_york_2.jpg","0","0","","true","no","sound","stimuli/sounds/motor_label_A.wav",""
"","","","","","audio-keyboard-response","86","2.0.0","84799","pobx0qoju5t","ono","panda","21","female","no","no","0","4","917","stimuli/sounds/bleep.wav"," ","","","","","","",""
"","","","","","html-keyboard-response","87","2.0.0","85204","pobx0qoju5t","ono","panda","21","female","no","no","0","4","304","<div style=""font-size:30px;"">Press space to start the trial</div>"," ","","","","","","",""
"","","","","","html-keyboard-response","88","2.0.0","85457","pobx0qoju5t","ono","panda","21","female","no","no","0","4","null","<div style=""font-size:60px;"">+</div>","null","","","","","","",""
"","","","","","audio-keyboard-response","89","2.0.0","86058","pobx0qoju5t","ono","panda","21","female","no","no","0","4","null","stimuli/sounds/dog_sound_B.wav","null","","","","","","",""
"","","","","","html-keyboard-response","90","2.0.0","87060","pobx0qoju5t","ono","panda","21","female","no","no","0","4","null","","null","","","","","","",""
"","","","","","image-keyboard-response","91","2.0.0","87488","pobx0qoju5t","ono","panda","21","female","no","no","0","4","427","stimuli/pictures/dog_york_2.jpg","1","1","","true","yes","sound","stimuli/sounds/dog_sound_B.wav",""
"","","","","","audio-keyboard-response","92","2.0.0","88491","pobx0qoju5t","ono","panda","21","female","no","no","0","4","null","stimuli/sounds/bleep.wav","null","","","","","","",""
"","","","","","html-keyboard-response","93","2.0.0","89004","pobx0qoju5t","ono","panda","21","female","no","no","0","4","412","<div style=""font-size:30px;"">Press space to start the trial</div>"," ","","","","","","",""
"","","","","","html-keyboard-response","94","2.0.0","89256","pobx0qoju5t","ono","panda","21","female","no","no","0","4","null","<div style=""font-size:60px;"">+</div>","null","","","","","","",""
"","","","","","audio-keyboard-response","95","2.0.0","89802","pobx0qoju5t","ono","panda","21","female","no","no","0","4","null","stimuli/sounds/drop_label_A.wav","null","","","","","","",""
"","","","","","html-keyboard-response","96","2.0.0","90804","pobx0qoju5t","ono","panda","21","female","no","no","0","4","null","","null","","","","","","",""
"","","","","","image-keyboard-response","97","2.0.0","91229","pobx0qoju5t","ono","panda","21","female","no","no","0","4","423","stimuli/pictures/drop_single_1.jpg","1","1","","true","yes","sound","stimuli/sounds/drop_label_A.wav",""
"","","","","","audio-keyboard-response","98","2.0.0","92192","pobx0qoju5t","ono","panda","21","female","no","no","0","4","965","stimuli/sounds/bleep.wav"," ","","","","","","",""
"","","","","","html-keyboard-response","99","2.0.0","92551","pobx0qoju5t","ono","panda","21","female","no","no","0","4","257","<div style=""font-size:30px;"">Press space to start the trial</div>"," ","","","","","","",""
"","","","","","html-keyboard-response","100","2.0.0","92804","pobx0qoju5t","ono","panda","21","female","no","no","0","4","null","<div style=""font-size:60px;"">+</div>","null","","","","","","",""
"","","","","","audio-keyboard-response","101","2.0.0","93407","pobx0qoju5t","ono","panda","21","female","no","no","0","4","null","stimuli/sounds/hiccup_sound_B.wav","null","","","","","","",""
"","","","","","html-keyboard-response","102","2.0.0","94410","pobx0qoju5t","ono","panda","21","female","no","no","0","4","null","","null","","","","","","",""
"","","","","","image-keyboard-response","103","2.0.0","94965","pobx0qoju5t","ono","panda","21","female","no","no","0","4","554","stimuli/pictures/drop_single_1.jpg","1","0","","false","no","sound","stimuli/sounds/hiccup_sound_B.wav",""
"","","","","","audio-keyboard-response","104","2.0.0","95967","pobx0qoju5t","ono","panda","21","female","no","no","0","4","null","stimuli/sounds/buzz.wav","null","","","","","","",""
"","","","","","html-keyboard-response","105","2.0.0","96695","pobx0qoju5t","ono","panda","21","female","no","no","0","4","625","<div style=""font-size:30px;"">Press space to start the trial</div>"," ","","","","","","",""
"","","","","","html-keyboard-response","106","2.0.0","96947","pobx0qoju5t","ono","panda","21","female","no","no","0","4","null","<div style=""font-size:60px;"">+</div>","null","","","","","","",""
"","","","","","audio-keyboard-response","107","2.0.0","97551","pobx0qoju5t","ono","panda","21","female","no","no","0","4","null","stimuli/sounds/cough_label_B.wav","null","","","","","","",""
"","","","","","html-keyboard-response","108","2.0.0","98554","pobx0qoju5t","ono","panda","21","female","no","no","0","4","null","","null","","","","","","",""
"","","","","","image-keyboard-response","109","2.0.0","99148","pobx0qoju5t","ono","panda","21","female","no","no","0","4","592","stimuli/pictures/drop_single_2.jpg","0","0","","true","no","sound","stimuli/sounds/cough_label_B.wav",""
"","","","","","audio-keyboard-response","110","2.0.0","100151","pobx0qoju5t","ono","panda","21","female","no","no","0","4","null","stimuli/sounds/bleep.wav","null","","","","","","",""
"","","","","","html-keyboard-response","111","2.0.0","100405","pobx0qoju5t","ono","panda","21","female","no","no","0","4","153","<div style=""font-size:30px;"">Press space to start the trial</div>"," ","","","","","","",""
"","","","","","html-keyboard-response","112","2.0.0","100658","pobx0qoju5t","ono","panda","21","female","no","no","0","4","null","<div style=""font-size:60px;"">+</div>","null","","","","","","",""
"","","","","","audio-keyboard-response","113","2.0.0","101258","pobx0qoju5t","ono","panda","21","female","no","no","0","4","null","stimuli/sounds/dog_label_A.wav","null","","","","","","",""
"","","","","","html-keyboard-response","114","2.0.0","102259","pobx0qoju5t","ono","panda","21","female","no","no","0","4","null","","null","","","","","","",""
"","","","","","image-keyboard-response","115","2.0.0","102681","pobx0qoju5t","ono","panda","21","female","no","no","0","4","420","stimuli/pictures/drop_multi_2.jpg","0","0","","true","no","sound","stimuli/sounds/dog_label_A.wav",""
"","","","","","audio-keyboard-response","116","2.0.0","103658","pobx0qoju5t","ono","panda","21","female","no","no","0","4","976","stimuli/sounds/bleep.wav"," ","","","","","","",""
"","","","","","html-keyboard-response","117","2.0.0","104071","pobx0qoju5t","ono","panda","21","female","no","no","0","4","310","<div style=""font-size:30px;"">Press space to start the trial</div>"," ","","","","","","",""
"","","","","","html-keyboard-response","118","2.0.0","104323","pobx0qoju5t","ono","panda","21","female","no","no","0","4","null","<div style=""font-size:60px;"">+</div>","null","","","","","","",""
"","","","","","audio-keyboard-response","119","2.0.0","104927","pobx0qoju5t","ono","panda","21","female","no","no","0","4","null","stimuli/sounds/motor_label_B.wav","null","","","","","","",""
"","","","","","html-keyboard-response","120","2.0.0","105929","pobx0qoju5t","ono","panda","21","female","no","no","0","4","null","","null","","","","","","",""
"","","","","","image-keyboard-response","121","2.0.0","106322","pobx0qoju5t","ono","panda","21","female","no","no","0","4","391","stimuli/pictures/hiccup_man_2.jpg","0","0","","true","no","sound","stimuli/sounds/motor_label_B.wav",""
"","","","","","audio-keyboard-response","122","2.0.0","107256","pobx0qoju5t","ono","panda","21","female","no","no","0","4","933","stimuli/sounds/bleep.wav"," ","","","","","","",""
"","","","","","html-keyboard-response","123","2.0.0","107593","pobx0qoju5t","ono","panda","21","female","no","no","0","4","236","<div style=""font-size:30px;"">Press space to start the trial</div>"," ","","","","","","",""
"","","","","","html-keyboard-response","124","2.0.0","107845","pobx0qoju5t","ono","panda","21","female","no","no","0","4","null","<div style=""font-size:60px;"">+</div>","null","","","","","","",""
"","","","","","audio-keyboard-response","125","2.0.0","108447","pobx0qoju5t","ono","panda","21","female","no","no","0","4","null","stimuli/sounds/dog_sound_A.wav","null","","","","","","",""
"","","","","","html-keyboard-response","126","2.0.0","109449","pobx0qoju5t","ono","panda","21","female","no","no","0","4","null","","null","","","","","","",""
"","","","","","image-keyboard-response","127","2.0.0","110036","pobx0qoju5t","ono","panda","21","female","no","no","0","4","585","stimuli/pictures/dog_york_2.jpg","1","1","","true","no","sound","stimuli/sounds/dog_sound_A.wav",""
"","","","","","audio-keyboard-response","128","2.0.0","111039","pobx0qoju5t","ono","panda","21","female","no","no","0","4","null","stimuli/sounds/bleep.wav","null","","","","","","",""
"","","","","","html-keyboard-response","129","2.0.0","111434","pobx0qoju5t","ono","panda","21","female","no","no","0","4","292","<div style=""font-size:30px;"">Press space to start the trial</div>"," ","","","","","","",""
"","","","","","html-keyboard-response","130","2.0.0","111685","pobx0qoju5t","ono","panda","21","female","no","no","0","4","null","<div style=""font-size:60px;"">+</div>","null","","","","","","",""
"","","","","","audio-keyboard-response","131","2.0.0","112287","pobx0qoju5t","ono","panda","21","female","no","no","0","4","null","stimuli/sounds/motor_sound_B.wav","null","","","","","","",""
"","","","","","html-keyboard-response","132","2.0.0","113289","pobx0qoju5t","ono","panda","21","female","no","no","0","4","null","","null","","","","","","",""
"","","","","","image-keyboard-response","133","2.0.0","113711","pobx0qoju5t","ono","panda","21","female","no","no","0","4","420","stimuli/pictures/motor_dirt_2.jpg","1","1","","true","no","sound","stimuli/sounds/motor_sound_B.wav",""
"","","","","","audio-keyboard-response","134","2.0.0","114714","pobx0qoju5t","ono","panda","21","female","no","no","0","4","null","stimuli/sounds/bleep.wav","null","","","","","","",""
"","","","","","html-keyboard-response","135","2.0.0","115180","pobx0qoju5t","ono","panda","21","female","no","no","0","4","363","<div style=""font-size:30px;"">Press space to start the trial</div>"," ","","","","","","",""
"","","","","","html-keyboard-response","136","2.0.0","115431","pobx0qoju5t","ono","panda","21","female","no","no","0","4","null","<div style=""font-size:60px;"">+</div>","null","","","","","","",""
"","","","","","audio-keyboard-response","137","2.0.0","116095","pobx0qoju5t","ono","panda","21","female","no","no","0","4","null","stimuli/sounds/cough_sound_A.wav","null","","","","","","",""
"","","","","","html-keyboard-response","138","2.0.0","117097","pobx0qoju5t","ono","panda","21","female","no","no","0","4","null","","null","","","","","","",""
"","","","","","image-keyboard-response","139","2.0.0","117852","pobx0qoju5t","ono","panda","21","female","no","no","0","4","753","stimuli/pictures/cough_wom_1.jpg","1","1","","true","yes","sound","stimuli/sounds/cough_sound_A.wav",""
"","","","","","audio-keyboard-response","140","2.0.0","118855","pobx0qoju5t","ono","panda","21","female","no","no","0","4","null","stimuli/sounds/bleep.wav","null","","","","","","",""
"","","","","","html-keyboard-response","141","2.0.0","118972","pobx0qoju5t","ono","panda","21","female","no","no","0","4","15","<div style=""font-size:30px;"">Press space to start the trial</div>"," ","","","","","","",""
"","","","","","html-keyboard-response","142","2.0.0","119224","pobx0qoju5t","ono","panda","21","female","no","no","0","4","null","<div style=""font-size:60px;"">+</div>","null","","","","","","",""
"","","","","","audio-keyboard-response","143","2.0.0","119828","pobx0qoju5t","ono","panda","21","female","no","no","0","4","null","stimuli/sounds/hiccup_label_B.wav","null","","","","","","",""
"","","","","","html-keyboard-response","144","2.0.0","120831","pobx0qoju5t","ono","panda","21","female","no","no","0","4","null","","null","","","","","","",""
"","","","","","image-keyboard-response","145","2.0.0","121322","pobx0qoju5t","ono","panda","21","female","no","no","0","4","489","stimuli/pictures/dog_rott_1.jpg","0","0","","true","no","sound","stimuli/sounds/hiccup_label_B.wav",""
"","","","","","audio-keyboard-response","146","2.0.0","122325","pobx0qoju5t","ono","panda","21","female","no","no","0","4","null","stimuli/sounds/bleep.wav","null","","","","","","",""
"","","","","","html-keyboard-response","147","2.0.0","124965","pobx0qoju5t","ono","panda","21","female","no","no","0","4","2538","<p>You have completed a block. Press R when you are ready to continue</p>","r","","","","","","",""
"","","","","","html-keyboard-response","148","2.0.0","127471","pobx0qoju5t","ono","panda","21","female","no","no","0","4","2505","<div style=""font-size:30px;"">Press space to start the trial</div>"," ","","","","","","",""
"","","","","","html-keyboard-response","149","2.0.0","127724","pobx0qoju5t","ono","panda","21","female","no","no","0","4","null","<div style=""font-size:60px;"">+</div>","null","","","","","","",""
"","","","","","audio-keyboard-response","150","2.0.0","128324","pobx0qoju5t","ono","panda","21","female","no","no","0","4","null","stimuli/sounds/motor_label_A.wav","null","","","","","","",""
"","","","","","html-keyboard-response","151","2.0.0","129327","pobx0qoju5t","ono","panda","21","female","no","no","0","4","null","","null","","","","","","",""
"","","","","","image-keyboard-response","152","2.0.0","129865","pobx0qoju5t","ono","panda","21","female","no","no","0","4","536","stimuli/pictures/dog_rott_1.jpg","0","0","","true","no","sound","stimuli/sounds/motor_label_A.wav",""
"","","","","","audio-keyboard-response","153","2.0.0","130867","pobx0qoju5t","ono","panda","21","female","no","no","0","4","null","stimuli/sounds/bleep.wav","null","","","","","","",""
"","","","","","html-keyboard-response","154","2.0.0","131178","pobx0qoju5t","ono","panda","21","female","no","no","0","4","209","<div style=""font-size:30px;"">Press space to start the trial</div>"," ","","","","","","",""
"","","","","","html-keyboard-response","155","2.0.0","131431","pobx0qoju5t","ono","panda","21","female","no","no","0","4","null","<div style=""font-size:60px;"">+</div>","null","","","","","","",""
"","","","","","audio-keyboard-response","156","2.0.0","132042","pobx0qoju5t","ono","panda","21","female","no","no","0","4","null","stimuli/sounds/drop_label_B.wav","null","","","","","","",""
"","","","","","html-keyboard-response","157","2.0.0","133044","pobx0qoju5t","ono","panda","21","female","no","no","0","4","null","","null","","","","","","",""
"","","","","","image-keyboard-response","158","2.0.0","133450","pobx0qoju5t","ono","panda","21","female","no","no","0","4","404","stimuli/pictures/drop_single_2.jpg","1","1","","true","yes","sound","stimuli/sounds/drop_label_B.wav",""
"","","","","","audio-keyboard-response","159","2.0.0","134453","pobx0qoju5t","ono","panda","21","female","no","no","0","4","null","stimuli/sounds/bleep.wav","null","","","","","","",""
"","","","","","html-keyboard-response","160","2.0.0","134792","pobx0qoju5t","ono","panda","21","female","no","no","0","4","236","<div style=""font-size:30px;"">Press space to start the trial</div>"," ","","","","","","",""
"","","","","","html-keyboard-response","161","2.0.0","135044","pobx0qoju5t","ono","panda","21","female","no","no","0","4","null","<div style=""font-size:60px;"">+</div>","null","","","","","","",""
"","","","","","audio-keyboard-response","162","2.0.0","135583","pobx0qoju5t","ono","panda","21","female","no","no","0","4","null","stimuli/sounds/hiccup_label_A.wav","null","","","","","","",""
"","","","","","html-keyboard-response","163","2.0.0","136586","pobx0qoju5t","ono","panda","21","female","no","no","0","4","null","","null","","","","","","",""
"","","","","","image-keyboard-response","164","2.0.0","137350","pobx0qoju5t","ono","panda","21","female","no","no","0","4","763","stimuli/pictures/cough_man_2.jpg","0","0","","true","no","sound","stimuli/sounds/hiccup_label_A.wav",""
"","","","","","audio-keyboard-response","165","2.0.0","138353","pobx0qoju5t","ono","panda","21","female","no","no","0","4","null","stimuli/sounds/bleep.wav","null","","","","","","",""
"","","","","","html-keyboard-response","166","2.0.0","138796","pobx0qoju5t","ono","panda","21","female","no","no","0","4","340","<div style=""font-size:30px;"">Press space to start the trial</div>"," ","","","","","","",""
"","","","","","html-keyboard-response","167","2.0.0","139048","pobx0qoju5t","ono","panda","21","female","no","no","0","4","null","<div style=""font-size:60px;"">+</div>","null","","","","","","",""
"","","","","","audio-keyboard-response","168","2.0.0","139647","pobx0qoju5t","ono","panda","21","female","no","no","0","4","null","stimuli/sounds/dog_sound_A.wav","null","","","","","","",""
"","","","","","html-keyboard-response","169","2.0.0","140649","pobx0qoju5t","ono","panda","21","female","no","no","0","4","null","","null","","","","","","",""
"","","","","","image-keyboard-response","170","2.0.0","141111","pobx0qoju5t","ono","panda","21","female","no","no","0","4","460","stimuli/pictures/dog_york_1.jpg","1","1","","true","no","sound","stimuli/sounds/dog_sound_A.wav",""
"","","","","","audio-keyboard-response","171","2.0.0","141709","pobx0qoju5t","ono","panda","21","female","no","no","0","4","597","stimuli/sounds/bleep.wav"," ","","","","","","",""
"","","","","","html-keyboard-response","172","2.0.0","142075","pobx0qoju5t","ono","panda","21","female","no","no","0","4","264","<div style=""font-size:30px;"">Press space to start the trial</div>"," ","","","","","","",""
"","","","","","html-keyboard-response","173","2.0.0","142327","pobx0qoju5t","ono","panda","21","female","no","no","0","4","null","<div style=""font-size:60px;"">+</div>","null","","","","","","",""
"","","","","","audio-keyboard-response","174","2.0.0","142927","pobx0qoju5t","ono","panda","21","female","no","no","0","4","null","stimuli/sounds/hiccup_sound_B.wav","null","","","","","","",""
"","","","","","html-keyboard-response","175","2.0.0","143929","pobx0qoju5t","ono","panda","21","female","no","no","0","4","null","","null","","","","","","",""
"","","","","","image-keyboard-response","176","2.0.0","144641","pobx0qoju5t","ono","panda","21","female","no","no","0","4","710","stimuli/pictures/hiccup_man_1.jpg","1","1","","true","yes","sound","stimuli/sounds/hiccup_sound_B.wav",""
"","","","","","audio-keyboard-response","177","2.0.0","145586","pobx0qoju5t","ono","panda","21","female","no","no","0","4","944","stimuli/sounds/bleep.wav"," ","","","","","","",""
"","","","","","html-keyboard-response","178","2.0.0","145984","pobx0qoju5t","ono","panda","21","female","no","no","0","4","295","<div style=""font-size:30px;"">Press space to start the trial</div>"," ","","","","","","",""
"","","","","","html-keyboard-response","179","2.0.0","146236","pobx0qoju5t","ono","panda","21","female","no","no","0","4","null","<div style=""font-size:60px;"">+</div>","null","","","","","","",""
"","","","","","audio-keyboard-response","180","2.0.0","146820","pobx0qoju5t","ono","panda","21","female","no","no","0","4","null","stimuli/sounds/drop_sound_A.wav","null","","","","","","",""
"","","","","","html-keyboard-response","181","2.0.0","147823","pobx0qoju5t","ono","panda","21","female","no","no","0","4","null","","null","","","","","","",""
"","","","","","image-keyboard-response","182","2.0.0","148239","pobx0qoju5t","ono","panda","21","female","no","no","0","4","415","stimuli/pictures/cough_wom_1.jpg","0","0","","true","no","sound","stimuli/sounds/drop_sound_A.wav",""
"","","","","","audio-keyboard-response","183","2.0.0","149242","pobx0qoju5t","ono","panda","21","female","no","no","0","4","null","stimuli/sounds/bleep.wav","null","","","","","","",""
"","","","","","html-keyboard-response","184","2.0.0","149370","pobx0qoju5t","ono","panda","21","female","no","no","0","4","26","<div style=""font-size:30px;"">Press space to start the trial</div>"," ","","","","","","",""
"","","","","","html-keyboard-response","185","2.0.0","149623","pobx0qoju5t","ono","panda","21","female","no","no","0","4","null","<div style=""font-size:60px;"">+</div>","null","","","","","","",""
"","","","","","audio-keyboard-response","186","2.0.0","150223","pobx0qoju5t","ono","panda","21","female","no","no","0","4","null","stimuli/sounds/dog_sound_B.wav","null","","","","","","",""
"","","","","","html-keyboard-response","187","2.0.0","151226","pobx0qoju5t","ono","panda","21","female","no","no","0","4","null","","null","","","","","","",""
"","","","","","image-keyboard-response","188","2.0.0","151628","pobx0qoju5t","ono","panda","21","female","no","no","0","4","401","stimuli/pictures/motor_dirt_1.jpg","0","0","","true","no","sound","stimuli/sounds/dog_sound_B.wav",""
"","","","","","audio-keyboard-response","189","2.0.0","152420","pobx0qoju5t","ono","panda","21","female","no","no","0","4","795","stimuli/sounds/bleep.wav"," ","","","","","","",""
"","","","","","html-keyboard-response","190","2.0.0","152844","pobx0qoju5t","ono","panda","21","female","no","no","0","4","321","<div style=""font-size:30px;"">Press space to start the trial</div>"," ","","","","","","",""
"","","","","","html-keyboard-response","191","2.0.0","153096","pobx0qoju5t","ono","panda","21","female","no","no","0","4","null","<div style=""font-size:60px;"">+</div>","null","","","","","","",""
"","","","","","audio-keyboard-response","192","2.0.0","153780","pobx0qoju5t","ono","panda","21","female","no","no","0","4","null","stimuli/sounds/cough_sound_B.wav","null","","","","","","",""
"","","","","","html-keyboard-response","193","2.0.0","154782","pobx0qoju5t","ono","panda","21","female","no","no","0","4","null","","null","","","","","","",""
"","","","","","image-keyboard-response","194","2.0.0","155236","pobx0qoju5t","ono","panda","21","female","no","no","0","4","451","stimuli/pictures/hiccup_man_1.jpg","1","0","","false","no","sound","stimuli/sounds/cough_sound_B.wav",""
"","","","","","audio-keyboard-response","195","2.0.0","156239","pobx0qoju5t","ono","panda","21","female","no","no","0","4","null","stimuli/sounds/buzz.wav","null","","","","","","",""
"","","","","","html-keyboard-response","196","2.0.0","156733","pobx0qoju5t","ono","panda","21","female","no","no","0","4","391","<div style=""font-size:30px;"">Press space to start the trial</div>"," ","","","","","","",""
"","","","","","html-keyboard-response","197","2.0.0","156984","pobx0qoju5t","ono","panda","21","female","no","no","0","4","null","<div style=""font-size:60px;"">+</div>","null","","","","","","",""
"","","","","","audio-keyboard-response","198","2.0.0","157583","pobx0qoju5t","ono","panda","21","female","no","no","0","4","null","stimuli/sounds/hiccup_sound_B.wav","null","","","","","","",""
"","","","","","html-keyboard-response","199","2.0.0","158585","pobx0qoju5t","ono","panda","21","female","no","no","0","4","null","","null","","","","","","",""
"","","","","","image-keyboard-response","200","2.0.0","159392","pobx0qoju5t","ono","panda","21","female","no","no","0","4","806","stimuli/pictures/hiccup_wom_2.jpg","1","1","","true","no","sound","stimuli/sounds/hiccup_sound_B.wav",""
"","","","","","audio-keyboard-response","201","2.0.0","160395","pobx0qoju5t","ono","panda","21","female","no","no","0","4","null","stimuli/sounds/bleep.wav","null","","","","","","",""
"","","","","","html-keyboard-response","202","2.0.0","161620","pobx0qoju5t","ono","panda","21","female","no","no","0","4","1123","<div style=""font-size:30px;"">Press space to start the trial</div>"," ","","","","","","",""
"","","","","","html-keyboard-response","203","2.0.0","161873","pobx0qoju5t","ono","panda","21","female","no","no","0","4","null","<div style=""font-size:60px;"">+</div>","null","","","","","","",""
"","","","","","audio-keyboard-response","204","2.0.0","162505","pobx0qoju5t","ono","panda","21","female","no","no","0","4","null","stimuli/sounds/cough_label_A.wav","null","","","","","","",""
"","","","","","html-keyboard-response","205","2.0.0","163507","pobx0qoju5t","ono","panda","21","female","no","no","0","4","null","","null","","","","","","",""
"","","","","","image-keyboard-response","206","2.0.0","163943","pobx0qoju5t","ono","panda","21","female","no","no","0","4","434","stimuli/pictures/motor_dirt_1.jpg","0","0","","true","no","sound","stimuli/sounds/cough_label_A.wav",""
"","","","","","audio-keyboard-response","207","2.0.0","164945","pobx0qoju5t","ono","panda","21","female","no","no","0","4","null","stimuli/sounds/bleep.wav","null","","","","","","",""
"","","","","","html-keyboard-response","208","2.0.0","166302","pobx0qoju5t","ono","panda","21","female","no","no","0","4","1254","<div style=""font-size:30px;"">Press space to start the trial</div>"," ","","","","","","",""
"","","","","","html-keyboard-response","209","2.0.0","166553","pobx0qoju5t","ono","panda","21","female","no","no","0","4","null","<div style=""font-size:60px;"">+</div>","null","","","","","","",""
"","","","","","audio-keyboard-response","210","2.0.0","167161","pobx0qoju5t","ono","panda","21","female","no","no","0","4","null","stimuli/sounds/cough_label_B.wav","null","","","","","","",""
"","","","","","html-keyboard-response","211","2.0.0","168164","pobx0qoju5t","ono","panda","21","female","no","no","0","4","null","","null","","","","","","",""
"","","","","","image-keyboard-response","212","2.0.0","168673","pobx0qoju5t","ono","panda","21","female","no","no","0","4","506","stimuli/pictures/drop_multi_2.jpg","0","0","","true","no","sound","stimuli/sounds/cough_label_B.wav",""
"","","","","","audio-keyboard-response","213","2.0.0","169676","pobx0qoju5t","ono","panda","21","female","no","no","0","4","null","stimuli/sounds/bleep.wav","null","","","","","","",""
"","","","","","html-keyboard-response","214","2.0.0","169968","pobx0qoju5t","ono","panda","21","female","no","no","0","4","191","<div style=""font-size:30px;"">Press space to start the trial</div>"," ","","","","","","",""
"","","","","","html-keyboard-response","215","2.0.0","170220","pobx0qoju5t","ono","panda","21","female","no","no","0","4","null","<div style=""font-size:60px;"">+</div>","null","","","","","","",""
"","","","","","audio-keyboard-response","216","2.0.0","170900","pobx0qoju5t","ono","panda","21","female","no","no","0","4","null","stimuli/sounds/cough_sound_B.wav","null","","","","","","",""
"","","","","","html-keyboard-response","217","2.0.0","171902","pobx0qoju5t","ono","panda","21","female","no","no","0","4","null","","null","","","","","","",""
"","","","","","image-keyboard-response","218","2.0.0","172337","pobx0qoju5t","ono","panda","21","female","no","no","0","4","433","stimuli/pictures/cough_wom_2.jpg","1","1","","true","no","sound","stimuli/sounds/cough_sound_B.wav",""
"","","","","","audio-keyboard-response","219","2.0.0","173340","pobx0qoju5t","ono","panda","21","female","no","no","0","4","null","stimuli/sounds/bleep.wav","null","","","","","","",""
"","","","","","html-keyboard-response","220","2.0.0","173912","pobx0qoju5t","ono","panda","21","female","no","no","0","4","471","<div style=""font-size:30px;"">Press space to start the trial</div>"," ","","","","","","",""
"","","","","","html-keyboard-response","221","2.0.0","174164","pobx0qoju5t","ono","panda","21","female","no","no","0","4","null","<div style=""font-size:60px;"">+</div>","null","","","","","","",""
"","","","","","audio-keyboard-response","222","2.0.0","174713","pobx0qoju5t","ono","panda","21","female","no","no","0","4","null","stimuli/sounds/drop_label_A.wav","null","","","","","","",""
"","","","","","html-keyboard-response","223","2.0.0","175715","pobx0qoju5t","ono","panda","21","female","no","no","0","4","null","","null","","","","","","",""
"","","","","","image-keyboard-response","224","2.0.0","176186","pobx0qoju5t","ono","panda","21","female","no","no","0","4","468","stimuli/pictures/hiccup_man_1.jpg","0","0","","true","no","sound","stimuli/sounds/drop_label_A.wav",""
"","","","","","audio-keyboard-response","225","2.0.0","177189","pobx0qoju5t","ono","panda","21","female","no","no","0","4","null","stimuli/sounds/bleep.wav","null","","","","","","",""
"","","","","","html-keyboard-response","226","2.0.0","177660","pobx0qoju5t","ono","panda","21","female","no","no","0","4","368","<div style=""font-size:30px;"">Press space to start the trial</div>"," ","","","","","","",""
"","","","","","html-keyboard-response","227","2.0.0","177911","pobx0qoju5t","ono","panda","21","female","no","no","0","4","null","<div style=""font-size:60px;"">+</div>","null","","","","","","",""
"","","","","","audio-keyboard-response","228","2.0.0","178457","pobx0qoju5t","ono","panda","21","female","no","no","0","4","null","stimuli/sounds/drop_label_A.wav","null","","","","","","",""
"","","","","","html-keyboard-response","229","2.0.0","179460","pobx0qoju5t","ono","panda","21","female","no","no","0","4","null","","null","","","","","","",""
"","","","","","image-keyboard-response","230","2.0.0","179886","pobx0qoju5t","ono","panda","21","female","no","no","0","4","424","stimuli/pictures/drop_single_2.jpg","1","1","","true","yes","sound","stimuli/sounds/drop_label_A.wav",""
"","","","","","audio-keyboard-response","231","2.0.0","180888","pobx0qoju5t","ono","panda","21","female","no","no","0","4","null","stimuli/sounds/bleep.wav","null","","","","","","",""
"","","","","","html-keyboard-response","232","2.0.0","181269","pobx0qoju5t","ono","panda","21","female","no","no","0","4","279","<div style=""font-size:30px;"">Press space to start the trial</div>"," ","","","","","","",""
"","","","","","html-keyboard-response","233","2.0.0","181522","pobx0qoju5t","ono","panda","21","female","no","no","0","4","null","<div style=""font-size:60px;"">+</div>","null","","","","","","",""
"","","","","","audio-keyboard-response","234","2.0.0","182121","pobx0qoju5t","ono","panda","21","female","no","no","0","4","null","stimuli/sounds/motor_label_A.wav","null","","","","","","",""
"","","","","","html-keyboard-response","235","2.0.0","183124","pobx0qoju5t","ono","panda","21","female","no","no","0","4","null","","null","","","","","","",""
"","","","","","image-keyboard-response","236","2.0.0","183563","pobx0qoju5t","ono","panda","21","female","no","no","0","4","437","stimuli/pictures/dog_rott_1.jpg","0","0","","true","no","sound","stimuli/sounds/motor_label_A.wav",""
"","","","","","audio-keyboard-response","237","2.0.0","184566","pobx0qoju5t","ono","panda","21","female","no","no","0","4","null","stimuli/sounds/bleep.wav","null","","","","","","",""
"","","","","","html-keyboard-response","238","2.0.0","184938","pobx0qoju5t","ono","panda","21","female","no","no","0","4","271","<div style=""font-size:30px;"">Press space to start the trial</div>"," ","","","","","","",""
"","","","","","html-keyboard-response","239","2.0.0","185191","pobx0qoju5t","ono","panda","21","female","no","no","0","4","null","<div style=""font-size:60px;"">+</div>","null","","","","","","",""
"","","","","","audio-keyboard-response","240","2.0.0","185791","pobx0qoju5t","ono","panda","21","female","no","no","0","4","null","stimuli/sounds/hiccup_sound_B.wav","null","","","","","","",""
"","","","","","html-keyboard-response","241","2.0.0","186793","pobx0qoju5t","ono","panda","21","female","no","no","0","4","null","","null","","","","","","",""
"","","","","","image-keyboard-response","242","2.0.0","187320","pobx0qoju5t","ono","panda","21","female","no","no","0","4","525","stimuli/pictures/drop_multi_1.jpg","0","0","","true","no","sound","stimuli/sounds/hiccup_sound_B.wav",""
"","","","","","audio-keyboard-response","243","2.0.0","188323","pobx0qoju5t","ono","panda","21","female","no","no","0","4","null","stimuli/sounds/bleep.wav","null","","","","","","",""
"","","","","","html-keyboard-response","244","2.0.0","188846","pobx0qoju5t","ono","panda","21","female","no","no","0","4","421","<div style=""font-size:30px;"">Press space to start the trial</div>"," ","","","","","","",""
"","","","","","html-keyboard-response","245","2.0.0","189099","pobx0qoju5t","ono","panda","21","female","no","no","0","4","null","<div style=""font-size:60px;"">+</div>","null","","","","","","",""
"","","","","","audio-keyboard-response","246","2.0.0","189700","pobx0qoju5t","ono","panda","21","female","no","no","0","4","null","stimuli/sounds/dog_label_B.wav","null","","","","","","",""
"","","","","","html-keyboard-response","247","2.0.0","190702","pobx0qoju5t","ono","panda","21","female","no","no","0","4","null","","null","","","","","","",""
"","","","","","image-keyboard-response","248","2.0.0","191254","pobx0qoju5t","ono","panda","21","female","no","no","0","4","550","stimuli/pictures/cough_wom_2.jpg","0","0","","true","no","sound","stimuli/sounds/dog_label_B.wav",""
"","","","","","audio-keyboard-response","249","2.0.0","192256","pobx0qoju5t","ono","panda","21","female","no","no","0","4","null","stimuli/sounds/bleep.wav","null","","","","","","",""
"","","","","","html-keyboard-response","250","2.0.0","192858","pobx0qoju5t","ono","panda","21","female","no","no","0","4","500","<div style=""font-size:30px;"">Press space to start the trial</div>"," ","","","","","","",""
"","","","","","html-keyboard-response","251","2.0.0","193111","pobx0qoju5t","ono","panda","21","female","no","no","0","4","null","<div style=""font-size:60px;"">+</div>","null","","","","","","",""
"","","","","","audio-keyboard-response","252","2.0.0","193743","pobx0qoju5t","ono","panda","21","female","no","no","0","4","null","stimuli/sounds/cough_label_A.wav","null","","","","","","",""
"","","","","","html-keyboard-response","253","2.0.0","194745","pobx0qoju5t","ono","panda","21","female","no","no","0","4","null","","null","","","","","","",""
"","","","","","image-keyboard-response","254","2.0.0","195313","pobx0qoju5t","ono","panda","21","female","no","no","0","4","566","stimuli/pictures/motor_harley_2.jpg","1","0","","false","no","sound","stimuli/sounds/cough_label_A.wav",""
"","","","","","audio-keyboard-response","255","2.0.0","196316","pobx0qoju5t","ono","panda","21","female","no","no","0","4","null","stimuli/sounds/buzz.wav","null","","","","","","",""
"","","","","","html-keyboard-response","256","2.0.0","196673","pobx0qoju5t","ono","panda","21","female","no","no","0","4","255","<div style=""font-size:30px;"">Press space to start the trial</div>"," ","","","","","","",""
"","","","","","html-keyboard-response","257","2.0.0","196925","pobx0qoju5t","ono","panda","21","female","no","no","0","4","null","<div style=""font-size:60px;"">+</div>","null","","","","","","",""
"","","","","","audio-keyboard-response","258","2.0.0","197524","pobx0qoju5t","ono","panda","21","female","no","no","0","4","null","stimuli/sounds/dog_sound_B.wav","null","","","","","","",""
"","","","","","html-keyboard-response","259","2.0.0","198526","pobx0qoju5t","ono","panda","21","female","no","no","0","4","null","","null","","","","","","",""
"","","","","","image-keyboard-response","260","2.0.0","198956","pobx0qoju5t","ono","panda","21","female","no","no","0","4","428","stimuli/pictures/motor_harley_1.jpg","0","0","","true","no","sound","stimuli/sounds/dog_sound_B.wav",""
"","","","","","audio-keyboard-response","261","2.0.0","199959","pobx0qoju5t","ono","panda","21","female","no","no","0","4","null","stimuli/sounds/bleep.wav","null","","","","","","",""
"","","","","","html-keyboard-response","262","2.0.0","200359","pobx0qoju5t","ono","panda","21","female","no","no","0","4","298","<div style=""font-size:30px;"">Press space to start the trial</div>"," ","","","","","","",""
"","","","","","html-keyboard-response","263","2.0.0","200611","pobx0qoju5t","ono","panda","21","female","no","no","0","4","null","<div style=""font-size:60px;"">+</div>","null","","","","","","",""
"","","","","","audio-keyboard-response","264","2.0.0","201161","pobx0qoju5t","ono","panda","21","female","no","no","0","4","null","stimuli/sounds/drop_label_A.wav","null","","","","","","",""
"","","","","","html-keyboard-response","265","2.0.0","202164","pobx0qoju5t","ono","panda","21","female","no","no","0","4","null","","null","","","","","","",""
"","","","","","image-keyboard-response","266","2.0.0","202578","pobx0qoju5t","ono","panda","21","female","no","no","0","4","412","stimuli/pictures/drop_multi_1.jpg","1","1","","true","yes","sound","stimuli/sounds/drop_label_A.wav",""
"","","","","","audio-keyboard-response","267","2.0.0","203581","pobx0qoju5t","ono","panda","21","female","no","no","0","4","null","stimuli/sounds/bleep.wav","null","","","","","","",""
"","","","","","html-keyboard-response","268","2.0.0","213731","pobx0qoju5t","ono","panda","21","female","no","no","0","4","10048","<p>You have completed a block. Press R when you are ready to continue</p>","r","","","","","","",""
"","","","","","html-keyboard-response","269","2.0.0","215081","pobx0qoju5t","ono","panda","21","female","no","no","0","4","1348","<div style=""font-size:30px;"">Press space to start the trial</div>"," ","","","","","","",""
"","","","","","html-keyboard-response","270","2.0.0","215333","pobx0qoju5t","ono","panda","21","female","no","no","0","4","null","<div style=""font-size:60px;"">+</div>","null","","","","","","",""
"","","","","","audio-keyboard-response","271","2.0.0","215934","pobx0qoju5t","ono","panda","21","female","no","no","0","4","null","stimuli/sounds/motor_sound_A.wav","null","","","","","","",""
"","","","","","html-keyboard-response","272","2.0.0","216936","pobx0qoju5t","ono","panda","21","female","no","no","0","4","null","","null","","","","","","",""
"","","","","","image-keyboard-response","273","2.0.0","218015","pobx0qoju5t","ono","panda","21","female","no","no","0","4","1077","stimuli/pictures/drop_multi_1.jpg","0","0","","true","no","sound","stimuli/sounds/motor_sound_A.wav",""
"","","","","","audio-keyboard-response","274","2.0.0","219017","pobx0qoju5t","ono","panda","21","female","no","no","0","4","null","stimuli/sounds/bleep.wav","null","","","","","","",""
"","","","","","html-keyboard-response","275","2.0.0","219176","pobx0qoju5t","ono","panda","21","female","no","no","0","4","56","<div style=""font-size:30px;"">Press space to start the trial</div>"," ","","","","","","",""
"","","","","","html-keyboard-response","276","2.0.0","219429","pobx0qoju5t","ono","panda","21","female","no","no","0","4","null","<div style=""font-size:60px;"">+</div>","null","","","","","","",""
"","","","","","audio-keyboard-response","277","2.0.0","220030","pobx0qoju5t","ono","panda","21","female","no","no","0","4","null","stimuli/sounds/dog_label_B.wav","null","","","","","","",""
"","","","","","html-keyboard-response","278","2.0.0","221033","pobx0qoju5t","ono","panda","21","female","no","no","0","4","null","","null","","","","","","",""
"","","","","","image-keyboard-response","279","2.0.0","221562","pobx0qoju5t","ono","panda","21","female","no","no","0","4","528","stimuli/pictures/dog_rott_1.jpg","1","1","","true","yes","sound","stimuli/sounds/dog_label_B.wav",""
"","","","","","audio-keyboard-response","280","2.0.0","222565","pobx0qoju5t","ono","panda","21","female","no","no","0","4","null","stimuli/sounds/bleep.wav","null","","","","","","",""
"","","","","","html-keyboard-response","281","2.0.0","223518","pobx0qoju5t","ono","panda","21","female","no","no","0","4","851","<div style=""font-size:30px;"">Press space to start the trial</div>"," ","","","","","","",""
"","","","","","html-keyboard-response","282","2.0.0","223770","pobx0qoju5t","ono","panda","21","female","no","no","0","4","null","<div style=""font-size:60px;"">+</div>","null","","","","","","",""
"","","","","","audio-keyboard-response","283","2.0.0","224382","pobx0qoju5t","ono","panda","21","female","no","no","0","4","null","stimuli/sounds/drop_label_B.wav","null","","","","","","",""
"","","","","","html-keyboard-response","284","2.0.0","225384","pobx0qoju5t","ono","panda","21","female","no","no","0","4","null","","null","","","","","","",""
"","","","","","image-keyboard-response","285","2.0.0","225824","pobx0qoju5t","ono","panda","21","female","no","no","0","4","438","stimuli/pictures/motor_dirt_2.jpg","0","0","","true","no","sound","stimuli/sounds/drop_label_B.wav",""
"","","","","","audio-keyboard-response","286","2.0.0","226765","pobx0qoju5t","ono","panda","21","female","no","no","0","4","939","stimuli/sounds/bleep.wav"," ","","","","","","",""
"","","","","","html-keyboard-response","287","2.0.0","227263","pobx0qoju5t","ono","panda","21","female","no","no","0","4","396","<div style=""font-size:30px;"">Press space to start the trial</div>"," ","","","","","","",""
"","","","","","html-keyboard-response","288","2.0.0","227515","pobx0qoju5t","ono","panda","21","female","no","no","0","4","null","<div style=""font-size:60px;"">+</div>","null","","","","","","",""
"","","","","","audio-keyboard-response","289","2.0.0","228121","pobx0qoju5t","ono","panda","21","female","no","no","0","4","null","stimuli/sounds/hiccup_label_B.wav","null","","","","","","",""
"","","","","","html-keyboard-response","290","2.0.0","229124","pobx0qoju5t","ono","panda","21","female","no","no","0","4","null","","null","","","","","","",""
"","","","","","image-keyboard-response","291","2.0.0","229519","pobx0qoju5t","ono","panda","21","female","no","no","0","4","393","stimuli/pictures/dog_rott_1.jpg","0","0","","true","no","sound","stimuli/sounds/hiccup_label_B.wav",""
"","","","","","audio-keyboard-response","292","2.0.0","230240","pobx0qoju5t","ono","panda","21","female","no","no","0","4","720","stimuli/sounds/bleep.wav"," ","","","","","","",""
"","","","","","html-keyboard-response","293","2.0.0","230649","pobx0qoju5t","ono","panda","21","female","no","no","0","4","307","<div style=""font-size:30px;"">Press space to start the trial</div>"," ","","","","","","",""
"","","","","","html-keyboard-response","294","2.0.0","230902","pobx0qoju5t","ono","panda","21","female","no","no","0","4","null","<div style=""font-size:60px;"">+</div>","null","","","","","","",""
"","","","","","audio-keyboard-response","295","2.0.0","231502","pobx0qoju5t","ono","panda","21","female","no","no","0","4","null","stimuli/sounds/motor_sound_A.wav","null","","","","","","",""
"","","","","","html-keyboard-response","296","2.0.0","232504","pobx0qoju5t","ono","panda","21","female","no","no","0","4","null","","null","","","","","","",""
"","","","","","image-keyboard-response","297","2.0.0","232913","pobx0qoju5t","ono","panda","21","female","no","no","0","4","407","stimuli/pictures/motor_dirt_1.jpg","1","1","","true","yes","sound","stimuli/sounds/motor_sound_A.wav",""
"","","","","","audio-keyboard-response","298","2.0.0","233902","pobx0qoju5t","ono","panda","21","female","no","no","0","4","987","stimuli/sounds/bleep.wav"," ","","","","","","",""
"","","","","","html-keyboard-response","299","2.0.0","234318","pobx0qoju5t","ono","panda","21","female","no","no","0","4","313","<div style=""font-size:30px;"">Press space to start the trial</div>"," ","","","","","","",""
"","","","","","html-keyboard-response","300","2.0.0","234570","pobx0qoju5t","ono","panda","21","female","no","no","0","4","null","<div style=""font-size:60px;"">+</div>","null","","","","","","",""
"","","","","","audio-keyboard-response","301","2.0.0","235172","pobx0qoju5t","ono","panda","21","female","no","no","0","4","null","stimuli/sounds/motor_sound_A.wav","null","","","","","","",""
"","","","","","html-keyboard-response","302","2.0.0","236173","pobx0qoju5t","ono","panda","21","female","no","no","0","4","null","","null","","","","","","",""
"","","","","","image-keyboard-response","303","2.0.0","236530","pobx0qoju5t","ono","panda","21","female","no","no","0","4","355","stimuli/pictures/drop_multi_2.jpg","0","0","","true","no","sound","stimuli/sounds/motor_sound_A.wav",""
"","","","","","audio-keyboard-response","304","2.0.0","236948","pobx0qoju5t","ono","panda","21","female","no","no","0","4","416","stimuli/sounds/bleep.wav"," ","","","","","","",""
"","","","","","html-keyboard-response","305","2.0.0","237320","pobx0qoju5t","ono","panda","21","female","no","no","0","4","270","<div style=""font-size:30px;"">Press space to start the trial</div>"," ","","","","","","",""
"","","","","","html-keyboard-response","306","2.0.0","237573","pobx0qoju5t","ono","panda","21","female","no","no","0","4","null","<div style=""font-size:60px;"">+</div>","null","","","","","","",""
"","","","","","audio-keyboard-response","307","2.0.0","238180","pobx0qoju5t","ono","panda","21","female","no","no","0","4","null","stimuli/sounds/hiccup_label_B.wav","null","","","","","","",""
"","","","","","html-keyboard-response","308","2.0.0","239182","pobx0qoju5t","ono","panda","21","female","no","no","0","4","null","","null","","","","","","",""
"","","","","","image-keyboard-response","309","2.0.0","239688","pobx0qoju5t","ono","panda","21","female","no","no","0","4","504","stimuli/pictures/dog_york_1.jpg","0","0","","true","no","sound","stimuli/sounds/hiccup_label_B.wav",""
"","","","","","audio-keyboard-response","310","2.0.0","240128","pobx0qoju5t","ono","panda","21","female","no","no","0","4","443","stimuli/sounds/bleep.wav"," ","","","","","","",""
"","","","","","html-keyboard-response","311","2.0.0","240701","pobx0qoju5t","ono","panda","21","female","no","no","0","4","472","<div style=""font-size:30px;"">Press space to start the trial</div>"," ","","","","","","",""
"","","","","","html-keyboard-response","312","2.0.0","240954","pobx0qoju5t","ono","panda","21","female","no","no","0","4","null","<div style=""font-size:60px;"">+</div>","null","","","","","","",""
"","","","","","audio-keyboard-response","313","2.0.0","241620","pobx0qoju5t","ono","panda","21","female","no","no","0","4","null","stimuli/sounds/cough_sound_A.wav","null","","","","","","",""
"","","","","","html-keyboard-response","314","2.0.0","242622","pobx0qoju5t","ono","panda","21","female","no","no","0","4","null","","null","","","","","","",""
"","","","","","image-keyboard-response","315","2.0.0","243136","pobx0qoju5t","ono","panda","21","female","no","no","0","4","512","stimuli/pictures/dog_rott_1.jpg","0","0","","true","no","sound","stimuli/sounds/cough_sound_A.wav",""
"","","","","","audio-keyboard-response","316","2.0.0","244005","pobx0qoju5t","ono","panda","21","female","no","no","0","4","869","stimuli/sounds/bleep.wav"," ","","","","","","",""
"","","","","","html-keyboard-response","317","2.0.0","244445","pobx0qoju5t","ono","panda","21","female","no","no","0","4","338","<div style=""font-size:30px;"">Press space to start the trial</div>"," ","","","","","","",""
"","","","","","html-keyboard-response","318","2.0.0","244698","pobx0qoju5t","ono","panda","21","female","no","no","0","4","null","<div style=""font-size:60px;"">+</div>","null","","","","","","",""
"","","","","","audio-keyboard-response","319","2.0.0","245284","pobx0qoju5t","ono","panda","21","female","no","no","0","4","null","stimuli/sounds/drop_sound_A.wav","null","","","","","","",""
"","","","","","html-keyboard-response","320","2.0.0","246287","pobx0qoju5t","ono","panda","21","female","no","no","0","4","null","","null","","","","","","",""
"","","","","","image-keyboard-response","321","2.0.0","246746","pobx0qoju5t","ono","panda","21","female","no","no","0","4","458","stimuli/pictures/cough_man_1.jpg","0","0","","true","no","sound","stimuli/sounds/drop_sound_A.wav",""
"","","","","","audio-keyboard-response","322","2.0.0","247749","pobx0qoju5t","ono","panda","21","female","no","no","0","4","null","stimuli/sounds/bleep.wav","null","","","","","","",""
"","","","","","html-keyboard-response","323","2.0.0","248324","pobx0qoju5t","ono","panda","21","female","no","no","0","4","473","<div style=""font-size:30px;"">Press space to start the trial</div>"," ","","","","","","",""
"","","","","","html-keyboard-response","324","2.0.0","248576","pobx0qoju5t","ono","panda","21","female","no","no","0","4","null","<div style=""font-size:60px;"">+</div>","null","","","","","","",""
"","","","","","audio-keyboard-response","325","2.0.0","249177","pobx0qoju5t","ono","panda","21","female","no","no","0","4","null","stimuli/sounds/dog_label_B.wav","null","","","","","","",""
"","","","","","html-keyboard-response","326","2.0.0","250179","pobx0qoju5t","ono","panda","21","female","no","no","0","4","null","","null","","","","","","",""
"","","","","","image-keyboard-response","327","2.0.0","250619","pobx0qoju5t","ono","panda","21","female","no","no","0","4","438","stimuli/pictures/dog_york_1.jpg","1","1","","true","yes","sound","stimuli/sounds/dog_label_B.wav",""
"","","","","","audio-keyboard-response","328","2.0.0","251622","pobx0qoju5t","ono","panda","21","female","no","no","0","4","null","stimuli/sounds/bleep.wav","null","","","","","","",""
"","","","","","html-keyboard-response","329","2.0.0","251960","pobx0qoju5t","ono","panda","21","female","no","no","0","4","236","<div style=""font-size:30px;"">Press space to start the trial</div>"," ","","","","","","",""
"","","","","","html-keyboard-response","330","2.0.0","252212","pobx0qoju5t","ono","panda","21","female","no","no","0","4","null","<div style=""font-size:60px;"">+</div>","null","","","","","","",""
"","","","","","audio-keyboard-response","331","2.0.0","252814","pobx0qoju5t","ono","panda","21","female","no","no","0","4","null","stimuli/sounds/hiccup_sound_B.wav","null","","","","","","",""
"","","","","","html-keyboard-response","332","2.0.0","253815","pobx0qoju5t","ono","panda","21","female","no","no","0","4","null","","null","","","","","","",""
"","","","","","image-keyboard-response","333","2.0.0","254206","pobx0qoju5t","ono","panda","21","female","no","no","0","4","389","stimuli/pictures/drop_single_2.jpg","0","0","","true","no","sound","stimuli/sounds/hiccup_sound_B.wav",""
"","","","","","audio-keyboard-response","334","2.0.0","255082","pobx0qoju5t","ono","panda","21","female","no","no","0","4","875","stimuli/sounds/bleep.wav"," ","","","","","","",""
"","","","","","html-keyboard-response","335","2.0.0","255484","pobx0qoju5t","ono","panda","21","female","no","no","0","4","299","<div style=""font-size:30px;"">Press space to start the trial</div>"," ","","","","","","",""
"","","","","","html-keyboard-response","336","2.0.0","255736","pobx0qoju5t","ono","panda","21","female","no","no","0","4","null","<div style=""font-size:60px;"">+</div>","null","","","","","","",""
"","","","","","audio-keyboard-response","337","2.0.0","256398","pobx0qoju5t","ono","panda","21","female","no","no","0","4","null","stimuli/sounds/cough_sound_A.wav","null","","","","","","",""
"","","","","","html-keyboard-response","338","2.0.0","257401","pobx0qoju5t","ono","panda","21","female","no","no","0","4","null","","null","","","","","","",""
"","","","","","image-keyboard-response","339","2.0.0","257963","pobx0qoju5t","ono","panda","21","female","no","no","0","4","561","stimuli/pictures/cough_man_2.jpg","0","1","","false","no","sound","stimuli/sounds/cough_sound_A.wav",""
"","","","","","audio-keyboard-response","340","2.0.0","258966","pobx0qoju5t","ono","panda","21","female","no","no","0","4","null","stimuli/sounds/buzz.wav","null","","","","","","",""
"","","","","","html-keyboard-response","341","2.0.0","259711","pobx0qoju5t","ono","panda","21","female","no","no","0","4","643","<div style=""font-size:30px;"">Press space to start the trial</div>"," ","","","","","","",""
"","","","","","html-keyboard-response","342","2.0.0","259963","pobx0qoju5t","ono","panda","21","female","no","no","0","4","null","<div style=""font-size:60px;"">+</div>","null","","","","","","",""
"","","","","","audio-keyboard-response","343","2.0.0","260564","pobx0qoju5t","ono","panda","21","female","no","no","0","4","null","stimuli/sounds/hiccup_sound_B.wav","null","","","","","","",""
"","","","","","html-keyboard-response","344","2.0.0","261566","pobx0qoju5t","ono","panda","21","female","no","no","0","4","null","","null","","","","","","",""
"","","","","","image-keyboard-response","345","2.0.0","262242","pobx0qoju5t","ono","panda","21","female","no","no","0","4","674","stimuli/pictures/hiccup_wom_1.jpg","1","1","","true","no","sound","stimuli/sounds/hiccup_sound_B.wav",""
"","","","","","audio-keyboard-response","346","2.0.0","263245","pobx0qoju5t","ono","panda","21","female","no","no","0","4","null","stimuli/sounds/bleep.wav","null","","","","","","",""
"","","","","","html-keyboard-response","347","2.0.0","263669","pobx0qoju5t","ono","panda","21","female","no","no","0","4","322","<div style=""font-size:30px;"">Press space to start the trial</div>"," ","","","","","","",""
"","","","","","html-keyboard-response","348","2.0.0","263922","pobx0qoju5t","ono","panda","21","female","no","no","0","4","null","<div style=""font-size:60px;"">+</div>","null","","","","","","",""
"","","","","","audio-keyboard-response","349","2.0.0","264521","pobx0qoju5t","ono","panda","21","female","no","no","0","4","null","stimuli/sounds/dog_label_B.wav","null","","","","","","",""
"","","","","","html-keyboard-response","350","2.0.0","265524","pobx0qoju5t","ono","panda","21","female","no","no","0","4","null","","null","","","","","","",""
"","","","","","image-keyboard-response","351","2.0.0","265892","pobx0qoju5t","ono","panda","21","female","no","no","0","4","366","stimuli/pictures/dog_york_2.jpg","1","1","","true","yes","sound","stimuli/sounds/dog_label_B.wav",""
"","","","","","audio-keyboard-response","352","2.0.0","266895","pobx0qoju5t","ono","panda","21","female","no","no","0","4","null","stimuli/sounds/bleep.wav","null","","","","","","",""
"","","","","","html-keyboard-response","353","2.0.0","267383","pobx0qoju5t","ono","panda","21","female","no","no","0","4","385","<div style=""font-size:30px;"">Press space to start the trial</div>"," ","","","","","","",""
"","","","","","html-keyboard-response","354","2.0.0","267636","pobx0qoju5t","ono","panda","21","female","no","no","0","4","null","<div style=""font-size:60px;"">+</div>","null","","","","","","",""
"","","","","","audio-keyboard-response","355","2.0.0","268318","pobx0qoju5t","ono","panda","21","female","no","no","0","4","null","stimuli/sounds/cough_sound_B.wav","null","","","","","","",""
"","","","","","html-keyboard-response","356","2.0.0","269321","pobx0qoju5t","ono","panda","21","female","no","no","0","4","null","","null","","","","","","",""
"","","","","","image-keyboard-response","357","2.0.0","270309","pobx0qoju5t","ono","panda","21","female","no","no","0","4","987","stimuli/pictures/hiccup_wom_1.jpg","0","0","","true","no","sound","stimuli/sounds/cough_sound_B.wav",""
"","","","","","audio-keyboard-response","358","2.0.0","271312","pobx0qoju5t","ono","panda","21","female","no","no","0","4","null","stimuli/sounds/bleep.wav","null","","","","","","",""
"","","","","","html-keyboard-response","359","2.0.0","271937","pobx0qoju5t","ono","panda","21","female","no","no","0","4","522","<div style=""font-size:30px;"">Press space to start the trial</div>"," ","","","","","","",""
"","","","","","html-keyboard-response","360","2.0.0","272189","pobx0qoju5t","ono","panda","21","female","no","no","0","4","null","<div style=""font-size:60px;"">+</div>","null","","","","","","",""
"","","","","","audio-keyboard-response","361","2.0.0","272777","pobx0qoju5t","ono","panda","21","female","no","no","0","4","null","stimuli/sounds/drop_sound_A.wav","null","","","","","","",""
"","","","","","html-keyboard-response","362","2.0.0","273779","pobx0qoju5t","ono","panda","21","female","no","no","0","4","null","","null","","","","","","",""
"","","","","","image-keyboard-response","363","2.0.0","274256","pobx0qoju5t","ono","panda","21","female","no","no","0","4","475","stimuli/pictures/cough_man_2.jpg","0","0","","true","no","sound","stimuli/sounds/drop_sound_A.wav",""
"","","","","","audio-keyboard-response","364","2.0.0","275259","pobx0qoju5t","ono","panda","21","female","no","no","0","4","null","stimuli/sounds/bleep.wav","null","","","","","","",""
"","","","","","html-keyboard-response","365","2.0.0","275991","pobx0qoju5t","ono","panda","21","female","no","no","0","4","629","<div style=""font-size:30px;"">Press space to start the trial</div>"," ","","","","","","",""
"","","","","","html-keyboard-response","366","2.0.0","276244","pobx0qoju5t","ono","panda","21","female","no","no","0","4","null","<div style=""font-size:60px;"">+</div>","null","","","","","","",""
"","","","","","audio-keyboard-response","367","2.0.0","276910","pobx0qoju5t","ono","panda","21","female","no","no","0","4","null","stimuli/sounds/cough_sound_A.wav","null","","","","","","",""
"","","","","","html-keyboard-response","368","2.0.0","277912","pobx0qoju5t","ono","panda","21","female","no","no","0","4","null","","null","","","","","","",""
"","","","","","image-keyboard-response","369","2.0.0","278400","pobx0qoju5t","ono","panda","21","female","no","no","0","4","486","stimuli/pictures/cough_wom_2.jpg","1","1","","true","yes","sound","stimuli/sounds/cough_sound_A.wav",""
"","","","","","audio-keyboard-response","370","2.0.0","279403","pobx0qoju5t","ono","panda","21","female","no","no","0","4","null","stimuli/sounds/bleep.wav","null","","","","","","",""
"","","","","","html-keyboard-response","371","2.0.0","279938","pobx0qoju5t","ono","panda","21","female","no","no","0","4","433","<div style=""font-size:30px;"">Press space to start the trial</div>"," ","","","","","","",""
"","","","","","html-keyboard-response","372","2.0.0","280190","pobx0qoju5t","ono","panda","21","female","no","no","0","4","null","<div style=""font-size:60px;"">+</div>","null","","","","","","",""
"","","","","","audio-keyboard-response","373","2.0.0","280798","pobx0qoju5t","ono","panda","21","female","no","no","0","4","null","stimuli/sounds/drop_sound_B.wav","null","","","","","","",""
"","","","","","html-keyboard-response","374","2.0.0","281801","pobx0qoju5t","ono","panda","21","female","no","no","0","4","null","","null","","","","","","",""
"","","","","","image-keyboard-response","375","2.0.0","282210","pobx0qoju5t","ono","panda","21","female","no","no","0","4","407","stimuli/pictures/drop_multi_1.jpg","1","1","","true","yes","sound","stimuli/sounds/drop_sound_B.wav",""
"","","","","","audio-keyboard-response","376","2.0.0","283213","pobx0qoju5t","ono","panda","21","female","no","no","0","4","null","stimuli/sounds/bleep.wav","null","","","","","","",""
"","","","","","html-keyboard-response","377","2.0.0","283477","pobx0qoju5t","ono","panda","21","female","no","no","0","4","162","<div style=""font-size:30px;"">Press space to start the trial</div>"," ","","","","","","",""
"","","","","","html-keyboard-response","378","2.0.0","283729","pobx0qoju5t","ono","panda","21","female","no","no","0","4","null","<div style=""font-size:60px;"">+</div>","null","","","","","","",""
"","","","","","audio-keyboard-response","379","2.0.0","284329","pobx0qoju5t","ono","panda","21","female","no","no","0","4","null","stimuli/sounds/motor_label_A.wav","null","","","","","","",""
"","","","","","html-keyboard-response","380","2.0.0","285331","pobx0qoju5t","ono","panda","21","female","no","no","0","4","null","","null","","","","","","",""
"","","","","","image-keyboard-response","381","2.0.0","285797","pobx0qoju5t","ono","panda","21","female","no","no","0","4","464","stimuli/pictures/motor_harley_1.jpg","1","1","","true","yes","sound","stimuli/sounds/motor_label_A.wav",""
"","","","","","audio-keyboard-response","382","2.0.0","286799","pobx0qoju5t","ono","panda","21","female","no","no","0","4","null","stimuli/sounds/bleep.wav","null","","","","","","",""
"","","","","","html-keyboard-response","383","2.0.0","287059","pobx0qoju5t","ono","panda","21","female","no","no","0","4","157","<div style=""font-size:30px;"">Press space to start the trial</div>"," ","","","","","","",""
"","","","","","html-keyboard-response","384","2.0.0","287311","pobx0qoju5t","ono","panda","21","female","no","no","0","4","null","<div style=""font-size:60px;"">+</div>","null","","","","","","",""
"","","","","","audio-keyboard-response","385","2.0.0","287945","pobx0qoju5t","ono","panda","21","female","no","no","0","4","null","stimuli/sounds/cough_label_A.wav","null","","","","","","",""
"","","","","","html-keyboard-response","386","2.0.0","288947","pobx0qoju5t","ono","panda","21","female","no","no","0","4","null","","null","","","","","","",""
"","","","","","image-keyboard-response","387","2.0.0","289586","pobx0qoju5t","ono","panda","21","female","no","no","0","4","637","stimuli/pictures/cough_wom_2.jpg","1","1","","true","yes","sound","stimuli/sounds/cough_label_A.wav",""
"","","","","","audio-keyboard-response","388","2.0.0","290589","pobx0qoju5t","ono","panda","21","female","no","no","0","4","null","stimuli/sounds/bleep.wav","null","","","","","","",""
"","","","","","html-keyboard-response","389","2.0.0","299607","pobx0qoju5t","ono","panda","21","female","no","no","0","4","8917","<p>You have completed a block. Press R when you are ready to continue</p>","r","","","","","","",""
"","","","","","html-keyboard-response","390","2.0.0","301504","pobx0qoju5t","ono","panda","21","female","no","no","0","4","1896","<div style=""font-size:30px;"">Press space to start the trial</div>"," ","","","","","","",""
"","","","","","html-keyboard-response","391","2.0.0","301756","pobx0qoju5t","ono","panda","21","female","no","no","0","4","null","<div style=""font-size:60px;"">+</div>","null","","","","","","",""
"","","","","","audio-keyboard-response","392","2.0.0","302355","pobx0qoju5t","ono","panda","21","female","no","no","0","4","null","stimuli/sounds/dog_label_B.wav","null","","","","","","",""
"","","","","","html-keyboard-response","393","2.0.0","303358","pobx0qoju5t","ono","panda","21","female","no","no","0","4","null","","null","","","","","","",""
"","","","","","image-keyboard-response","394","2.0.0","303872","pobx0qoju5t","ono","panda","21","female","no","no","0","4","512","stimuli/pictures/dog_rott_2.jpg","1","1","","true","yes","sound","stimuli/sounds/dog_label_B.wav",""
"","","","","","audio-keyboard-response","395","2.0.0","304646","pobx0qoju5t","ono","panda","21","female","no","no","0","4","773","stimuli/sounds/bleep.wav"," ","","","","","","",""
"","","","","","html-keyboard-response","396","2.0.0","305012","pobx0qoju5t","ono","panda","21","female","no","no","0","4","264","<div style=""font-size:30px;"">Press space to start the trial</div>"," ","","","","","","",""
"","","","","","html-keyboard-response","397","2.0.0","305264","pobx0qoju5t","ono","panda","21","female","no","no","0","4","null","<div style=""font-size:60px;"">+</div>","null","","","","","","",""
"","","","","","audio-keyboard-response","398","2.0.0","305865","pobx0qoju5t","ono","panda","21","female","no","no","0","4","null","stimuli/sounds/motor_label_A.wav","null","","","","","","",""
"","","","","","html-keyboard-response","399","2.0.0","306867","pobx0qoju5t","ono","panda","21","female","no","no","0","4","null","","null","","","","","","",""
"","","","","","image-keyboard-response","400","2.0.0","307247","pobx0qoju5t","ono","panda","21","female","no","no","0","4","378","stimuli/pictures/motor_harley_2.jpg","1","1","","true","yes","sound","stimuli/sounds/motor_label_A.wav",""
"","","","","","audio-keyboard-response","401","2.0.0","308250","pobx0qoju5t","ono","panda","21","female","no","no","0","4","null","stimuli/sounds/bleep.wav","null","","","","","","",""
"","","","","","html-keyboard-response","402","2.0.0","308727","pobx0qoju5t","ono","panda","21","female","no","no","0","4","375","<div style=""font-size:30px;"">Press space to start the trial</div>"," ","","","","","","",""
"","","","","","html-keyboard-response","403","2.0.0","308979","pobx0qoju5t","ono","panda","21","female","no","no","0","4","null","<div style=""font-size:60px;"">+</div>","null","","","","","","",""
"","","","","","audio-keyboard-response","404","2.0.0","309587","pobx0qoju5t","ono","panda","21","female","no","no","0","4","null","stimuli/sounds/hiccup_sound_A.wav","null","","","","","","",""
"","","","","","html-keyboard-response","405","2.0.0","310589","pobx0qoju5t","ono","panda","21","female","no","no","0","4","null","","null","","","","","","",""
"","","","","","image-keyboard-response","406","2.0.0","311186","pobx0qoju5t","ono","panda","21","female","no","no","0","4","595","stimuli/pictures/motor_harley_2.jpg","0","0","","true","no","sound","stimuli/sounds/hiccup_sound_A.wav",""
"","","","","","audio-keyboard-response","407","2.0.0","312188","pobx0qoju5t","ono","panda","21","female","no","no","0","4","null","stimuli/sounds/bleep.wav","null","","","","","","",""
"","","","","","html-keyboard-response","408","2.0.0","312552","pobx0qoju5t","ono","panda","21","female","no","no","0","4","261","<div style=""font-size:30px;"">Press space to start the trial</div>"," ","","","","","","",""
"","","","","","html-keyboard-response","409","2.0.0","312805","pobx0qoju5t","ono","panda","21","female","no","no","0","4","null","<div style=""font-size:60px;"">+</div>","null","","","","","","",""
"","","","","","audio-keyboard-response","410","2.0.0","313411","pobx0qoju5t","ono","panda","21","female","no","no","0","4","null","stimuli/sounds/hiccup_sound_A.wav","null","","","","","","",""
"","","","","","html-keyboard-response","411","2.0.0","314414","pobx0qoju5t","ono","panda","21","female","no","no","0","4","null","","null","","","","","","",""
"","","","","","image-keyboard-response","412","2.0.0","315193","pobx0qoju5t","ono","panda","21","female","no","no","0","4","777","stimuli/pictures/hiccup_wom_2.jpg","1","1","","true","yes","sound","stimuli/sounds/hiccup_sound_A.wav",""
"","","","","","audio-keyboard-response","413","2.0.0","316196","pobx0qoju5t","ono","panda","21","female","no","no","0","4","null","stimuli/sounds/bleep.wav","null","","","","","","",""
"","","","","","html-keyboard-response","414","2.0.0","316650","pobx0qoju5t","ono","panda","21","female","no","no","0","4","352","<div style=""font-size:30px;"">Press space to start the trial</div>"," ","","","","","","",""
"","","","","","html-keyboard-response","415","2.0.0","316902","pobx0qoju5t","ono","panda","21","female","no","no","0","4","null","<div style=""font-size:60px;"">+</div>","null","","","","","","",""
"","","","","","audio-keyboard-response","416","2.0.0","317438","pobx0qoju5t","ono","panda","21","female","no","no","0","4","null","stimuli/sounds/hiccup_label_A.wav","null","","","","","","",""
"","","","","","html-keyboard-response","417","2.0.0","318440","pobx0qoju5t","ono","panda","21","female","no","no","0","4","null","","null","","","","","","",""
"","","","","","image-keyboard-response","418","2.0.0","318983","pobx0qoju5t","ono","panda","21","female","no","no","0","4","542","stimuli/pictures/hiccup_wom_1.jpg","1","1","","true","yes","sound","stimuli/sounds/hiccup_label_A.wav",""
"","","","","","audio-keyboard-response","419","2.0.0","319986","pobx0qoju5t","ono","panda","21","female","no","no","0","4","null","stimuli/sounds/bleep.wav","null","","","","","","",""
"","","","","","html-keyboard-response","420","2.0.0","320352","pobx0qoju5t","ono","panda","21","female","no","no","0","4","264","<div style=""font-size:30px;"">Press space to start the trial</div>"," ","","","","","","",""
"","","","","","html-keyboard-response","421","2.0.0","320604","pobx0qoju5t","ono","panda","21","female","no","no","0","4","null","<div style=""font-size:60px;"">+</div>","null","","","","","","",""
"","","","","","audio-keyboard-response","422","2.0.0","321203","pobx0qoju5t","ono","panda","21","female","no","no","0","4","null","stimuli/sounds/dog_sound_B.wav","null","","","","","","",""
"","","","","","html-keyboard-response","423","2.0.0","322206","pobx0qoju5t","ono","panda","21","female","no","no","0","4","null","","null","","","","","","",""
"","","","","","image-keyboard-response","424","2.0.0","322682","pobx0qoju5t","ono","panda","21","female","no","no","0","4","475","stimuli/pictures/motor_dirt_2.jpg","0","0","","true","no","sound","stimuli/sounds/dog_sound_B.wav",""
"","","","","","audio-keyboard-response","425","2.0.0","323685","pobx0qoju5t","ono","panda","21","female","no","no","0","4","null","stimuli/sounds/bleep.wav","null","","","","","","",""
"","","","","","html-keyboard-response","426","2.0.0","323914","pobx0qoju5t","ono","panda","21","female","no","no","0","4","126","<div style=""font-size:30px;"">Press space to start the trial</div>"," ","","","","","","",""
"","","","","","html-keyboard-response","427","2.0.0","324167","pobx0qoju5t","ono","panda","21","female","no","no","0","4","null","<div style=""font-size:60px;"">+</div>","null","","","","","","",""
"","","","","","audio-keyboard-response","428","2.0.0","324798","pobx0qoju5t","ono","panda","21","female","no","no","0","4","null","stimuli/sounds/cough_label_A.wav","null","","","","","","",""
"","","","","","html-keyboard-response","429","2.0.0","325800","pobx0qoju5t","ono","panda","21","female","no","no","0","4","null","","null","","","","","","",""
"","","","","","image-keyboard-response","430","2.0.0","326191","pobx0qoju5t","ono","panda","21","female","no","no","0","4","389","stimuli/pictures/cough_man_2.jpg","1","1","","true","yes","sound","stimuli/sounds/cough_label_A.wav",""
"","","","","","audio-keyboard-response","431","2.0.0","327195","pobx0qoju5t","ono","panda","21","female","no","no","0","4","null","stimuli/sounds/bleep.wav","null","","","","","","",""
"","","","","","html-keyboard-response","432","2.0.0","327509","pobx0qoju5t","ono","panda","21","female","no","no","0","4","212","<div style=""font-size:30px;"">Press space to start the trial</div>"," ","","","","","","",""
"","","","","","html-keyboard-response","433","2.0.0","327762","pobx0qoju5t","ono","panda","21","female","no","no","0","4","null","<div style=""font-size:60px;"">+</div>","null","","","","","","",""
"","","","","","audio-keyboard-response","434","2.0.0","328366","pobx0qoju5t","ono","panda","21","female","no","no","0","4","null","stimuli/sounds/drop_sound_B.wav","null","","","","","","",""
"","","","","","html-keyboard-response","435","2.0.0","329368","pobx0qoju5t","ono","panda","21","female","no","no","0","4","null","","null","","","","","","",""
"","","","","","image-keyboard-response","436","2.0.0","329766","pobx0qoju5t","ono","panda","21","female","no","no","0","4","396","stimuli/pictures/drop_single_1.jpg","1","1","","true","no","sound","stimuli/sounds/drop_sound_B.wav",""
"","","","","","audio-keyboard-response","437","2.0.0","330769","pobx0qoju5t","ono","panda","21","female","no","no","0","4","null","stimuli/sounds/bleep.wav","null","","","","","","",""
"","","","","","html-keyboard-response","438","2.0.0","331500","pobx0qoju5t","ono","panda","21","female","no","no","0","4","629","<div style=""font-size:30px;"">Press space to start the trial</div>"," ","","","","","","",""
"","","","","","html-keyboard-response","439","2.0.0","331753","pobx0qoju5t","ono","panda","21","female","no","no","0","4","null","<div style=""font-size:60px;"">+</div>","null","","","","","","",""
"","","","","","audio-keyboard-response","440","2.0.0","332360","pobx0qoju5t","ono","panda","21","female","no","no","0","4","null","stimuli/sounds/hiccup_label_B.wav","null","","","","","","",""
"","","","","","html-keyboard-response","441","2.0.0","333363","pobx0qoju5t","ono","panda","21","female","no","no","0","4","null","","null","","","","","","",""
"","","","","","image-keyboard-response","442","2.0.0","333812","pobx0qoju5t","ono","panda","21","female","no","no","0","4","447","stimuli/pictures/hiccup_wom_2.jpg","1","1","","true","yes","sound","stimuli/sounds/hiccup_label_B.wav",""
"","","","","","audio-keyboard-response","443","2.0.0","334815","pobx0qoju5t","ono","panda","21","female","no","no","0","4","null","stimuli/sounds/bleep.wav","null","","","","","","",""
"","","","","","html-keyboard-response","444","2.0.0","335289","pobx0qoju5t","ono","panda","21","female","no","no","0","4","372","<div style=""font-size:30px;"">Press space to start the trial</div>"," ","","","","","","",""
"","","","","","html-keyboard-response","445","2.0.0","335542","pobx0qoju5t","ono","panda","21","female","no","no","0","4","null","<div style=""font-size:60px;"">+</div>","null","","","","","","",""
"","","","","","audio-keyboard-response","446","2.0.0","336142","pobx0qoju5t","ono","panda","21","female","no","no","0","4","null","stimuli/sounds/motor_sound_A.wav","null","","","","","","",""
"","","","","","html-keyboard-response","447","2.0.0","337144","pobx0qoju5t","ono","panda","21","female","no","no","0","4","null","","null","","","","","","",""
"","","","","","image-keyboard-response","448","2.0.0","337600","pobx0qoju5t","ono","panda","21","female","no","no","0","4","454","stimuli/pictures/motor_harley_1.jpg","1","1","","true","no","sound","stimuli/sounds/motor_sound_A.wav",""
"","","","","","audio-keyboard-response","449","2.0.0","338603","pobx0qoju5t","ono","panda","21","female","no","no","0","4","null","stimuli/sounds/bleep.wav","null","","","","","","",""
"","","","","","html-keyboard-response","450","2.0.0","339115","pobx0qoju5t","ono","panda","21","female","no","no","0","4","409","<div style=""font-size:30px;"">Press space to start the trial</div>"," ","","","","","","",""
"","","","","","html-keyboard-response","451","2.0.0","339367","pobx0qoju5t","ono","panda","21","female","no","no","0","4","null","<div style=""font-size:60px;"">+</div>","null","","","","","","",""
"","","","","","audio-keyboard-response","452","2.0.0","339950","pobx0qoju5t","ono","panda","21","female","no","no","0","4","null","stimuli/sounds/drop_sound_A.wav","null","","","","","","",""
"","","","","","html-keyboard-response","453","2.0.0","340952","pobx0qoju5t","ono","panda","21","female","no","no","0","4","null","","null","","","","","","",""
"","","","","","image-keyboard-response","454","2.0.0","341329","pobx0qoju5t","ono","panda","21","female","no","no","0","4","375","stimuli/pictures/drop_multi_1.jpg","1","1","","true","no","sound","stimuli/sounds/drop_sound_A.wav",""
"","","","","","audio-keyboard-response","455","2.0.0","342189","pobx0qoju5t","ono","panda","21","female","no","no","0","4","859","stimuli/sounds/bleep.wav"," ","","","","","","",""
"","","","","","html-keyboard-response","456","2.0.0","342656","pobx0qoju5t","ono","panda","21","female","no","no","0","4","364","<div style=""font-size:30px;"">Press space to start the trial</div>"," ","","","","","","",""
"","","","","","html-keyboard-response","457","2.0.0","342909","pobx0qoju5t","ono","panda","21","female","no","no","0","4","null","<div style=""font-size:60px;"">+</div>","null","","","","","","",""
"","","","","","audio-keyboard-response","458","2.0.0","343592","pobx0qoju5t","ono","panda","21","female","no","no","0","4","null","stimuli/sounds/cough_sound_B.wav","null","","","","","","",""
"","","","","","html-keyboard-response","459","2.0.0","344595","pobx0qoju5t","ono","panda","21","female","no","no","0","4","null","","null","","","","","","",""
"","","","","","image-keyboard-response","460","2.0.0","345494","pobx0qoju5t","ono","panda","21","female","no","no","0","4","897","stimuli/pictures/cough_man_1.jpg","0","1","","false","yes","sound","stimuli/sounds/cough_sound_B.wav",""
"","","","","","audio-keyboard-response","461","2.0.0","346497","pobx0qoju5t","ono","panda","21","female","no","no","0","4","null","stimuli/sounds/buzz.wav","null","","","","","","",""
"","","","","","html-keyboard-response","462","2.0.0","347196","pobx0qoju5t","ono","panda","21","female","no","no","0","4","597","<div style=""font-size:30px;"">Press space to start the trial</div>"," ","","","","","","",""
"","","","","","html-keyboard-response","463","2.0.0","347448","pobx0qoju5t","ono","panda","21","female","no","no","0","4","null","<div style=""font-size:60px;"">+</div>","null","","","","","","",""
"","","","","","audio-keyboard-response","464","2.0.0","348056","pobx0qoju5t","ono","panda","21","female","no","no","0","4","null","stimuli/sounds/hiccup_label_B.wav","null","","","","","","",""
"","","","","","html-keyboard-response","465","2.0.0","349059","pobx0qoju5t","ono","panda","21","female","no","no","0","4","null","","null","","","","","","",""
"","","","","","image-keyboard-response","466","2.0.0","349620","pobx0qoju5t","ono","panda","21","female","no","no","0","4","560","stimuli/pictures/hiccup_man_1.jpg","1","1","","true","yes","sound","stimuli/sounds/hiccup_label_B.wav",""
"","","","","","audio-keyboard-response","467","2.0.0","350623","pobx0qoju5t","ono","panda","21","female","no","no","0","4","null","stimuli/sounds/bleep.wav","null","","","","","","",""
"","","","","","html-keyboard-response","468","2.0.0","350725","pobx0qoju5t","ono","panda","21","female","no","no","0","4","0","<div style=""font-size:30px;"">Press space to start the trial</div>"," ","","","","","","",""
"","","","","","html-keyboard-response","469","2.0.0","350977","pobx0qoju5t","ono","panda","21","female","no","no","0","4","null","<div style=""font-size:60px;"">+</div>","null","","","","","","",""
"","","","","","audio-keyboard-response","470","2.0.0","351576","pobx0qoju5t","ono","panda","21","female","no","no","0","4","null","stimuli/sounds/dog_sound_B.wav","null","","","","","","",""
"","","","","","html-keyboard-response","471","2.0.0","352577","pobx0qoju5t","ono","panda","21","female","no","no","0","4","null","","null","","","","","","",""
"","","","","","image-keyboard-response","472","2.0.0","353045","pobx0qoju5t","ono","panda","21","female","no","no","0","4","467","stimuli/pictures/dog_rott_2.jpg","1","1","","true","no","sound","stimuli/sounds/dog_sound_B.wav",""
"","","","","","audio-keyboard-response","473","2.0.0","353340","pobx0qoju5t","ono","panda","21","female","no","no","0","4","293","stimuli/sounds/bleep.wav"," ","","","","","","",""
"","","","","","html-keyboard-response","474","2.0.0","354263","pobx0qoju5t","ono","panda","21","female","no","no","0","4","822","<div style=""font-size:30px;"">Press space to start the trial</div>"," ","","","","","","",""
"","","","","","html-keyboard-response","475","2.0.0","354515","pobx0qoju5t","ono","panda","21","female","no","no","0","4","null","<div style=""font-size:60px;"">+</div>","null","","","","","","",""
"","","","","","audio-keyboard-response","476","2.0.0","355123","pobx0qoju5t","ono","panda","21","female","no","no","0","4","null","stimuli/sounds/drop_sound_B.wav","null","","","","","","",""
"","","","","","html-keyboard-response","477","2.0.0","356126","pobx0qoju5t","ono","panda","21","female","no","no","0","4","null","","null","","","","","","",""
"","","","","","image-keyboard-response","478","2.0.0","356661","pobx0qoju5t","ono","panda","21","female","no","no","0","4","535","stimuli/pictures/dog_rott_1.jpg","0","0","","true","no","sound","stimuli/sounds/drop_sound_B.wav",""
"","","","","","audio-keyboard-response","479","2.0.0","357664","pobx0qoju5t","ono","panda","21","female","no","no","0","4","null","stimuli/sounds/bleep.wav","null","","","","","","",""
"","","","","","html-keyboard-response","480","2.0.0","358178","pobx0qoju5t","ono","panda","21","female","no","no","0","4","412","<div style=""font-size:30px;"">Press space to start the trial</div>"," ","","","","","","",""
"","","","","","html-keyboard-response","481","2.0.0","358431","pobx0qoju5t","ono","panda","21","female","no","no","0","4","null","<div style=""font-size:60px;"">+</div>","null","","","","","","",""
"","","","","","audio-keyboard-response","482","2.0.0","359032","pobx0qoju5t","ono","panda","21","female","no","no","0","4","null","stimuli/sounds/motor_label_B.wav","null","","","","","","",""
"","","","","","html-keyboard-response","483","2.0.0","360033","pobx0qoju5t","ono","panda","21","female","no","no","0","4","null","","null","","","","","","",""
"","","","","","image-keyboard-response","484","2.0.0","360774","pobx0qoju5t","ono","panda","21","female","no","no","0","4","740","stimuli/pictures/hiccup_man_1.jpg","0","0","","true","no","sound","stimuli/sounds/motor_label_B.wav",""
"","","","","","audio-keyboard-response","485","2.0.0","361777","pobx0qoju5t","ono","panda","21","female","no","no","0","4","null","stimuli/sounds/bleep.wav","null","","","","","","",""
"","","","","","html-keyboard-response","486","2.0.0","362222","pobx0qoju5t","ono","panda","21","female","no","no","0","4","343","<div style=""font-size:30px;"">Press space to start the trial</div>"," ","","","","","","",""
"","","","","","html-keyboard-response","487","2.0.0","362475","pobx0qoju5t","ono","panda","21","female","no","no","0","4","null","<div style=""font-size:60px;"">+</div>","null","","","","","","",""
"","","","","","audio-keyboard-response","488","2.0.0","363075","pobx0qoju5t","ono","panda","21","female","no","no","0","4","null","stimuli/sounds/dog_sound_B.wav","null","","","","","","",""
"","","","","","html-keyboard-response","489","2.0.0","364077","pobx0qoju5t","ono","panda","21","female","no","no","0","4","null","","null","","","","","","",""
"","","","","","image-keyboard-response","490","2.0.0","364513","pobx0qoju5t","ono","panda","21","female","no","no","0","4","434","stimuli/pictures/dog_rott_1.jpg","1","1","","true","no","sound","stimuli/sounds/dog_sound_B.wav",""
"","","","","","audio-keyboard-response","491","2.0.0","365516","pobx0qoju5t","ono","panda","21","female","no","no","0","4","null","stimuli/sounds/bleep.wav","null","","","","","","",""
"","","","","","html-keyboard-response","492","2.0.0","366190","pobx0qoju5t","ono","panda","21","female","no","no","0","4","572","<div style=""font-size:30px;"">Press space to start the trial</div>"," ","","","","","","",""
"","","","","","html-keyboard-response","493","2.0.0","366443","pobx0qoju5t","ono","panda","21","female","no","no","0","4","null","<div style=""font-size:60px;"">+</div>","null","","","","","","",""
"","","","","","audio-keyboard-response","494","2.0.0","367048","pobx0qoju5t","ono","panda","21","female","no","no","0","4","null","stimuli/sounds/hiccup_sound_A.wav","null","","","","","","",""
