"success","timeout","failed_images","failed_audio","failed_video","trial_type","trial_index","plugin_version","time_elapsed","random_id","condition","participant","age","gender_id","mus_exp","inst_exp","years_exp","mus_listening","rt","stimulus","response","correct_response","practice","correct","congruent","sound_type","audio","question_order"
"true","false","[]","[]","[]","preload","0","2.0.0","49","potttr9tecm","mus","rabbit","21","female","yes","yes","12","4","","","","","","","","","",""
"","","","","","html-keyboard-response","1","2.0.0","2112","potttr9tecm","mus","rabbit","21","female","yes","yes","12","4","2062","Welcome to the experiment! Press any key to begin."," ","","","","","","",""
"true","","","","","fullscreen","2","null","4825","potttr9tecm","mus","rabbit","21","female","yes","yes","12","4","1711","","","","","","","","",""
"","","","","","survey-text","3","2.0.0","7385","potttr9tecm","mus","rabbit","21","female","yes","yes","12","4","2555","","{""participant_id"":""rabbit""}","","","","","","",""
"","","","","","html-keyboard-response","4","2.0.0","12317","potttr9tecm","mus","rabbit","21","female","yes","yes","12","4","4930","
    <p> Please use headphones for the duration of the study.</p>
    <p> Within each trial, you will hear a sound and then be presented with an image in the center of your screen.</p>
    <p>Press the <b>'1'</b> key if what you hear <u>matches</u> what you see.</p>
    <p>Press the <b>'0'</b> key if what you hear <u>does not match</u> what you see.</p>
    <p>Try to respond as quickly and accurately as you can.</p>
    <p> Press any key to begin.</p>
    "," ","","","","","","",""
"","","","","","html-keyboard-response","5","2.0.0","13629","potttr9tecm","mus","rabbit","21","female","yes","yes","12","4","1311","
    <div style=""font-size:28px;"">
      <p>You will now complete 4 short practice trials.</p>
      <p>This is just to help you get familiar with the task.</p>
      <p>Press any key to begin.</p>
    </div>
  "," ","","","","","","",""
"","","","","","html-keyboard-response","6","2.0.0","14131","potttr9tecm","mus","rabbit","21","female","yes","yes","12","4","null","<div style=""font-size:60px;"">+</div>","null","","","","","","",""
"","","","","","audio-keyboard-response","7","2.0.0","15178","potttr9tecm","mus","rabbit","21","female","yes","yes","12","4","null","stimuli/sounds/guitar_label_A.wav","null","","","","","","",""
"","","","","","image-keyboard-response","8","2.0.0","17300","potttr9tecm","mus","rabbit","21","female","yes","yes","12","4","2118","stimuli/pictures/guitar_acoustic_1.jpg","1","1","true","true","","","",""
"","","","","","audio-keyboard-response","9","2.0.0","18103","potttr9tecm","mus","rabbit","21","female","yes","yes","12","4","null","stimuli/sounds/bleep.wav","null","","","","","","",""
"","","","","","html-keyboard-response","10","2.0.0","18806","potttr9tecm","mus","rabbit","21","female","yes","yes","12","4","null","<p style='color:green; font-size:30px;'>Correct!</p>","null","","","","","","",""
"","","","","","html-keyboard-response","11","2.0.0","19309","potttr9tecm","mus","rabbit","21","female","yes","yes","12","4","null","<div style=""font-size:60px;"">+</div>","null","","","","","","",""
"","","","","","audio-keyboard-response","12","2.0.0","19908","potttr9tecm","mus","rabbit","21","female","yes","yes","12","4","null","stimuli/sounds/guitar_sound_B.wav","null","","","","","","",""
"","","","","","image-keyboard-response","13","2.0.0","21977","potttr9tecm","mus","rabbit","21","female","yes","yes","12","4","2066","stimuli/pictures/guitar_acoustic_2.jpg","1","1","true","true","","","",""
"","","","","","audio-keyboard-response","14","2.0.0","22779","potttr9tecm","mus","rabbit","21","female","yes","yes","12","4","null","stimuli/sounds/bleep.wav","null","","","","","","",""
"","","","","","html-keyboard-response","15","2.0.0","23482","potttr9tecm","mus","rabbit","21","female","yes","yes","12","4","null","<p style='color:green; font-size:30px;'>Correct!</p>","null","","","","","","",""
"","","","","","html-keyboard-response","16","2.0.0","23984","potttr9tecm","mus","rabbit","21","female","yes","yes","12","4","null","<div style=""font-size:60px;"">+</div>","null","","","","","","",""
"","","","","","audio-keyboard-response","17","2.0.0","24586","potttr9tecm","mus","rabbit","21","female","yes","yes","12","4","null","stimuli/sounds/flute_sound_A.wav","null","","","","","","",""
"","","","","","image-keyboard-response","18","2.0.0","26065","potttr9tecm","mus","rabbit","21","female","yes","yes","12","4","1478","stimuli/pictures/guitar_electric_1.jpg","0","0","true","true","","","",""
"","","","","","audio-keyboard-response","19","2.0.0","26868","potttr9tecm","mus","rabbit","21","female","yes","yes","12","4","null","stimuli/sounds/bleep.wav","null","","","","","","",""
"","","","","","html-keyboard-response","20","2.0.0","27570","potttr9tecm","mus","rabbit","21","female","yes","yes","12","4","null","<p style='color:green; font-size:30px;'>Correct!</p>","null","","","","","","",""
"","","","","","html-keyboard-response","21","2.0.0","28074","potttr9tecm","mus","rabbit","21","female","yes","yes","12","4","null","<div style=""font-size:60px;"">+</div>","null","","","","","","",""
"","","","","","audio-keyboard-response","22","2.0.0","28677","potttr9tecm","mus","rabbit","21","female","yes","yes","12","4","null","stimuli/sounds/guitar_sound_A.wav","null","","","","","","",""
"","","","","","image-keyboard-response","23","2.0.0","29188","potttr9tecm","mus","rabbit","21","female","yes","yes","12","4","509","stimuli/pictures/guitar_acoustic_1.jpg","1","1","true","true","","","",""
"","","","","","audio-keyboard-response","24","2.0.0","29990","potttr9tecm","mus","rabbit","21","female","yes","yes","12","4","null","stimuli/sounds/bleep.wav","null","","","","","","",""
"","","","","","html-keyboard-response","25","2.0.0","30693","potttr9tecm","mus","rabbit","21","female","yes","yes","12","4","null","<p style='color:green; font-size:30px;'>Correct!</p>","null","","","","","","",""
"","","","","","html-keyboard-response","26","2.0.0","32140","potttr9tecm","mus","rabbit","21","female","yes","yes","12","4","1446","<p>Practice complete. Press any key to begin the real experiment.</p>"," ","","","","","","",""
"","","","","","html-keyboard-response","27","2.0.0","37915","potttr9tecm","mus","rabbit","21","female","yes","yes","12","4","5774","<div style=""font-size:30px;"">Press space to start the trial</div>"," ","","","","","","",""
"","","","","","html-keyboard-response","28","2.0.0","38168","potttr9tecm","mus","rabbit","21","female","yes","yes","12","4","null","<div style=""font-size:60px;"">+</div>","null","","","","","","",""
"","","","","","audio-keyboard-response","29","2.0.0","38767","potttr9tecm","mus","rabbit","21","female","yes","yes","12","4","null","stimuli/sounds/bird_sound_A.wav","null","","","","","","",""
"","","","","","html-keyboard-response","30","2.0.0","39769","potttr9tecm","mus","rabbit","21","female","yes","yes","12","4","null","","null","","","","","","",""
"","","","","","image-keyboard-response","31","2.0.0","40445","potttr9tecm","mus","rabbit","21","female","yes","yes","12","4","675","stimuli/pictures/bird_hawk_1.jpg","1","1","","true","yes","sound","stimuli/sounds/bird_sound_A.wav",""
"","","","","","audio-keyboard-response","32","2.0.0","41448","potttr9tecm","mus","rabbit","21","female","yes","yes","12","4","null","stimuli/sounds/bleep.wav","null","","","","","","",""
"","","","","","html-keyboard-response","33","2.0.0","44274","potttr9tecm","mus","rabbit","21","female","yes","yes","12","4","2723","<div style=""font-size:30px;"">Press space to start the trial</div>"," ","","","","","","",""
"","","","","","html-keyboard-response","34","2.0.0","44526","potttr9tecm","mus","rabbit","21","female","yes","yes","12","4","null","<div style=""font-size:60px;"">+</div>","null","","","","","","",""
"","","","","","audio-keyboard-response","35","2.0.0","45130","potttr9tecm","mus","rabbit","21","female","yes","yes","12","4","null","stimuli/sounds/phone_label_B.wav","null","","","","","","",""
"","","","","","html-keyboard-response","36","2.0.0","46132","potttr9tecm","mus","rabbit","21","female","yes","yes","12","4","null","","null","","","","","","",""
"","","","","","image-keyboard-response","37","2.0.0","48723","potttr9tecm","mus","rabbit","21","female","yes","yes","12","4","2589","stimuli/pictures/flute_metal_1.jpg","0","0","","true","no","sound","stimuli/sounds/phone_label_B.wav",""
"","","","","","audio-keyboard-response","38","2.0.0","49726","potttr9tecm","mus","rabbit","21","female","yes","yes","12","4","null","stimuli/sounds/bleep.wav","null","","","","","","",""
"","","","","","html-keyboard-response","39","2.0.0","52325","potttr9tecm","mus","rabbit","21","female","yes","yes","12","4","2498","<div style=""font-size:30px;"">Press space to start the trial</div>"," ","","","","","","",""
"","","","","","html-keyboard-response","40","2.0.0","52578","potttr9tecm","mus","rabbit","21","female","yes","yes","12","4","null","<div style=""font-size:60px;"">+</div>","null","","","","","","",""
"","","","","","audio-keyboard-response","41","2.0.0","53178","potttr9tecm","mus","rabbit","21","female","yes","yes","12","4","null","stimuli/sounds/piano_label_B.wav","null","","","","","","",""
"","","","","","html-keyboard-response","42","2.0.0","54180","potttr9tecm","mus","rabbit","21","female","yes","yes","12","4","null","","null","","","","","","",""
"","","","","","image-keyboard-response","43","2.0.0","54686","potttr9tecm","mus","rabbit","21","female","yes","yes","12","4","503","stimuli/pictures/piano_electric_2.jpg","1","1","","true","yes","sound","stimuli/sounds/piano_label_B.wav",""
"","","","","","audio-keyboard-response","44","2.0.0","55687","potttr9tecm","mus","rabbit","21","female","yes","yes","12","4","null","stimuli/sounds/bleep.wav","null","","","","","","",""
"","","","","","html-keyboard-response","45","2.0.0","56736","potttr9tecm","mus","rabbit","21","female","yes","yes","12","4","946","<div style=""font-size:30px;"">Press space to start the trial</div>"," ","","","","","","",""
"","","","","","html-keyboard-response","46","2.0.0","56988","potttr9tecm","mus","rabbit","21","female","yes","yes","12","4","null","<div style=""font-size:60px;"">+</div>","null","","","","","","",""
"","","","","","audio-keyboard-response","47","2.0.0","57588","potttr9tecm","mus","rabbit","21","female","yes","yes","12","4","null","stimuli/sounds/piano_label_B.wav","null","","","","","","",""
"","","","","","html-keyboard-response","48","2.0.0","58591","potttr9tecm","mus","rabbit","21","female","yes","yes","12","4","null","","null","","","","","","",""
"","","","","","image-keyboard-response","49","2.0.0","59181","potttr9tecm","mus","rabbit","21","female","yes","yes","12","4","589","stimuli/pictures/piano_grand_2.jpg","1","1","","true","yes","sound","stimuli/sounds/piano_label_B.wav",""
"","","","","","audio-keyboard-response","50","2.0.0","60184","potttr9tecm","mus","rabbit","21","female","yes","yes","12","4","null","stimuli/sounds/bleep.wav","null","","","","","","",""
"","","","","","html-keyboard-response","51","2.0.0","60691","potttr9tecm","mus","rabbit","21","female","yes","yes","12","4","405","<div style=""font-size:30px;"">Press space to start the trial</div>"," ","","","","","","",""
"","","","","","html-keyboard-response","52","2.0.0","60944","potttr9tecm","mus","rabbit","21","female","yes","yes","12","4","null","<div style=""font-size:60px;"">+</div>","null","","","","","","",""
"","","","","","audio-keyboard-response","53","2.0.0","61551","potttr9tecm","mus","rabbit","21","female","yes","yes","12","4","null","stimuli/sounds/piano_sound_A.wav","null","","","","","","",""
"","","","","","html-keyboard-response","54","2.0.0","62554","potttr9tecm","mus","rabbit","21","female","yes","yes","12","4","null","","null","","","","","","",""
"","","","","","image-keyboard-response","55","2.0.0","62864","potttr9tecm","mus","rabbit","21","female","yes","yes","12","4","308","stimuli/pictures/piano_grand_2.jpg","1","1","","true","yes","sound","stimuli/sounds/piano_sound_A.wav",""
"","","","","","audio-keyboard-response","56","2.0.0","63866","potttr9tecm","mus","rabbit","21","female","yes","yes","12","4","null","stimuli/sounds/bleep.wav","null","","","","","","",""
"","","","","","html-keyboard-response","57","2.0.0","64314","potttr9tecm","mus","rabbit","21","female","yes","yes","12","4","345","<div style=""font-size:30px;"">Press space to start the trial</div>"," ","","","","","","",""
"","","","","","html-keyboard-response","58","2.0.0","64567","potttr9tecm","mus","rabbit","21","female","yes","yes","12","4","null","<div style=""font-size:60px;"">+</div>","null","","","","","","",""
"","","","","","audio-keyboard-response","59","2.0.0","65167","potttr9tecm","mus","rabbit","21","female","yes","yes","12","4","null","stimuli/sounds/flute_label_A.wav","null","","","","","","",""
"","","","","","html-keyboard-response","60","2.0.0","66170","potttr9tecm","mus","rabbit","21","female","yes","yes","12","4","null","","null","","","","","","",""
"","","","","","image-keyboard-response","61","2.0.0","67040","potttr9tecm","mus","rabbit","21","female","yes","yes","12","4","869","stimuli/pictures/piano_electric_2.jpg","0","0","","true","no","sound","stimuli/sounds/flute_label_A.wav",""
"","","","","","audio-keyboard-response","62","2.0.0","68042","potttr9tecm","mus","rabbit","21","female","yes","yes","12","4","null","stimuli/sounds/bleep.wav","null","","","","","","",""
"","","","","","html-keyboard-response","63","2.0.0","68637","potttr9tecm","mus","rabbit","21","female","yes","yes","12","4","493","<div style=""font-size:30px;"">Press space to start the trial</div>"," ","","","","","","",""
"","","","","","html-keyboard-response","64","2.0.0","68890","potttr9tecm","mus","rabbit","21","female","yes","yes","12","4","null","<div style=""font-size:60px;"">+</div>","null","","","","","","",""
"","","","","","audio-keyboard-response","65","2.0.0","69492","potttr9tecm","mus","rabbit","21","female","yes","yes","12","4","null","stimuli/sounds/piano_label_B.wav","null","","","","","","",""
"","","","","","html-keyboard-response","66","2.0.0","70495","potttr9tecm","mus","rabbit","21","female","yes","yes","12","4","null","","null","","","","","","",""
"","","","","","image-keyboard-response","67","2.0.0","70742","potttr9tecm","mus","rabbit","21","female","yes","yes","12","4","246","stimuli/pictures/bird_hawk_1.jpg","1","0","","false","no","sound","stimuli/sounds/piano_label_B.wav",""
"","","","","","audio-keyboard-response","68","2.0.0","71247","potttr9tecm","mus","rabbit","21","female","yes","yes","12","4","501","stimuli/sounds/buzz.wav","0","","","","","","",""
"","","","","","html-keyboard-response","69","2.0.0","72134","potttr9tecm","mus","rabbit","21","female","yes","yes","12","4","784","<div style=""font-size:30px;"">Press space to start the trial</div>"," ","","","","","","",""
"","","","","","html-keyboard-response","70","2.0.0","72385","potttr9tecm","mus","rabbit","21","female","yes","yes","12","4","null","<div style=""font-size:60px;"">+</div>","null","","","","","","",""
"","","","","","audio-keyboard-response","71","2.0.0","72986","potttr9tecm","mus","rabbit","21","female","yes","yes","12","4","null","stimuli/sounds/bird_label_A.wav","null","","","","","","",""
"","","","","","html-keyboard-response","72","2.0.0","73987","potttr9tecm","mus","rabbit","21","female","yes","yes","12","4","null","","null","","","","","","",""
"","","","","","image-keyboard-response","73","2.0.0","75032","potttr9tecm","mus","rabbit","21","female","yes","yes","12","4","1043","stimuli/pictures/flute_metal_2.jpg","0","0","","true","no","sound","stimuli/sounds/bird_label_A.wav",""
"","","","","","audio-keyboard-response","74","2.0.0","76035","potttr9tecm","mus","rabbit","21","female","yes","yes","12","4","null","stimuli/sounds/bleep.wav","null","","","","","","",""
"","","","","","html-keyboard-response","75","2.0.0","77784","potttr9tecm","mus","rabbit","21","female","yes","yes","12","4","1647","<div style=""font-size:30px;"">Press space to start the trial</div>"," ","","","","","","",""
"","","","","","html-keyboard-response","76","2.0.0","78036","potttr9tecm","mus","rabbit","21","female","yes","yes","12","4","null","<div style=""font-size:60px;"">+</div>","null","","","","","","",""
"","","","","","audio-keyboard-response","77","2.0.0","78644","potttr9tecm","mus","rabbit","21","female","yes","yes","12","4","null","stimuli/sounds/flute_sound_B.wav","null","","","","","","",""
"","","","","","html-keyboard-response","78","2.0.0","79646","potttr9tecm","mus","rabbit","21","female","yes","yes","12","4","null","","null","","","","","","",""
"","","","","","image-keyboard-response","79","2.0.0","80817","potttr9tecm","mus","rabbit","21","female","yes","yes","12","4","1169","stimuli/pictures/flute_metal_1.jpg","1","1","","true","no","sound","stimuli/sounds/flute_sound_B.wav",""
"","","","","","audio-keyboard-response","80","2.0.0","80847","potttr9tecm","mus","rabbit","21","female","yes","yes","12","4","32","stimuli/sounds/bleep.wav","1","","","","","","",""
"","","","","","html-keyboard-response","81","2.0.0","81820","potttr9tecm","mus","rabbit","21","female","yes","yes","12","4","871","<div style=""font-size:30px;"">Press space to start the trial</div>"," ","","","","","","",""
"","","","","","html-keyboard-response","82","2.0.0","82071","potttr9tecm","mus","rabbit","21","female","yes","yes","12","4","null","<div style=""font-size:60px;"">+</div>","null","","","","","","",""
"","","","","","audio-keyboard-response","83","2.0.0","82676","potttr9tecm","mus","rabbit","21","female","yes","yes","12","4","null","stimuli/sounds/piano_sound_A.wav","null","","","","","","",""
"","","","","","html-keyboard-response","84","2.0.0","83679","potttr9tecm","mus","rabbit","21","female","yes","yes","12","4","null","","null","","","","","","",""
"","","","","","image-keyboard-response","85","2.0.0","84305","potttr9tecm","mus","rabbit","21","female","yes","yes","12","4","625","stimuli/pictures/piano_grand_1.jpg","1","1","","true","yes","sound","stimuli/sounds/piano_sound_A.wav",""
"","","","","","audio-keyboard-response","86","2.0.0","85308","potttr9tecm","mus","rabbit","21","female","yes","yes","12","4","null","stimuli/sounds/bleep.wav","null","","","","","","",""
"","","","","","html-keyboard-response","87","2.0.0","86035","potttr9tecm","mus","rabbit","21","female","yes","yes","12","4","624","<div style=""font-size:30px;"">Press space to start the trial</div>"," ","","","","","","",""
"","","","","","html-keyboard-response","88","2.0.0","86287","potttr9tecm","mus","rabbit","21","female","yes","yes","12","4","null","<div style=""font-size:60px;"">+</div>","null","","","","","","",""
"","","","","","audio-keyboard-response","89","2.0.0","86895","potttr9tecm","mus","rabbit","21","female","yes","yes","12","4","null","stimuli/sounds/piano_sound_B.wav","null","","","","","","",""
"","","","","","html-keyboard-response","90","2.0.0","87897","potttr9tecm","mus","rabbit","21","female","yes","yes","12","4","null","","null","","","","","","",""
"","","","","","image-keyboard-response","91","2.0.0","90438","potttr9tecm","mus","rabbit","21","female","yes","yes","12","4","2538","stimuli/pictures/flute_wooden_1.jpg","1","0","","false","no","sound","stimuli/sounds/piano_sound_B.wav",""
"","","","","","audio-keyboard-response","92","2.0.0","91440","potttr9tecm","mus","rabbit","21","female","yes","yes","12","4","null","stimuli/sounds/buzz.wav","null","","","","","","",""
"","","","","","html-keyboard-response","93","2.0.0","92024","potttr9tecm","mus","rabbit","21","female","yes","yes","12","4","481","<div style=""font-size:30px;"">Press space to start the trial</div>"," ","","","","","","",""
"","","","","","html-keyboard-response","94","2.0.0","92277","potttr9tecm","mus","rabbit","21","female","yes","yes","12","4","null","<div style=""font-size:60px;"">+</div>","null","","","","","","",""
"","","","","","audio-keyboard-response","95","2.0.0","92879","potttr9tecm","mus","rabbit","21","female","yes","yes","12","4","null","stimuli/sounds/drum_label_B.wav","null","","","","","","",""
"","","","","","html-keyboard-response","96","2.0.0","93882","potttr9tecm","mus","rabbit","21","female","yes","yes","12","4","null","","null","","","","","","",""
"","","","","","image-keyboard-response","97","2.0.0","94881","potttr9tecm","mus","rabbit","21","female","yes","yes","12","4","997","stimuli/pictures/piano_grand_2.jpg","0","0","","true","no","sound","stimuli/sounds/drum_label_B.wav",""
"","","","","","audio-keyboard-response","98","2.0.0","95883","potttr9tecm","mus","rabbit","21","female","yes","yes","12","4","null","stimuli/sounds/bleep.wav","null","","","","","","",""
"","","","","","html-keyboard-response","99","2.0.0","96716","potttr9tecm","mus","rabbit","21","female","yes","yes","12","4","730","<div style=""font-size:30px;"">Press space to start the trial</div>"," ","","","","","","",""
"","","","","","html-keyboard-response","100","2.0.0","96968","potttr9tecm","mus","rabbit","21","female","yes","yes","12","4","null","<div style=""font-size:60px;"">+</div>","null","","","","","","",""
"","","","","","audio-keyboard-response","101","2.0.0","97567","potttr9tecm","mus","rabbit","21","female","yes","yes","12","4","null","stimuli/sounds/bird_label_A.wav","null","","","","","","",""
"","","","","","html-keyboard-response","102","2.0.0","98570","potttr9tecm","mus","rabbit","21","female","yes","yes","12","4","null","","null","","","","","","",""
"","","","","","image-keyboard-response","103","2.0.0","99285","potttr9tecm","mus","rabbit","21","female","yes","yes","12","4","713","stimuli/pictures/flute_wooden_2.jpg","0","0","","true","no","sound","stimuli/sounds/bird_label_A.wav",""
"","","","","","audio-keyboard-response","104","2.0.0","100287","potttr9tecm","mus","rabbit","21","female","yes","yes","12","4","null","stimuli/sounds/bleep.wav","null","","","","","","",""
"","","","","","html-keyboard-response","105","2.0.0","100861","potttr9tecm","mus","rabbit","21","female","yes","yes","12","4","472","<div style=""font-size:30px;"">Press space to start the trial</div>"," ","","","","","","",""
"","","","","","html-keyboard-response","106","2.0.0","101114","potttr9tecm","mus","rabbit","21","female","yes","yes","12","4","null","<div style=""font-size:60px;"">+</div>","null","","","","","","",""
"","","","","","audio-keyboard-response","107","2.0.0","101716","potttr9tecm","mus","rabbit","21","female","yes","yes","12","4","null","stimuli/sounds/flute_sound_A.wav","null","","","","","","",""
"","","","","","html-keyboard-response","108","2.0.0","102718","potttr9tecm","mus","rabbit","21","female","yes","yes","12","4","null","","null","","","","","","",""
"","","","","","image-keyboard-response","109","2.0.0","103988","potttr9tecm","mus","rabbit","21","female","yes","yes","12","4","1268","stimuli/pictures/flute_metal_2.jpg","1","1","","true","yes","sound","stimuli/sounds/flute_sound_A.wav",""
"","","","","","audio-keyboard-response","110","2.0.0","104989","potttr9tecm","mus","rabbit","21","female","yes","yes","12","4","null","stimuli/sounds/bleep.wav","null","","","","","","",""
"","","","","","html-keyboard-response","111","2.0.0","105776","potttr9tecm","mus","rabbit","21","female","yes","yes","12","4","685","<div style=""font-size:30px;"">Press space to start the trial</div>"," ","","","","","","",""
"","","","","","html-keyboard-response","112","2.0.0","106027","potttr9tecm","mus","rabbit","21","female","yes","yes","12","4","null","<div style=""font-size:60px;"">+</div>","null","","","","","","",""
"","","","","","audio-keyboard-response","113","2.0.0","106628","potttr9tecm","mus","rabbit","21","female","yes","yes","12","4","null","stimuli/sounds/bird_label_B.wav","null","","","","","","",""
"","","","","","html-keyboard-response","114","2.0.0","107631","potttr9tecm","mus","rabbit","21","female","yes","yes","12","4","null","","null","","","","","","",""
"","","","","","image-keyboard-response","115","2.0.0","108338","potttr9tecm","mus","rabbit","21","female","yes","yes","12","4","705","stimuli/pictures/phone_rotary_1.jpg","0","0","","true","no","sound","stimuli/sounds/bird_label_B.wav",""
"","","","","","audio-keyboard-response","116","2.0.0","109340","potttr9tecm","mus","rabbit","21","female","yes","yes","12","4","null","stimuli/sounds/bleep.wav","null","","","","","","",""
"","","","","","html-keyboard-response","117","2.0.0","109789","potttr9tecm","mus","rabbit","21","female","yes","yes","12","4","347","<div style=""font-size:30px;"">Press space to start the trial</div>"," ","","","","","","",""
"","","","","","html-keyboard-response","118","2.0.0","110041","potttr9tecm","mus","rabbit","21","female","yes","yes","12","4","null","<div style=""font-size:60px;"">+</div>","null","","","","","","",""
"","","","","","audio-keyboard-response","119","2.0.0","110644","potttr9tecm","mus","rabbit","21","female","yes","yes","12","4","null","stimuli/sounds/drum_label_B.wav","null","","","","","","",""
"","","","","","html-keyboard-response","120","2.0.0","111646","potttr9tecm","mus","rabbit","21","female","yes","yes","12","4","null","","null","","","","","","",""
"","","","","","image-keyboard-response","121","2.0.0","112337","potttr9tecm","mus","rabbit","21","female","yes","yes","12","4","689","stimuli/pictures/piano_grand_1.jpg","0","0","","true","no","sound","stimuli/sounds/drum_label_B.wav",""
"","","","","","audio-keyboard-response","122","2.0.0","113340","potttr9tecm","mus","rabbit","21","female","yes","yes","12","4","null","stimuli/sounds/bleep.wav","null","","","","","","",""
"","","","","","html-keyboard-response","123","2.0.0","113985","potttr9tecm","mus","rabbit","21","female","yes","yes","12","4","543","<div style=""font-size:30px;"">Press space to start the trial</div>"," ","","","","","","",""
"","","","","","html-keyboard-response","124","2.0.0","114238","potttr9tecm","mus","rabbit","21","female","yes","yes","12","4","null","<div style=""font-size:60px;"">+</div>","null","","","","","","",""
"","","","","","audio-keyboard-response","125","2.0.0","114836","potttr9tecm","mus","rabbit","21","female","yes","yes","12","4","null","stimuli/sounds/phone_sound_A.wav","null","","","","","","",""
"","","","","","html-keyboard-response","126","2.0.0","115838","potttr9tecm","mus","rabbit","21","female","yes","yes","12","4","null","","null","","","","","","",""
"","","","","","image-keyboard-response","127","2.0.0","116582","potttr9tecm","mus","rabbit","21","female","yes","yes","12","4","742","stimuli/pictures/bird_song_1.jpg","0","0","","true","no","sound","stimuli/sounds/phone_sound_A.wav",""
"","","","","","audio-keyboard-response","128","2.0.0","117585","potttr9tecm","mus","rabbit","21","female","yes","yes","12","4","null","stimuli/sounds/bleep.wav","null","","","","","","",""
"","","","","","html-keyboard-response","129","2.0.0","118961","potttr9tecm","mus","rabbit","21","female","yes","yes","12","4","1273","<div style=""font-size:30px;"">Press space to start the trial</div>"," ","","","","","","",""
"","","","","","html-keyboard-response","130","2.0.0","119213","potttr9tecm","mus","rabbit","21","female","yes","yes","12","4","null","<div style=""font-size:60px;"">+</div>","null","","","","","","",""
"","","","","","audio-keyboard-response","131","2.0.0","119818","potttr9tecm","mus","rabbit","21","female","yes","yes","12","4","null","stimuli/sounds/flute_sound_B.wav","null","","","","","","",""
"","","","","","html-keyboard-response","132","2.0.0","120820","potttr9tecm","mus","rabbit","21","female","yes","yes","12","4","null","","null","","","","","","",""
"","","","","","image-keyboard-response","133","2.0.0","121602","potttr9tecm","mus","rabbit","21","female","yes","yes","12","4","780","stimuli/pictures/bird_hawk_1.jpg","0","0","","true","no","sound","stimuli/sounds/flute_sound_B.wav",""
"","","","","","audio-keyboard-response","134","2.0.0","122604","potttr9tecm","mus","rabbit","21","female","yes","yes","12","4","null","stimuli/sounds/bleep.wav","null","","","","","","",""
"","","","","","html-keyboard-response","135","2.0.0","123275","potttr9tecm","mus","rabbit","21","female","yes","yes","12","4","568","<div style=""font-size:30px;"">Press space to start the trial</div>"," ","","","","","","",""
"","","","","","html-keyboard-response","136","2.0.0","123527","potttr9tecm","mus","rabbit","21","female","yes","yes","12","4","null","<div style=""font-size:60px;"">+</div>","null","","","","","","",""
"","","","","","audio-keyboard-response","137","2.0.0","124127","potttr9tecm","mus","rabbit","21","female","yes","yes","12","4","null","stimuli/sounds/phone_label_A.wav","null","","","","","","",""
"","","","","","html-keyboard-response","138","2.0.0","125129","potttr9tecm","mus","rabbit","21","female","yes","yes","12","4","null","","null","","","","","","",""
"","","","","","image-keyboard-response","139","2.0.0","125724","potttr9tecm","mus","rabbit","21","female","yes","yes","12","4","593","stimuli/pictures/drum_kit_2.jpg","0","0","","true","no","sound","stimuli/sounds/phone_label_A.wav",""
"","","","","","audio-keyboard-response","140","2.0.0","126727","potttr9tecm","mus","rabbit","21","female","yes","yes","12","4","null","stimuli/sounds/bleep.wav","null","","","","","","",""
"","","","","","html-keyboard-response","141","2.0.0","127410","potttr9tecm","mus","rabbit","21","female","yes","yes","12","4","581","<div style=""font-size:30px;"">Press space to start the trial</div>"," ","","","","","","",""
"","","","","","html-keyboard-response","142","2.0.0","127662","potttr9tecm","mus","rabbit","21","female","yes","yes","12","4","null","<div style=""font-size:60px;"">+</div>","null","","","","","","",""
"","","","","","audio-keyboard-response","143","2.0.0","128266","potttr9tecm","mus","rabbit","21","female","yes","yes","12","4","null","stimuli/sounds/phone_label_B.wav","null","","","","","","",""
"","","","","","html-keyboard-response","144","2.0.0","129268","potttr9tecm","mus","rabbit","21","female","yes","yes","12","4","null","","null","","","","","","",""
"","","","","","image-keyboard-response","145","2.0.0","130255","potttr9tecm","mus","rabbit","21","female","yes","yes","12","4","985","stimuli/pictures/phone_cell_1.jpg","1","1","","true","yes","sound","stimuli/sounds/phone_label_B.wav",""
"","","","","","audio-keyboard-response","146","2.0.0","131257","potttr9tecm","mus","rabbit","21","female","yes","yes","12","4","null","stimuli/sounds/bleep.wav","null","","","","","","",""
"","","","","","html-keyboard-response","147","2.0.0","135620","potttr9tecm","mus","rabbit","21","female","yes","yes","12","4","4261","<p>You have completed a block. Press R when you are ready to continue</p>","r","","","","","","",""
"","","","","","html-keyboard-response","148","2.0.0","136780","potttr9tecm","mus","rabbit","21","female","yes","yes","12","4","1159","<div style=""font-size:30px;"">Press space to start the trial</div>"," ","","","","","","",""
"","","","","","html-keyboard-response","149","2.0.0","137032","potttr9tecm","mus","rabbit","21","female","yes","yes","12","4","null","<div style=""font-size:60px;"">+</div>","null","","","","","","",""
"","","","","","audio-keyboard-response","150","2.0.0","137631","potttr9tecm","mus","rabbit","21","female","yes","yes","12","4","null","stimuli/sounds/piano_label_B.wav","null","","","","","","",""
"","","","","","html-keyboard-response","151","2.0.0","138633","potttr9tecm","mus","rabbit","21","female","yes","yes","12","4","null","","null","","","","","","",""
"","","","","","image-keyboard-response","152","2.0.0","139261","potttr9tecm","mus","rabbit","21","female","yes","yes","12","4","626","stimuli/pictures/bird_hawk_1.jpg","0","0","","true","no","sound","stimuli/sounds/piano_label_B.wav",""
"","","","","","audio-keyboard-response","153","2.0.0","140264","potttr9tecm","mus","rabbit","21","female","yes","yes","12","4","null","stimuli/sounds/bleep.wav","null","","","","","","",""
"","","","","","html-keyboard-response","154","2.0.0","141446","potttr9tecm","mus","rabbit","21","female","yes","yes","12","4","1080","<div style=""font-size:30px;"">Press space to start the trial</div>"," ","","","","","","",""
"","","","","","html-keyboard-response","155","2.0.0","141698","potttr9tecm","mus","rabbit","21","female","yes","yes","12","4","null","<div style=""font-size:60px;"">+</div>","null","","","","","","",""
"","","","","","audio-keyboard-response","156","2.0.0","142298","potttr9tecm","mus","rabbit","21","female","yes","yes","12","4","null","stimuli/sounds/flute_sound_A.wav","null","","","","","","",""
"","","","","","html-keyboard-response","157","2.0.0","143300","potttr9tecm","mus","rabbit","21","female","yes","yes","12","4","null","","null","","","","","","",""
"","","","","","image-keyboard-response","158","2.0.0","144880","potttr9tecm","mus","rabbit","21","female","yes","yes","12","4","1578","stimuli/pictures/phone_rotary_2.jpg","0","0","","true","no","sound","stimuli/sounds/flute_sound_A.wav",""
"","","","","","audio-keyboard-response","159","2.0.0","145883","potttr9tecm","mus","rabbit","21","female","yes","yes","12","4","null","stimuli/sounds/bleep.wav","null","","","","","","",""
"","","","","","html-keyboard-response","160","2.0.0","146355","potttr9tecm","mus","rabbit","21","female","yes","yes","12","4","370","<div style=""font-size:30px;"">Press space to start the trial</div>"," ","","","","","","",""
"","","","","","html-keyboard-response","161","2.0.0","146608","potttr9tecm","mus","rabbit","21","female","yes","yes","12","4","null","<div style=""font-size:60px;"">+</div>","null","","","","","","",""
"","","","","","audio-keyboard-response","162","2.0.0","147210","potttr9tecm","mus","rabbit","21","female","yes","yes","12","4","null","stimuli/sounds/phone_label_A.wav","null","","","","","","",""
"","","","","","html-keyboard-response","163","2.0.0","148212","potttr9tecm","mus","rabbit","21","female","yes","yes","12","4","null","","null","","","","","","",""
"","","","","","image-keyboard-response","164","2.0.0","149217","potttr9tecm","mus","rabbit","21","female","yes","yes","12","4","1004","stimuli/pictures/drum_bongo_2.jpg","0","0","","true","no","sound","stimuli/sounds/phone_label_A.wav",""
"","","","","","audio-keyboard-response","165","2.0.0","150220","potttr9tecm","mus","rabbit","21","female","yes","yes","12","4","null","stimuli/sounds/bleep.wav","null","","","","","","",""
"","","","","","html-keyboard-response","166","2.0.0","150816","potttr9tecm","mus","rabbit","21","female","yes","yes","12","4","494","<div style=""font-size:30px;"">Press space to start the trial</div>"," ","","","","","","",""
"","","","","","html-keyboard-response","167","2.0.0","151068","potttr9tecm","mus","rabbit","21","female","yes","yes","12","4","null","<div style=""font-size:60px;"">+</div>","null","","","","","","",""
"","","","","","audio-keyboard-response","168","2.0.0","151668","potttr9tecm","mus","rabbit","21","female","yes","yes","12","4","null","stimuli/sounds/bird_label_A.wav","null","","","","","","",""
"","","","","","html-keyboard-response","169","2.0.0","152671","potttr9tecm","mus","rabbit","21","female","yes","yes","12","4","null","","null","","","","","","",""
"","","","","","image-keyboard-response","170","2.0.0","153622","potttr9tecm","mus","rabbit","21","female","yes","yes","12","4","948","stimuli/pictures/bird_song_1.jpg","1","1","","true","yes","sound","stimuli/sounds/bird_label_A.wav",""
"","","","","","audio-keyboard-response","171","2.0.0","154624","potttr9tecm","mus","rabbit","21","female","yes","yes","12","4","null","stimuli/sounds/bleep.wav","null","","","","","","",""
"","","","","","html-keyboard-response","172","2.0.0","155138","potttr9tecm","mus","rabbit","21","female","yes","yes","12","4","411","<div style=""font-size:30px;"">Press space to start the trial</div>"," ","","","","","","",""
"","","","","","html-keyboard-response","173","2.0.0","155391","potttr9tecm","mus","rabbit","21","female","yes","yes","12","4","null","<div style=""font-size:60px;"">+</div>","null","","","","","","",""
"","","","","","audio-keyboard-response","174","2.0.0","155999","potttr9tecm","mus","rabbit","21","female","yes","yes","12","4","null","stimuli/sounds/flute_label_B.wav","null","","","","","","",""
"","","","","","html-keyboard-response","175","2.0.0","157002","potttr9tecm","mus","rabbit","21","female","yes","yes","12","4","null","","null","","","","","","",""
"","","","","","image-keyboard-response","176","2.0.0","158168","potttr9tecm","mus","rabbit","21","female","yes","yes","12","4","1164","stimuli/pictures/drum_bongo_1.jpg","0","0","","true","no","sound","stimuli/sounds/flute_label_B.wav",""
"","","","","","audio-keyboard-response","177","2.0.0","159170","potttr9tecm","mus","rabbit","21","female","yes","yes","12","4","null","stimuli/sounds/bleep.wav","null","","","","","","",""
"","","","","","html-keyboard-response","178","2.0.0","159678","potttr9tecm","mus","rabbit","21","female","yes","yes","12","4","404","<div style=""font-size:30px;"">Press space to start the trial</div>"," ","","","","","","",""
"","","","","","html-keyboard-response","179","2.0.0","159930","potttr9tecm","mus","rabbit","21","female","yes","yes","12","4","null","<div style=""font-size:60px;"">+</div>","null","","","","","","",""
"","","","","","audio-keyboard-response","180","2.0.0","160532","potttr9tecm","mus","rabbit","21","female","yes","yes","12","4","null","stimuli/sounds/drum_label_A.wav","null","","","","","","",""
"","","","","","html-keyboard-response","181","2.0.0","161534","potttr9tecm","mus","rabbit","21","female","yes","yes","12","4","null","","null","","","","","","",""
"","","","","","image-keyboard-response","182","2.0.0","162692","potttr9tecm","mus","rabbit","21","female","yes","yes","12","4","1156","stimuli/pictures/bird_song_2.jpg","0","0","","true","no","sound","stimuli/sounds/drum_label_A.wav",""
"","","","","","audio-keyboard-response","183","2.0.0","163695","potttr9tecm","mus","rabbit","21","female","yes","yes","12","4","null","stimuli/sounds/bleep.wav","null","","","","","","",""
"","","","","","html-keyboard-response","184","2.0.0","164547","potttr9tecm","mus","rabbit","21","female","yes","yes","12","4","749","<div style=""font-size:30px;"">Press space to start the trial</div>"," ","","","","","","",""
"","","","","","html-keyboard-response","185","2.0.0","164799","potttr9tecm","mus","rabbit","21","female","yes","yes","12","4","null","<div style=""font-size:60px;"">+</div>","null","","","","","","",""
"","","","","","audio-keyboard-response","186","2.0.0","165402","potttr9tecm","mus","rabbit","21","female","yes","yes","12","4","null","stimuli/sounds/bird_label_B.wav","null","","","","","","",""
"","","","","","html-keyboard-response","187","2.0.0","166405","potttr9tecm","mus","rabbit","21","female","yes","yes","12","4","null","","null","","","","","","",""
"","","","","","image-keyboard-response","188","2.0.0","167202","potttr9tecm","mus","rabbit","21","female","yes","yes","12","4","795","stimuli/pictures/phone_cell_1.jpg","0","0","","true","no","sound","stimuli/sounds/bird_label_B.wav",""
"","","","","","audio-keyboard-response","189","2.0.0","168205","potttr9tecm","mus","rabbit","21","female","yes","yes","12","4","null","stimuli/sounds/bleep.wav","null","","","","","","",""
"","","","","","html-keyboard-response","190","2.0.0","170809","potttr9tecm","mus","rabbit","21","female","yes","yes","12","4","2502","<div style=""font-size:30px;"">Press space to start the trial</div>"," ","","","","","","",""
"","","","","","html-keyboard-response","191","2.0.0","171061","potttr9tecm","mus","rabbit","21","female","yes","yes","12","4","null","<div style=""font-size:60px;"">+</div>","null","","","","","","",""
"","","","","","audio-keyboard-response","192","2.0.0","171663","potttr9tecm","mus","rabbit","21","female","yes","yes","12","4","null","stimuli/sounds/drum_sound_A.wav","null","","","","","","",""
"","","","","","html-keyboard-response","193","2.0.0","172665","potttr9tecm","mus","rabbit","21","female","yes","yes","12","4","null","","null","","","","","","",""
"","","","","","image-keyboard-response","194","2.0.0","173908","potttr9tecm","mus","rabbit","21","female","yes","yes","12","4","1241","stimuli/pictures/drum_bongo_1.jpg","1","1","","true","no","sound","stimuli/sounds/drum_sound_A.wav",""
"","","","","","audio-keyboard-response","195","2.0.0","174910","potttr9tecm","mus","rabbit","21","female","yes","yes","12","4","null","stimuli/sounds/bleep.wav","null","","","","","","",""
"","","","","","html-keyboard-response","196","2.0.0","175550","potttr9tecm","mus","rabbit","21","female","yes","yes","12","4","537","<div style=""font-size:30px;"">Press space to start the trial</div>"," ","","","","","","",""
"","","","","","html-keyboard-response","197","2.0.0","175802","potttr9tecm","mus","rabbit","21","female","yes","yes","12","4","null","<div style=""font-size:60px;"">+</div>","null","","","","","","",""
"","","","","","audio-keyboard-response","198","2.0.0","176404","potttr9tecm","mus","rabbit","21","female","yes","yes","12","4","null","stimuli/sounds/phone_sound_A.wav","null","","","","","","",""
"","","","","","html-keyboard-response","199","2.0.0","177407","potttr9tecm","mus","rabbit","21","female","yes","yes","12","4","null","","null","","","","","","",""
"","","","","","image-keyboard-response","200","2.0.0","178430","potttr9tecm","mus","rabbit","21","female","yes","yes","12","4","1021","stimuli/pictures/bird_hawk_1.jpg","0","0","","true","no","sound","stimuli/sounds/phone_sound_A.wav",""
"","","","","","audio-keyboard-response","201","2.0.0","179433","potttr9tecm","mus","rabbit","21","female","yes","yes","12","4","null","stimuli/sounds/bleep.wav","null","","","","","","",""
"","","","","","html-keyboard-response","202","2.0.0","179851","potttr9tecm","mus","rabbit","21","female","yes","yes","12","4","316","<div style=""font-size:30px;"">Press space to start the trial</div>"," ","","","","","","",""
"","","","","","html-keyboard-response","203","2.0.0","180103","potttr9tecm","mus","rabbit","21","female","yes","yes","12","4","null","<div style=""font-size:60px;"">+</div>","null","","","","","","",""
"","","","","","audio-keyboard-response","204","2.0.0","180703","potttr9tecm","mus","rabbit","21","female","yes","yes","12","4","null","stimuli/sounds/bird_label_B.wav","null","","","","","","",""
"","","","","","html-keyboard-response","205","2.0.0","181705","potttr9tecm","mus","rabbit","21","female","yes","yes","12","4","null","","null","","","","","","",""
"","","","","","image-keyboard-response","206","2.0.0","182708","potttr9tecm","mus","rabbit","21","female","yes","yes","12","4","1002","stimuli/pictures/bird_song_1.jpg","1","1","","true","yes","sound","stimuli/sounds/bird_label_B.wav",""
"","","","","","audio-keyboard-response","207","2.0.0","183710","potttr9tecm","mus","rabbit","21","female","yes","yes","12","4","null","stimuli/sounds/bleep.wav","null","","","","","","",""
"","","","","","html-keyboard-response","208","2.0.0","184300","potttr9tecm","mus","rabbit","21","female","yes","yes","12","4","487","<div style=""font-size:30px;"">Press space to start the trial</div>"," ","","","","","","",""
"","","","","","html-keyboard-response","209","2.0.0","184552","potttr9tecm","mus","rabbit","21","female","yes","yes","12","4","null","<div style=""font-size:60px;"">+</div>","null","","","","","","",""
"","","","","","audio-keyboard-response","210","2.0.0","185151","potttr9tecm","mus","rabbit","21","female","yes","yes","12","4","null","stimuli/sounds/flute_sound_A.wav","null","","","","","","",""
"","","","","","html-keyboard-response","211","2.0.0","186153","potttr9tecm","mus","rabbit","21","female","yes","yes","12","4","null","","null","","","","","","",""
"","","","","","image-keyboard-response","212","2.0.0","187567","potttr9tecm","mus","rabbit","21","female","yes","yes","12","4","1413","stimuli/pictures/phone_rotary_1.jpg","0","0","","true","no","sound","stimuli/sounds/flute_sound_A.wav",""
"","","","","","audio-keyboard-response","213","2.0.0","188570","potttr9tecm","mus","rabbit","21","female","yes","yes","12","4","null","stimuli/sounds/bleep.wav","null","","","","","","",""
"","","","","","html-keyboard-response","214","2.0.0","189170","potttr9tecm","mus","rabbit","21","female","yes","yes","12","4","497","<div style=""font-size:30px;"">Press space to start the trial</div>"," ","","","","","","",""
"","","","","","html-keyboard-response","215","2.0.0","189422","potttr9tecm","mus","rabbit","21","female","yes","yes","12","4","null","<div style=""font-size:60px;"">+</div>","null","","","","","","",""
"","","","","","audio-keyboard-response","216","2.0.0","190031","potttr9tecm","mus","rabbit","21","female","yes","yes","12","4","null","stimuli/sounds/flute_sound_B.wav","null","","","","","","",""
"","","","","","html-keyboard-response","217","2.0.0","191033","potttr9tecm","mus","rabbit","21","female","yes","yes","12","4","null","","null","","","","","","",""
"","","","","","image-keyboard-response","218","2.0.0","193578","potttr9tecm","mus","rabbit","21","female","yes","yes","12","4","2542","stimuli/pictures/flute_wooden_1.jpg","1","1","","true","yes","sound","stimuli/sounds/flute_sound_B.wav",""
"","","","","","audio-keyboard-response","219","2.0.0","194580","potttr9tecm","mus","rabbit","21","female","yes","yes","12","4","null","stimuli/sounds/bleep.wav","null","","","","","","",""
"","","","","","html-keyboard-response","220","2.0.0","196149","potttr9tecm","mus","rabbit","21","female","yes","yes","12","4","1466","<div style=""font-size:30px;"">Press space to start the trial</div>"," ","","","","","","",""
"","","","","","html-keyboard-response","221","2.0.0","196401","potttr9tecm","mus","rabbit","21","female","yes","yes","12","4","null","<div style=""font-size:60px;"">+</div>","null","","","","","","",""
"","","","","","audio-keyboard-response","222","2.0.0","197002","potttr9tecm","mus","rabbit","21","female","yes","yes","12","4","null","stimuli/sounds/flute_sound_A.wav","null","","","","","","",""
"","","","","","html-keyboard-response","223","2.0.0","198004","potttr9tecm","mus","rabbit","21","female","yes","yes","12","4","null","","null","","","","","","",""
"","","","","","image-keyboard-response","224","2.0.0","200503","potttr9tecm","mus","rabbit","21","female","yes","yes","12","4","2498","stimuli/pictures/phone_cell_1.jpg","0","0","","true","no","sound","stimuli/sounds/flute_sound_A.wav",""
"","","","","","audio-keyboard-response","225","2.0.0","201506","potttr9tecm","mus","rabbit","21","female","yes","yes","12","4","null","stimuli/sounds/bleep.wav","null","","","","","","",""
"","","","","","html-keyboard-response","226","2.0.0","202011","potttr9tecm","mus","rabbit","21","female","yes","yes","12","4","402","<div style=""font-size:30px;"">Press space to start the trial</div>"," ","","","","","","",""
"","","","","","html-keyboard-response","227","2.0.0","202263","potttr9tecm","mus","rabbit","21","female","yes","yes","12","4","null","<div style=""font-size:60px;"">+</div>","null","","","","","","",""
"","","","","","audio-keyboard-response","228","2.0.0","202863","potttr9tecm","mus","rabbit","21","female","yes","yes","12","4","null","stimuli/sounds/phone_sound_A.wav","null","","","","","","",""
"","","","","","html-keyboard-response","229","2.0.0","203865","potttr9tecm","mus","rabbit","21","female","yes","yes","12","4","null","","null","","","","","","",""
"","","","","","image-keyboard-response","230","2.0.0","204859","potttr9tecm","mus","rabbit","21","female","yes","yes","12","4","991","stimuli/pictures/bird_song_2.jpg","0","0","","true","no","sound","stimuli/sounds/phone_sound_A.wav",""
"","","","","","audio-keyboard-response","231","2.0.0","205860","potttr9tecm","mus","rabbit","21","female","yes","yes","12","4","null","stimuli/sounds/bleep.wav","null","","","","","","",""
"","","","","","html-keyboard-response","232","2.0.0","207148","potttr9tecm","mus","rabbit","21","female","yes","yes","12","4","1185","<div style=""font-size:30px;"">Press space to start the trial</div>"," ","","","","","","",""
"","","","","","html-keyboard-response","233","2.0.0","207400","potttr9tecm","mus","rabbit","21","female","yes","yes","12","4","null","<div style=""font-size:60px;"">+</div>","null","","","","","","",""
"","","","","","audio-keyboard-response","234","2.0.0","208004","potttr9tecm","mus","rabbit","21","female","yes","yes","12","4","null","stimuli/sounds/flute_label_B.wav","null","","","","","","",""
"","","","","","html-keyboard-response","235","2.0.0","209007","potttr9tecm","mus","rabbit","21","female","yes","yes","12","4","null","","null","","","","","","",""
"","","","","","image-keyboard-response","236","2.0.0","209849","potttr9tecm","mus","rabbit","21","female","yes","yes","12","4","840","stimuli/pictures/flute_metal_2.jpg","1","1","","true","yes","sound","stimuli/sounds/flute_label_B.wav",""
"","","","","","audio-keyboard-response","237","2.0.0","210852","potttr9tecm","mus","rabbit","21","female","yes","yes","12","4","null","stimuli/sounds/bleep.wav","null","","","","","","",""
"","","","","","html-keyboard-response","238","2.0.0","211456","potttr9tecm","mus","rabbit","21","female","yes","yes","12","4","502","<div style=""font-size:30px;"">Press space to start the trial</div>"," ","","","","","","",""
"","","","","","html-keyboard-response","239","2.0.0","211709","potttr9tecm","mus","rabbit","21","female","yes","yes","12","4","null","<div style=""font-size:60px;"">+</div>","null","","","","","","",""
"","","","","","audio-keyboard-response","240","2.0.0","212308","potttr9tecm","mus","rabbit","21","female","yes","yes","12","4","null","stimuli/sounds/bird_label_A.wav","null","","","","","","",""
"","","","","","html-keyboard-response","241","2.0.0","213311","potttr9tecm","mus","rabbit","21","female","yes","yes","12","4","null","","null","","","","","","",""
"","","","","","image-keyboard-response","242","2.0.0","215900","potttr9tecm","mus","rabbit","21","female","yes","yes","12","4","2588","stimuli/pictures/bird_song_2.jpg","1","1","","true","yes","sound","stimuli/sounds/bird_label_A.wav",""
"","","","","","audio-keyboard-response","243","2.0.0","216903","potttr9tecm","mus","rabbit","21","female","yes","yes","12","4","null","stimuli/sounds/bleep.wav","null","","","","","","",""
"","","","","","html-keyboard-response","244","2.0.0","217491","potttr9tecm","mus","rabbit","21","female","yes","yes","12","4","486","<div style=""font-size:30px;"">Press space to start the trial</div>"," ","","","","","","",""
"","","","","","html-keyboard-response","245","2.0.0","217743","potttr9tecm","mus","rabbit","21","female","yes","yes","12","4","null","<div style=""font-size:60px;"">+</div>","null","","","","","","",""
"","","","","","audio-keyboard-response","246","2.0.0","218345","potttr9tecm","mus","rabbit","21","female","yes","yes","12","4","null","stimuli/sounds/drum_sound_A.wav","null","","","","","","",""
"","","","","","html-keyboard-response","247","2.0.0","219346","potttr9tecm","mus","rabbit","21","female","yes","yes","12","4","null","","null","","","","","","",""
"","","","","","image-keyboard-response","248","2.0.0","221975","potttr9tecm","mus","rabbit","21","female","yes","yes","12","4","2627","stimuli/pictures/flute_wooden_2.jpg","0","0","","true","no","sound","stimuli/sounds/drum_sound_A.wav",""
"","","","","","audio-keyboard-response","249","2.0.0","222977","potttr9tecm","mus","rabbit","21","female","yes","yes","12","4","null","stimuli/sounds/bleep.wav","null","","","","","","",""
"","","","","","html-keyboard-response","250","2.0.0","223528","potttr9tecm","mus","rabbit","21","female","yes","yes","12","4","449","<div style=""font-size:30px;"">Press space to start the trial</div>"," ","","","","","","",""
"","","","","","html-keyboard-response","251","2.0.0","223781","potttr9tecm","mus","rabbit","21","female","yes","yes","12","4","null","<div style=""font-size:60px;"">+</div>","null","","","","","","",""
"","","","","","audio-keyboard-response","252","2.0.0","224383","potttr9tecm","mus","rabbit","21","female","yes","yes","12","4","null","stimuli/sounds/bird_sound_A.wav","null","","","","","","",""
"","","","","","html-keyboard-response","253","2.0.0","225385","potttr9tecm","mus","rabbit","21","female","yes","yes","12","4","null","","null","","","","","","",""
"","","","","","image-keyboard-response","254","2.0.0","226414","potttr9tecm","mus","rabbit","21","female","yes","yes","12","4","1027","stimuli/pictures/piano_grand_2.jpg","0","0","","true","no","sound","stimuli/sounds/bird_sound_A.wav",""
"","","","","","audio-keyboard-response","255","2.0.0","227416","potttr9tecm","mus","rabbit","21","female","yes","yes","12","4","null","stimuli/sounds/bleep.wav","null","","","","","","",""
"","","","","","html-keyboard-response","256","2.0.0","227930","potttr9tecm","mus","rabbit","21","female","yes","yes","12","4","411","<div style=""font-size:30px;"">Press space to start the trial</div>"," ","","","","","","",""
"","","","","","html-keyboard-response","257","2.0.0","228182","potttr9tecm","mus","rabbit","21","female","yes","yes","12","4","null","<div style=""font-size:60px;"">+</div>","null","","","","","","",""
"","","","","","audio-keyboard-response","258","2.0.0","228783","potttr9tecm","mus","rabbit","21","female","yes","yes","12","4","null","stimuli/sounds/bird_label_A.wav","null","","","","","","",""
"","","","","","html-keyboard-response","259","2.0.0","229786","potttr9tecm","mus","rabbit","21","female","yes","yes","12","4","null","","null","","","","","","",""
"","","","","","image-keyboard-response","260","2.0.0","230626","potttr9tecm","mus","rabbit","21","female","yes","yes","12","4","838","stimuli/pictures/flute_wooden_1.jpg","0","0","","true","no","sound","stimuli/sounds/bird_label_A.wav",""
"","","","","","audio-keyboard-response","261","2.0.0","231628","potttr9tecm","mus","rabbit","21","female","yes","yes","12","4","null","stimuli/sounds/bleep.wav","null","","","","","","",""
"","","","","","html-keyboard-response","262","2.0.0","232269","potttr9tecm","mus","rabbit","21","female","yes","yes","12","4","539","<div style=""font-size:30px;"">Press space to start the trial</div>"," ","","","","","","",""
"","","","","","html-keyboard-response","263","2.0.0","232521","potttr9tecm","mus","rabbit","21","female","yes","yes","12","4","null","<div style=""font-size:60px;"">+</div>","null","","","","","","",""
"","","","","","audio-keyboard-response","264","2.0.0","233130","potttr9tecm","mus","rabbit","21","female","yes","yes","12","4","null","stimuli/sounds/piano_sound_B.wav","null","","","","","","",""
"","","","","","html-keyboard-response","265","2.0.0","234132","potttr9tecm","mus","rabbit","21","female","yes","yes","12","4","null","","null","","","","","","",""
"","","","","","image-keyboard-response","266","2.0.0","235414","potttr9tecm","mus","rabbit","21","female","yes","yes","12","4","1281","stimuli/pictures/flute_metal_2.jpg","0","0","","true","no","sound","stimuli/sounds/piano_sound_B.wav",""
"","","","","","audio-keyboard-response","267","2.0.0","236417","potttr9tecm","mus","rabbit","21","female","yes","yes","12","4","null","stimuli/sounds/bleep.wav","null","","","","","","",""
"","","","","","html-keyboard-response","268","2.0.0","238661","potttr9tecm","mus","rabbit","21","female","yes","yes","12","4","2142","<p>You have completed a block. Press R when you are ready to continue</p>","r","","","","","","",""
"","","","","","html-keyboard-response","269","2.0.0","239336","potttr9tecm","mus","rabbit","21","female","yes","yes","12","4","674","<div style=""font-size:30px;"">Press space to start the trial</div>"," ","","","","","","",""
"","","","","","html-keyboard-response","270","2.0.0","239588","potttr9tecm","mus","rabbit","21","female","yes","yes","12","4","null","<div style=""font-size:60px;"">+</div>","null","","","","","","",""
"","","","","","audio-keyboard-response","271","2.0.0","240191","potttr9tecm","mus","rabbit","21","female","yes","yes","12","4","null","stimuli/sounds/piano_label_B.wav","null","","","","","","",""
"","","","","","html-keyboard-response","272","2.0.0","241193","potttr9tecm","mus","rabbit","21","female","yes","yes","12","4","null","","null","","","","","","",""
"","","","","","image-keyboard-response","273","2.0.0","242041","potttr9tecm","mus","rabbit","21","female","yes","yes","12","4","846","stimuli/pictures/bird_song_1.jpg","0","0","","true","no","sound","stimuli/sounds/piano_label_B.wav",""
"","","","","","audio-keyboard-response","274","2.0.0","243044","potttr9tecm","mus","rabbit","21","female","yes","yes","12","4","null","stimuli/sounds/bleep.wav","null","","","","","","",""
"","","","","","html-keyboard-response","275","2.0.0","243855","potttr9tecm","mus","rabbit","21","female","yes","yes","12","4","708","<div style=""font-size:30px;"">Press space to start the trial</div>"," ","","","","","","",""
"","","","","","html-keyboard-response","276","2.0.0","244108","potttr9tecm","mus","rabbit","21","female","yes","yes","12","4","null","<div style=""font-size:60px;"">+</div>","null","","","","","","",""
"","","","","","audio-keyboard-response","277","2.0.0","244708","potttr9tecm","mus","rabbit","21","female","yes","yes","12","4","null","stimuli/sounds/bird_sound_A.wav","null","","","","","","",""
"","","","","","html-keyboard-response","278","2.0.0","245710","potttr9tecm","mus","rabbit","21","female","yes","yes","12","4","null","","null","","","","","","",""
"","","","","","image-keyboard-response","279","2.0.0","247709","potttr9tecm","mus","rabbit","21","female","yes","yes","12","4","1997","stimuli/pictures/piano_electric_2.jpg","1","0","","false","no","sound","stimuli/sounds/bird_sound_A.wav",""
"","","","","","audio-keyboard-response","280","2.0.0","248712","potttr9tecm","mus","rabbit","21","female","yes","yes","12","4","null","stimuli/sounds/buzz.wav","null","","","","","","",""
"","","","","","html-keyboard-response","281","2.0.0","249465","potttr9tecm","mus","rabbit","21","female","yes","yes","12","4","651","<div style=""font-size:30px;"">Press space to start the trial</div>"," ","","","","","","",""
"","","","","","html-keyboard-response","282","2.0.0","249717","potttr9tecm","mus","rabbit","21","female","yes","yes","12","4","null","<div style=""font-size:60px;"">+</div>","null","","","","","","",""
"","","","","","audio-keyboard-response","283","2.0.0","250324","potttr9tecm","mus","rabbit","21","female","yes","yes","12","4","null","stimuli/sounds/flute_sound_B.wav","null","","","","","","",""
"","","","","","html-keyboard-response","284","2.0.0","251326","potttr9tecm","mus","rabbit","21","female","yes","yes","12","4","null","","null","","","","","","",""
"","","","","","image-keyboard-response","285","2.0.0","252935","potttr9tecm","mus","rabbit","21","female","yes","yes","12","4","1607","stimuli/pictures/bird_song_1.jpg","0","0","","true","no","sound","stimuli/sounds/flute_sound_B.wav",""
"","","","","","audio-keyboard-response","286","2.0.0","253937","potttr9tecm","mus","rabbit","21","female","yes","yes","12","4","null","stimuli/sounds/bleep.wav","null","","","","","","",""
"","","","","","html-keyboard-response","287","2.0.0","254600","potttr9tecm","mus","rabbit","21","female","yes","yes","12","4","559","<div style=""font-size:30px;"">Press space to start the trial</div>"," ","","","","","","",""
"","","","","","html-keyboard-response","288","2.0.0","254852","potttr9tecm","mus","rabbit","21","female","yes","yes","12","4","null","<div style=""font-size:60px;"">+</div>","null","","","","","","",""
"","","","","","audio-keyboard-response","289","2.0.0","255482","potttr9tecm","mus","rabbit","21","female","yes","yes","12","4","null","stimuli/sounds/piano_label_A.wav","null","","","","","","",""
"","","","","","html-keyboard-response","290","2.0.0","256483","potttr9tecm","mus","rabbit","21","female","yes","yes","12","4","null","","null","","","","","","",""
"","","","","","image-keyboard-response","291","2.0.0","258480","potttr9tecm","mus","rabbit","21","female","yes","yes","12","4","1995","stimuli/pictures/phone_cell_2.jpg","0","0","","true","no","sound","stimuli/sounds/piano_label_A.wav",""
"","","","","","audio-keyboard-response","292","2.0.0","259482","potttr9tecm","mus","rabbit","21","female","yes","yes","12","4","null","stimuli/sounds/bleep.wav","null","","","","","","",""
"","","","","","html-keyboard-response","293","2.0.0","260232","potttr9tecm","mus","rabbit","21","female","yes","yes","12","4","648","<div style=""font-size:30px;"">Press space to start the trial</div>"," ","","","","","","",""
"","","","","","html-keyboard-response","294","2.0.0","260484","potttr9tecm","mus","rabbit","21","female","yes","yes","12","4","null","<div style=""font-size:60px;"">+</div>","null","","","","","","",""
"","","","","","audio-keyboard-response","295","2.0.0","261087","potttr9tecm","mus","rabbit","21","female","yes","yes","12","4","null","stimuli/sounds/bird_sound_B.wav","null","","","","","","",""
"","","","","","html-keyboard-response","296","2.0.0","262089","potttr9tecm","mus","rabbit","21","female","yes","yes","12","4","null","","null","","","","","","",""
"","","","","","image-keyboard-response","297","2.0.0","263025","potttr9tecm","mus","rabbit","21","female","yes","yes","12","4","934","stimuli/pictures/drum_kit_2.jpg","0","0","","true","no","sound","stimuli/sounds/bird_sound_B.wav",""
"","","","","","audio-keyboard-response","298","2.0.0","264028","potttr9tecm","mus","rabbit","21","female","yes","yes","12","4","null","stimuli/sounds/bleep.wav","null","","","","","","",""
"","","","","","html-keyboard-response","299","2.0.0","265272","potttr9tecm","mus","rabbit","21","female","yes","yes","12","4","1143","<div style=""font-size:30px;"">Press space to start the trial</div>"," ","","","","","","",""
"","","","","","html-keyboard-response","300","2.0.0","265523","potttr9tecm","mus","rabbit","21","female","yes","yes","12","4","null","<div style=""font-size:60px;"">+</div>","null","","","","","","",""
"","","","","","audio-keyboard-response","301","2.0.0","266121","potttr9tecm","mus","rabbit","21","female","yes","yes","12","4","null","stimuli/sounds/bird_label_A.wav","null","","","","","","",""
"","","","","","html-keyboard-response","302","2.0.0","267123","potttr9tecm","mus","rabbit","21","female","yes","yes","12","4","null","","null","","","","","","",""
"","","","","","image-keyboard-response","303","2.0.0","268594","potttr9tecm","mus","rabbit","21","female","yes","yes","12","4","1469","stimuli/pictures/bird_hawk_1.jpg","1","1","","true","yes","sound","stimuli/sounds/bird_label_A.wav",""
"","","","","","audio-keyboard-response","304","2.0.0","269595","potttr9tecm","mus","rabbit","21","female","yes","yes","12","4","null","stimuli/sounds/bleep.wav","null","","","","","","",""
"","","","","","html-keyboard-response","305","2.0.0","272410","potttr9tecm","mus","rabbit","21","female","yes","yes","12","4","2712","<div style=""font-size:30px;"">Press space to start the trial</div>"," ","","","","","","",""
"","","","","","html-keyboard-response","306","2.0.0","272662","potttr9tecm","mus","rabbit","21","female","yes","yes","12","4","null","<div style=""font-size:60px;"">+</div>","null","","","","","","",""
"","","","","","audio-keyboard-response","307","2.0.0","273263","potttr9tecm","mus","rabbit","21","female","yes","yes","12","4","null","stimuli/sounds/phone_label_A.wav","null","","","","","","",""
"","","","","","html-keyboard-response","308","2.0.0","274266","potttr9tecm","mus","rabbit","21","female","yes","yes","12","4","null","","null","","","","","","",""
"","","","","","image-keyboard-response","309","2.0.0","277229","potttr9tecm","mus","rabbit","21","female","yes","yes","12","4","2961","stimuli/pictures/phone_cell_2.jpg","1","1","","true","yes","sound","stimuli/sounds/phone_label_A.wav",""
"","","","","","audio-keyboard-response","310","2.0.0","278232","potttr9tecm","mus","rabbit","21","female","yes","yes","12","4","null","stimuli/sounds/bleep.wav","null","","","","","","",""
"","","","","","html-keyboard-response","311","2.0.0","278834","potttr9tecm","mus","rabbit","21","female","yes","yes","12","4","500","<div style=""font-size:30px;"">Press space to start the trial</div>"," ","","","","","","",""
"","","","","","html-keyboard-response","312","2.0.0","279086","potttr9tecm","mus","rabbit","21","female","yes","yes","12","4","null","<div style=""font-size:60px;"">+</div>","null","","","","","","",""
"","","","","","audio-keyboard-response","313","2.0.0","279690","potttr9tecm","mus","rabbit","21","female","yes","yes","12","4","null","stimuli/sounds/phone_sound_A.wav","null","","","","","","",""
"","","","","","html-keyboard-response","314","2.0.0","280692","potttr9tecm","mus","rabbit","21","female","yes","yes","12","4","null","","null","","","","","","",""
"","","","","","image-keyboard-response","315","2.0.0","281918","potttr9tecm","mus","rabbit","21","female","yes","yes","12","4","1225","stimuli/pictures/bird_hawk_1.jpg","0","0","","true","no","sound","stimuli/sounds/phone_sound_A.wav",""
"","","","","","audio-keyboard-response","316","2.0.0","282920","potttr9tecm","mus","rabbit","21","female","yes","yes","12","4","null","stimuli/sounds/bleep.wav","null","","","","","","",""
"","","","","","html-keyboard-response","317","2.0.0","283494","potttr9tecm","mus","rabbit","21","female","yes","yes","12","4","471","<div style=""font-size:30px;"">Press space to start the trial</div>"," ","","","","","","",""
"","","","","","html-keyboard-response","318","2.0.0","283747","potttr9tecm","mus","rabbit","21","female","yes","yes","12","4","null","<div style=""font-size:60px;"">+</div>","null","","","","","","",""
"","","","","","audio-keyboard-response","319","2.0.0","284346","potttr9tecm","mus","rabbit","21","female","yes","yes","12","4","null","stimuli/sounds/phone_label_A.wav","null","","","","","","",""
"","","","","","html-keyboard-response","320","2.0.0","285347","potttr9tecm","mus","rabbit","21","female","yes","yes","12","4","null","","null","","","","","","",""
"","","","","","image-keyboard-response","321","2.0.0","286121","potttr9tecm","mus","rabbit","21","female","yes","yes","12","4","772","stimuli/pictures/drum_kit_1.jpg","0","0","","true","no","sound","stimuli/sounds/phone_label_A.wav",""
"","","","","","audio-keyboard-response","322","2.0.0","287124","potttr9tecm","mus","rabbit","21","female","yes","yes","12","4","null","stimuli/sounds/bleep.wav","null","","","","","","",""
"","","","","","html-keyboard-response","323","2.0.0","287738","potttr9tecm","mus","rabbit","21","female","yes","yes","12","4","512","<div style=""font-size:30px;"">Press space to start the trial</div>"," ","","","","","","",""
"","","","","","html-keyboard-response","324","2.0.0","287990","potttr9tecm","mus","rabbit","21","female","yes","yes","12","4","null","<div style=""font-size:60px;"">+</div>","null","","","","","","",""
"","","","","","audio-keyboard-response","325","2.0.0","288591","potttr9tecm","mus","rabbit","21","female","yes","yes","12","4","null","stimuli/sounds/drum_sound_B.wav","null","","","","","","",""
"","","","","","html-keyboard-response","326","2.0.0","289592","potttr9tecm","mus","rabbit","21","female","yes","yes","12","4","null","","null","","","","","","",""
"","","","","","image-keyboard-response","327","2.0.0","290451","potttr9tecm","mus","rabbit","21","female","yes","yes","12","4","857","stimuli/pictures/phone_rotary_1.jpg","0","0","","true","no","sound","stimuli/sounds/drum_sound_B.wav",""
"","","","","","audio-keyboard-response","328","2.0.0","291453","potttr9tecm","mus","rabbit","21","female","yes","yes","12","4","null","stimuli/sounds/bleep.wav","null","","","","","","",""
"","","","","","html-keyboard-response","329","2.0.0","291960","potttr9tecm","mus","rabbit","21","female","yes","yes","12","4","404","<div style=""font-size:30px;"">Press space to start the trial</div>"," ","","","","","","",""
"","","","","","html-keyboard-response","330","2.0.0","292212","potttr9tecm","mus","rabbit","21","female","yes","yes","12","4","null","<div style=""font-size:60px;"">+</div>","null","","","","","","",""
"","","","","","audio-keyboard-response","331","2.0.0","292815","potttr9tecm","mus","rabbit","21","female","yes","yes","12","4","null","stimuli/sounds/drum_sound_B.wav","null","","","","","","",""
"","","","","","html-keyboard-response","332","2.0.0","293817","potttr9tecm","mus","rabbit","21","female","yes","yes","12","4","null","","null","","","","","","",""
"","","","","","image-keyboard-response","333","2.0.0","296044","potttr9tecm","mus","rabbit","21","female","yes","yes","12","4","2225","stimuli/pictures/phone_rotary_2.jpg","0","0","","true","no","sound","stimuli/sounds/drum_sound_B.wav",""
"","","","","","audio-keyboard-response","334","2.0.0","297047","potttr9tecm","mus","rabbit","21","female","yes","yes","12","4","null","stimuli/sounds/bleep.wav","null","","","","","","",""
"","","","","","html-keyboard-response","335","2.0.0","297650","potttr9tecm","mus","rabbit","21","female","yes","yes","12","4","500","<div style=""font-size:30px;"">Press space to start the trial</div>"," ","","","","","","",""
"","","","","","html-keyboard-response","336","2.0.0","297902","potttr9tecm","mus","rabbit","21","female","yes","yes","12","4","null","<div style=""font-size:60px;"">+</div>","null","","","","","","",""
"","","","","","audio-keyboard-response","337","2.0.0","298511","potttr9tecm","mus","rabbit","21","female","yes","yes","12","4","null","stimuli/sounds/piano_sound_A.wav","null","","","","","","",""
"","","","","","html-keyboard-response","338","2.0.0","299513","potttr9tecm","mus","rabbit","21","female","yes","yes","12","4","null","","null","","","","","","",""
"","","","","","image-keyboard-response","339","2.0.0","301568","potttr9tecm","mus","rabbit","21","female","yes","yes","12","4","2052","stimuli/pictures/piano_electric_1.jpg","1","1","","true","no","sound","stimuli/sounds/piano_sound_A.wav",""
"","","","","","audio-keyboard-response","340","2.0.0","302571","potttr9tecm","mus","rabbit","21","female","yes","yes","12","4","null","stimuli/sounds/bleep.wav","null","","","","","","",""
"","","","","","html-keyboard-response","341","2.0.0","303307","potttr9tecm","mus","rabbit","21","female","yes","yes","12","4","633","<div style=""font-size:30px;"">Press space to start the trial</div>"," ","","","","","","",""
"","","","","","html-keyboard-response","342","2.0.0","303559","potttr9tecm","mus","rabbit","21","female","yes","yes","12","4","null","<div style=""font-size:60px;"">+</div>","null","","","","","","",""
"","","","","","audio-keyboard-response","343","2.0.0","304159","potttr9tecm","mus","rabbit","21","female","yes","yes","12","4","null","stimuli/sounds/phone_sound_A.wav","null","","","","","","",""
"","","","","","html-keyboard-response","344","2.0.0","305161","potttr9tecm","mus","rabbit","21","female","yes","yes","12","4","null","","null","","","","","","",""
"","","","","","image-keyboard-response","345","2.0.0","309504","potttr9tecm","mus","rabbit","21","female","yes","yes","12","4","4342","stimuli/pictures/phone_cell_1.jpg","1","1","","true","yes","sound","stimuli/sounds/phone_sound_A.wav",""
"","","","","","audio-keyboard-response","346","2.0.0","310506","potttr9tecm","mus","rabbit","21","female","yes","yes","12","4","null","stimuli/sounds/bleep.wav","null","","","","","","",""
"","","","","","html-keyboard-response","347","2.0.0","311059","potttr9tecm","mus","rabbit","21","female","yes","yes","12","4","450","<div style=""font-size:30px;"">Press space to start the trial</div>"," ","","","","","","",""
"","","","","","html-keyboard-response","348","2.0.0","311311","potttr9tecm","mus","rabbit","21","female","yes","yes","12","4","null","<div style=""font-size:60px;"">+</div>","null","","","","","","",""
"","","","","","audio-keyboard-response","349","2.0.0","311914","potttr9tecm","mus","rabbit","21","female","yes","yes","12","4","null","stimuli/sounds/phone_label_B.wav","null","","","","","","",""
"","","","","","html-keyboard-response","350","2.0.0","312916","potttr9tecm","mus","rabbit","21","female","yes","yes","12","4","null","","null","","","","","","",""
"","","","","","image-keyboard-response","351","2.0.0","313609","potttr9tecm","mus","rabbit","21","female","yes","yes","12","4","691","stimuli/pictures/phone_cell_2.jpg","1","1","","true","yes","sound","stimuli/sounds/phone_label_B.wav",""
"","","","","","audio-keyboard-response","352","2.0.0","314611","potttr9tecm","mus","rabbit","21","female","yes","yes","12","4","null","stimuli/sounds/bleep.wav","null","","","","","","",""
"","","","","","html-keyboard-response","353","2.0.0","315250","potttr9tecm","mus","rabbit","21","female","yes","yes","12","4","537","<div style=""font-size:30px;"">Press space to start the trial</div>"," ","","","","","","",""
"","","","","","html-keyboard-response","354","2.0.0","315502","potttr9tecm","mus","rabbit","21","female","yes","yes","12","4","null","<div style=""font-size:60px;"">+</div>","null","","","","","","",""
"","","","","","audio-keyboard-response","355","2.0.0","316132","potttr9tecm","mus","rabbit","21","female","yes","yes","12","4","null","stimuli/sounds/piano_label_A.wav","null","","","","","","",""
"","","","","","html-keyboard-response","356","2.0.0","317134","potttr9tecm","mus","rabbit","21","female","yes","yes","12","4","null","","null","","","","","","",""
"","","","","","image-keyboard-response","357","2.0.0","318453","potttr9tecm","mus","rabbit","21","female","yes","yes","12","4","1317","stimuli/pictures/phone_rotary_2.jpg","0","0","","true","no","sound","stimuli/sounds/piano_label_A.wav",""
"","","","","","audio-keyboard-response","358","2.0.0","319455","potttr9tecm","mus","rabbit","21","female","yes","yes","12","4","null","stimuli/sounds/bleep.wav","null","","","","","","",""
"","","","","","html-keyboard-response","359","2.0.0","320071","potttr9tecm","mus","rabbit","21","female","yes","yes","12","4","512","<div style=""font-size:30px;"">Press space to start the trial</div>"," ","","","","","","",""
"","","","","","html-keyboard-response","360","2.0.0","320323","potttr9tecm","mus","rabbit","21","female","yes","yes","12","4","null","<div style=""font-size:60px;"">+</div>","null","","","","","","",""
"","","","","","audio-keyboard-response","361","2.0.0","320927","potttr9tecm","mus","rabbit","21","female","yes","yes","12","4","null","stimuli/sounds/phone_sound_B.wav","null","","","","","","",""
"","","","","","html-keyboard-response","362","2.0.0","321930","potttr9tecm","mus","rabbit","21","female","yes","yes","12","4","null","","null","","","","","","",""
"","","","","","image-keyboard-response","363","2.0.0","322733","potttr9tecm","mus","rabbit","21","female","yes","yes","12","4","802","stimuli/pictures/phone_rotary_2.jpg","1","1","","true","yes","sound","stimuli/sounds/phone_sound_B.wav",""
"","","","","","audio-keyboard-response","364","2.0.0","323736","potttr9tecm","mus","rabbit","21","female","yes","yes","12","4","null","stimuli/sounds/bleep.wav","null","","","","","","",""
"","","","","","html-keyboard-response","365","2.0.0","324281","potttr9tecm","mus","rabbit","21","female","yes","yes","12","4","444","<div style=""font-size:30px;"">Press space to start the trial</div>"," ","","","","","","",""
"","","","","","html-keyboard-response","366","2.0.0","324534","potttr9tecm","mus","rabbit","21","female","yes","yes","12","4","null","<div style=""font-size:60px;"">+</div>","null","","","","","","",""
"","","","","","audio-keyboard-response","367","2.0.0","325135","potttr9tecm","mus","rabbit","21","female","yes","yes","12","4","null","stimuli/sounds/flute_label_A.wav","null","","","","","","",""
"","","","","","html-keyboard-response","368","2.0.0","326137","potttr9tecm","mus","rabbit","21","female","yes","yes","12","4","null","","null","","","","","","",""
"","","","","","image-keyboard-response","369","2.0.0","326712","potttr9tecm","mus","rabbit","21","female","yes","yes","12","4","572","stimuli/pictures/flute_metal_2.jpg","1","1","","true","yes","sound","stimuli/sounds/flute_label_A.wav",""
"","","","","","audio-keyboard-response","370","2.0.0","326976","potttr9tecm","mus","rabbit","21","female","yes","yes","12","4","267","stimuli/sounds/bleep.wav"," ","","","","","","",""
"","","","","","html-keyboard-response","371","2.0.0","327795","potttr9tecm","mus","rabbit","21","female","yes","yes","12","4","716","<div style=""font-size:30px;"">Press space to start the trial</div>"," ","","","","","","",""
"","","","","","html-keyboard-response","372","2.0.0","328047","potttr9tecm","mus","rabbit","21","female","yes","yes","12","4","null","<div style=""font-size:60px;"">+</div>","null","","","","","","",""
"","","","","","audio-keyboard-response","373","2.0.0","328650","potttr9tecm","mus","rabbit","21","female","yes","yes","12","4","null","stimuli/sounds/bird_label_A.wav","null","","","","","","",""
"","","","","","html-keyboard-response","374","2.0.0","329652","potttr9tecm","mus","rabbit","21","female","yes","yes","12","4","null","","null","","","","","","",""
"","","","","","image-keyboard-response","375","2.0.0","330102","potttr9tecm","mus","rabbit","21","female","yes","yes","12","4","448","stimuli/pictures/bird_hawk_1.jpg","1","1","","true","yes","sound","stimuli/sounds/bird_label_A.wav",""
"","","","","","audio-keyboard-response","376","2.0.0","331105","potttr9tecm","mus","rabbit","21","female","yes","yes","12","4","null","stimuli/sounds/bleep.wav","null","","","","","","",""
"","","","","","html-keyboard-response","377","2.0.0","331832","potttr9tecm","mus","rabbit","21","female","yes","yes","12","4","626","<div style=""font-size:30px;"">Press space to start the trial</div>"," ","","","","","","",""
"","","","","","html-keyboard-response","378","2.0.0","332084","potttr9tecm","mus","rabbit","21","female","yes","yes","12","4","null","<div style=""font-size:60px;"">+</div>","null","","","","","","",""
"","","","","","audio-keyboard-response","379","2.0.0","332687","potttr9tecm","mus","rabbit","21","female","yes","yes","12","4","null","stimuli/sounds/bird_sound_A.wav","null","","","","","","",""
"","","","","","html-keyboard-response","380","2.0.0","333690","potttr9tecm","mus","rabbit","21","female","yes","yes","12","4","null","","null","","","","","","",""
"","","","","","image-keyboard-response","381","2.0.0","334669","potttr9tecm","mus","rabbit","21","female","yes","yes","12","4","977","stimuli/pictures/bird_song_1.jpg","1","1","","true","no","sound","stimuli/sounds/bird_sound_A.wav",""
"","","","","","audio-keyboard-response","382","2.0.0","335671","potttr9tecm","mus","rabbit","21","female","yes","yes","12","4","null","stimuli/sounds/bleep.wav","null","","","","","","",""
"","","","","","html-keyboard-response","383","2.0.0","336378","potttr9tecm","mus","rabbit","21","female","yes","yes","12","4","605","<div style=""font-size:30px;"">Press space to start the trial</div>"," ","","","","","","",""
"","","","","","html-keyboard-response","384","2.0.0","336631","potttr9tecm","mus","rabbit","21","female","yes","yes","12","4","null","<div style=""font-size:60px;"">+</div>","null","","","","","","",""
"","","","","","audio-keyboard-response","385","2.0.0","337236","potttr9tecm","mus","rabbit","21","female","yes","yes","12","4","null","stimuli/sounds/piano_sound_B.wav","null","","","","","","",""
"","","","","","html-keyboard-response","386","2.0.0","338239","potttr9tecm","mus","rabbit","21","female","yes","yes","12","4","null","","null","","","","","","",""
"","","","","","image-keyboard-response","387","2.0.0","341659","potttr9tecm","mus","rabbit","21","female","yes","yes","12","4","3419","stimuli/pictures/piano_electric_1.jpg","1","1","","true","yes","sound","stimuli/sounds/piano_sound_B.wav",""
"","","","","","audio-keyboard-response","388","2.0.0","342662","potttr9tecm","mus","rabbit","21","female","yes","yes","12","4","null","stimuli/sounds/bleep.wav","null","","","","","","",""
"","","","","","html-keyboard-response","389","2.0.0","344269","potttr9tecm","mus","rabbit","21","female","yes","yes","12","4","1505","<p>You have completed a block. Press R when you are ready to continue</p>","r","","","","","","",""
"","","","","","html-keyboard-response","390","2.0.0","345167","potttr9tecm","mus","rabbit","21","female","yes","yes","12","4","898","<div style=""font-size:30px;"">Press space to start the trial</div>"," ","","","","","","",""
"","","","","","html-keyboard-response","391","2.0.0","345418","potttr9tecm","mus","rabbit","21","female","yes","yes","12","4","null","<div style=""font-size:60px;"">+</div>","null","","","","","","",""
"","","","","","audio-keyboard-response","392","2.0.0","346020","potttr9tecm","mus","rabbit","21","female","yes","yes","12","4","null","stimuli/sounds/phone_sound_B.wav","null","","","","","","",""
"","","","","","html-keyboard-response","393","2.0.0","347023","potttr9tecm","mus","rabbit","21","female","yes","yes","12","4","null","","null","","","","","","",""
"","","","","","image-keyboard-response","394","2.0.0","348254","potttr9tecm","mus","rabbit","21","female","yes","yes","12","4","1230","stimuli/pictures/piano_electric_1.jpg","0","0","","true","no","sound","stimuli/sounds/phone_sound_B.wav",""
"","","","","","audio-keyboard-response","395","2.0.0","349256","potttr9tecm","mus","rabbit","21","female","yes","yes","12","4","null","stimuli/sounds/bleep.wav","null","","","","","","",""
"","","","","","html-keyboard-response","396","2.0.0","349968","potttr9tecm","mus","rabbit","21","female","yes","yes","12","4","609","<div style=""font-size:30px;"">Press space to start the trial</div>"," ","","","","","","",""
"","","","","","html-keyboard-response","397","2.0.0","350220","potttr9tecm","mus","rabbit","21","female","yes","yes","12","4","null","<div style=""font-size:60px;"">+</div>","null","","","","","","",""
"","","","","","audio-keyboard-response","398","2.0.0","350820","potttr9tecm","mus","rabbit","21","female","yes","yes","12","4","null","stimuli/sounds/drum_sound_A.wav","null","","","","","","",""
"","","","","","html-keyboard-response","399","2.0.0","351822","potttr9tecm","mus","rabbit","21","female","yes","yes","12","4","null","","null","","","","","","",""
"","","","","","image-keyboard-response","400","2.0.0","353008","potttr9tecm","mus","rabbit","21","female","yes","yes","12","4","1184","stimuli/pictures/drum_bongo_2.jpg","1","1","","true","no","sound","stimuli/sounds/drum_sound_A.wav",""
"","","","","","audio-keyboard-response","401","2.0.0","354010","potttr9tecm","mus","rabbit","21","female","yes","yes","12","4","null","stimuli/sounds/bleep.wav","null","","","","","","",""
"","","","","","html-keyboard-response","402","2.0.0","354149","potttr9tecm","mus","rabbit","21","female","yes","yes","12","4","35","<div style=""font-size:30px;"">Press space to start the trial</div>"," ","","","","","","",""
"","","","","","html-keyboard-response","403","2.0.0","354402","potttr9tecm","mus","rabbit","21","female","yes","yes","12","4","null","<div style=""font-size:60px;"">+</div>","null","","","","","","",""
"","","","","","audio-keyboard-response","404","2.0.0","355002","potttr9tecm","mus","rabbit","21","female","yes","yes","12","4","null","stimuli/sounds/bird_sound_B.wav","null","","","","","","",""
"","","","","","html-keyboard-response","405","2.0.0","356004","potttr9tecm","mus","rabbit","21","female","yes","yes","12","4","null","","null","","","","","","",""
"","","","","","image-keyboard-response","406","2.0.0","356862","potttr9tecm","mus","rabbit","21","female","yes","yes","12","4","856","stimuli/pictures/bird_song_2.jpg","1","1","","true","yes","sound","stimuli/sounds/bird_sound_B.wav",""
"","","","","","audio-keyboard-response","407","2.0.0","357865","potttr9tecm","mus","rabbit","21","female","yes","yes","12","4","null","stimuli/sounds/bleep.wav","null","","","","","","",""
"","","","","","html-keyboard-response","408","2.0.0","358409","potttr9tecm","mus","rabbit","21","female","yes","yes","12","4","442","<div style=""font-size:30px;"">Press space to start the trial</div>"," ","","","","","","",""
"","","","","","html-keyboard-response","409","2.0.0","358661","potttr9tecm","mus","rabbit","21","female","yes","yes","12","4","null","<div style=""font-size:60px;"">+</div>","null","","","","","","",""
"","","","","","audio-keyboard-response","410","2.0.0","359263","potttr9tecm","mus","rabbit","21","female","yes","yes","12","4","null","stimuli/sounds/bird_label_B.wav","null","","","","","","",""
"","","","","","html-keyboard-response","411","2.0.0","360266","potttr9tecm","mus","rabbit","21","female","yes","yes","12","4","null","","null","","","","","","",""
"","","","","","image-keyboard-response","412","2.0.0","361202","potttr9tecm","mus","rabbit","21","female","yes","yes","12","4","934","stimuli/pictures/bird_hawk_1.jpg","1","1","","true","yes","sound","stimuli/sounds/bird_label_B.wav",""
"","","","","","audio-keyboard-response","413","2.0.0","362205","potttr9tecm","mus","rabbit","21","female","yes","yes","12","4","null","stimuli/sounds/bleep.wav","null","","","","","","",""
"","","","","","html-keyboard-response","414","2.0.0","363105","potttr9tecm","mus","rabbit","21","female","yes","yes","12","4","798","<div style=""font-size:30px;"">Press space to start the trial</div>"," ","","","","","","",""
"","","","","","html-keyboard-response","415","2.0.0","363357","potttr9tecm","mus","rabbit","21","female","yes","yes","12","4","null","<div style=""font-size:60px;"">+</div>","null","","","","","","",""
"","","","","","audio-keyboard-response","416","2.0.0","363956","potttr9tecm","mus","rabbit","21","female","yes","yes","12","4","null","stimuli/sounds/drum_sound_A.wav","null","","","","","","",""
"","","","","","html-keyboard-response","417","2.0.0","364959","potttr9tecm","mus","rabbit","21","female","yes","yes","12","4","null","","null","","","","","","",""
"","","","","","image-keyboard-response","418","2.0.0","366575","potttr9tecm","mus","rabbit","21","female","yes","yes","12","4","1614","stimuli/pictures/flute_metal_2.jpg","0","0","","true","no","sound","stimuli/sounds/drum_sound_A.wav",""
"","","","","","audio-keyboard-response","419","2.0.0","367578","potttr9tecm","mus","rabbit","21","female","yes","yes","12","4","null","stimuli/sounds/bleep.wav","null","","","","","","",""
"","","","","","html-keyboard-response","420","2.0.0","367753","potttr9tecm","mus","rabbit","21","female","yes","yes","12","4","72","<div style=""font-size:30px;"">Press space to start the trial</div>"," ","","","","","","",""
"","","","","","html-keyboard-response","421","2.0.0","368004","potttr9tecm","mus","rabbit","21","female","yes","yes","12","4","null","<div style=""font-size:60px;"">+</div>","null","","","","","","",""
"","","","","","audio-keyboard-response","422","2.0.0","368607","potttr9tecm","mus","rabbit","21","female","yes","yes","12","4","null","stimuli/sounds/phone_label_A.wav","null","","","","","","",""
"","","","","","html-keyboard-response","423","2.0.0","369610","potttr9tecm","mus","rabbit","21","female","yes","yes","12","4","null","","null","","","","","","",""
"","","","","","image-keyboard-response","424","2.0.0","371064","potttr9tecm","mus","rabbit","21","female","yes","yes","12","4","1453","stimuli/pictures/drum_bongo_1.jpg","0","0","","true","no","sound","stimuli/sounds/phone_label_A.wav",""
"","","","","","audio-keyboard-response","425","2.0.0","372067","potttr9tecm","mus","rabbit","21","female","yes","yes","12","4","null","stimuli/sounds/bleep.wav","null","","","","","","",""
"","","","","","html-keyboard-response","426","2.0.0","372674","potttr9tecm","mus","rabbit","21","female","yes","yes","12","4","505","<div style=""font-size:30px;"">Press space to start the trial</div>"," ","","","","","","",""
"","","","","","html-keyboard-response","427","2.0.0","372926","potttr9tecm","mus","rabbit","21","female","yes","yes","12","4","null","<div style=""font-size:60px;"">+</div>","null","","","","","","",""
"","","","","","audio-keyboard-response","428","2.0.0","373524","potttr9tecm","mus","rabbit","21","female","yes","yes","12","4","null","stimuli/sounds/flute_sound_A.wav","null","","","","","","",""
"","","","","","html-keyboard-response","429","2.0.0","374526","potttr9tecm","mus","rabbit","21","female","yes","yes","12","4","null","","null","","","","","","",""
"","","","","","image-keyboard-response","430","2.0.0","376731","potttr9tecm","mus","rabbit","21","female","yes","yes","12","4","2203","stimuli/pictures/flute_wooden_1.jpg","0","1","","false","no","sound","stimuli/sounds/flute_sound_A.wav",""
"","","","","","audio-keyboard-response","431","2.0.0","377733","potttr9tecm","mus","rabbit","21","female","yes","yes","12","4","null","stimuli/sounds/buzz.wav","null","","","","","","",""
"","","","","","html-keyboard-response","432","2.0.0","380383","potttr9tecm","mus","rabbit","21","female","yes","yes","12","4","2548","<div style=""font-size:30px;"">Press space to start the trial</div>"," ","","","","","","",""
"","","","","","html-keyboard-response","433","2.0.0","380636","potttr9tecm","mus","rabbit","21","female","yes","yes","12","4","null","<div style=""font-size:60px;"">+</div>","null","","","","","","",""
"","","","","","audio-keyboard-response","434","2.0.0","381236","potttr9tecm","mus","rabbit","21","female","yes","yes","12","4","null","stimuli/sounds/drum_sound_A.wav","null","","","","","","",""
"","","","","","html-keyboard-response","435","2.0.0","382238","potttr9tecm","mus","rabbit","21","female","yes","yes","12","4","null","","null","","","","","","",""
"","","","","","image-keyboard-response","436","2.0.0","384193","potttr9tecm","mus","rabbit","21","female","yes","yes","12","4","1953","stimuli/pictures/drum_kit_1.jpg","1","1","","true","yes","sound","stimuli/sounds/drum_sound_A.wav",""
"","","","","","audio-keyboard-response","437","2.0.0","385196","potttr9tecm","mus","rabbit","21","female","yes","yes","12","4","null","stimuli/sounds/bleep.wav","null","","","","","","",""
"","","","","","html-keyboard-response","438","2.0.0","385910","potttr9tecm","mus","rabbit","21","female","yes","yes","12","4","612","<div style=""font-size:30px;"">Press space to start the trial</div>"," ","","","","","","",""
"","","","","","html-keyboard-response","439","2.0.0","386163","potttr9tecm","mus","rabbit","21","female","yes","yes","12","4","null","<div style=""font-size:60px;"">+</div>","null","","","","","","",""
"","","","","","audio-keyboard-response","440","2.0.0","386762","potttr9tecm","mus","rabbit","21","female","yes","yes","12","4","null","stimuli/sounds/flute_label_A.wav","null","","","","","","",""
"","","","","","html-keyboard-response","441","2.0.0","387764","potttr9tecm","mus","rabbit","21","female","yes","yes","12","4","null","","null","","","","","","",""
"","","","","","image-keyboard-response","442","2.0.0","390188","potttr9tecm","mus","rabbit","21","female","yes","yes","12","4","2422","stimuli/pictures/flute_wooden_1.jpg","0","1","","false","yes","sound","stimuli/sounds/flute_label_A.wav",""
"","","","","","audio-keyboard-response","443","2.0.0","391191","potttr9tecm","mus","rabbit","21","female","yes","yes","12","4","null","stimuli/sounds/buzz.wav","null","","","","","","",""
"","","","","","html-keyboard-response","444","2.0.0","416503","potttr9tecm","mus","rabbit","21","female","yes","yes","12","4","25210","<div style=""font-size:30px;"">Press space to start the trial</div>"," ","","","","","","",""
"","","","","","html-keyboard-response","445","2.0.0","416756","potttr9tecm","mus","rabbit","21","female","yes","yes","12","4","null","<div style=""font-size:60px;"">+</div>","null","","","","","","",""
"","","","","","audio-keyboard-response","446","2.0.0","417359","potttr9tecm","mus","rabbit","21","female","yes","yes","12","4","null","stimuli/sounds/bird_label_B.wav","null","","","","","","",""
"","","","","","html-keyboard-response","447","2.0.0","418361","potttr9tecm","mus","rabbit","21","female","yes","yes","12","4","null","","null","","","","","","",""
"","","","","","image-keyboard-response","448","2.0.0","419432","potttr9tecm","mus","rabbit","21","female","yes","yes","12","4","1069","stimuli/pictures/bird_song_2.jpg","1","1","","true","yes","sound","stimuli/sounds/bird_label_B.wav",""
"","","","","","audio-keyboard-response","449","2.0.0","420435","potttr9tecm","mus","rabbit","21","female","yes","yes","12","4","null","stimuli/sounds/bleep.wav","null","","","","","","",""
"","","","","","html-keyboard-response","450","2.0.0","421155","potttr9tecm","mus","rabbit","21","female","yes","yes","12","4","619","<div style=""font-size:30px;"">Press space to start the trial</div>"," ","","","","","","",""
"","","","","","html-keyboard-response","451","2.0.0","421408","potttr9tecm","mus","rabbit","21","female","yes","yes","12","4","null","<div style=""font-size:60px;"">+</div>","null","","","","","","",""
"","","","","","audio-keyboard-response","452","2.0.0","422010","potttr9tecm","mus","rabbit","21","female","yes","yes","12","4","null","stimuli/sounds/bird_sound_B.wav","null","","","","","","",""
"","","","","","html-keyboard-response","453","2.0.0","423012","potttr9tecm","mus","rabbit","21","female","yes","yes","12","4","null","","null","","","","","","",""
"","","","","","image-keyboard-response","454","2.0.0","424216","potttr9tecm","mus","rabbit","21","female","yes","yes","12","4","1201","stimuli/pictures/bird_hawk_1.jpg","1","1","","true","no","sound","stimuli/sounds/bird_sound_B.wav",""
"","","","","","audio-keyboard-response","455","2.0.0","425218","potttr9tecm","mus","rabbit","21","female","yes","yes","12","4","null","stimuli/sounds/bleep.wav","null","","","","","","",""
"","","","","","html-keyboard-response","456","2.0.0","425804","potttr9tecm","mus","rabbit","21","female","yes","yes","12","4","483","<div style=""font-size:30px;"">Press space to start the trial</div>"," ","","","","","","",""
"","","","","","html-keyboard-response","457","2.0.0","426057","potttr9tecm","mus","rabbit","21","female","yes","yes","12","4","null","<div style=""font-size:60px;"">+</div>","null","","","","","","",""
"","","","","","audio-keyboard-response","458","2.0.0","426660","potttr9tecm","mus","rabbit","21","female","yes","yes","12","4","null","stimuli/sounds/flute_sound_B.wav","null","","","","","","",""
"","","","","","html-keyboard-response","459","2.0.0","427663","potttr9tecm","mus","rabbit","21","female","yes","yes","12","4","null","","null","","","","","","",""
"","","","","","image-keyboard-response","460","2.0.0","429188","potttr9tecm","mus","rabbit","21","female","yes","yes","12","4","1524","stimuli/pictures/flute_wooden_2.jpg","1","1","","true","yes","sound","stimuli/sounds/flute_sound_B.wav",""
"","","","","","audio-keyboard-response","461","2.0.0","430191","potttr9tecm","mus","rabbit","21","female","yes","yes","12","4","null","stimuli/sounds/bleep.wav","null","","","","","","",""
"","","","","","html-keyboard-response","462","2.0.0","430690","potttr9tecm","mus","rabbit","21","female","yes","yes","12","4","396","<div style=""font-size:30px;"">Press space to start the trial</div>"," ","","","","","","",""
"","","","","","html-keyboard-response","463","2.0.0","430942","potttr9tecm","mus","rabbit","21","female","yes","yes","12","4","null","<div style=""font-size:60px;"">+</div>","null","","","","","","",""
"","","","","","audio-keyboard-response","464","2.0.0","431546","potttr9tecm","mus","rabbit","21","female","yes","yes","12","4","null","stimuli/sounds/flute_label_A.wav","null","","","","","","",""
"","","","","","html-keyboard-response","465","2.0.0","432548","potttr9tecm","mus","rabbit","21","female","yes","yes","12","4","null","","null","","","","","","",""
"","","","","","image-keyboard-response","466","2.0.0","433309","potttr9tecm","mus","rabbit","21","female","yes","yes","12","4","759","stimuli/pictures/flute_metal_1.jpg","1","1","","true","yes","sound","stimuli/sounds/flute_label_A.wav",""
"","","","","","audio-keyboard-response","467","2.0.0","434312","potttr9tecm","mus","rabbit","21","female","yes","yes","12","4","null","stimuli/sounds/bleep.wav","null","","","","","","",""
"","","","","","html-keyboard-response","468","2.0.0","434888","potttr9tecm","mus","rabbit","21","female","yes","yes","12","4","474","<div style=""font-size:30px;"">Press space to start the trial</div>"," ","","","","","","",""
"","","","","","html-keyboard-response","469","2.0.0","435141","potttr9tecm","mus","rabbit","21","female","yes","yes","12","4","null","<div style=""font-size:60px;"">+</div>","null","","","","","","",""
"","","","","","audio-keyboard-response","470","2.0.0","435743","potttr9tecm","mus","rabbit","21","female","yes","yes","12","4","null","stimuli/sounds/drum_label_A.wav","null","","","","","","",""
"","","","","","html-keyboard-response","471","2.0.0","436746","potttr9tecm","mus","rabbit","21","female","yes","yes","12","4","null","","null","","","","","","",""
"","","","","","image-keyboard-response","472","2.0.0","438057","potttr9tecm","mus","rabbit","21","female","yes","yes","12","4","1309","stimuli/pictures/drum_kit_1.jpg","1","1","","true","yes","sound","stimuli/sounds/drum_label_A.wav",""
"","","","","","audio-keyboard-response","473","2.0.0","439060","potttr9tecm","mus","rabbit","21","female","yes","yes","12","4","null","stimuli/sounds/bleep.wav","null","","","","","","",""
"","","","","","html-keyboard-response","474","2.0.0","439741","potttr9tecm","mus","rabbit","21","female","yes","yes","12","4","579","<div style=""font-size:30px;"">Press space to start the trial</div>"," ","","","","","","",""
"","","","","","html-keyboard-response","475","2.0.0","439993","potttr9tecm","mus","rabbit","21","female","yes","yes","12","4","null","<div style=""font-size:60px;"">+</div>","null","","","","","","",""
"","","","","","audio-keyboard-response","476","2.0.0","440602","potttr9tecm","mus","rabbit","21","female","yes","yes","12","4","null","stimuli/sounds/piano_sound_A.wav","null","","","","","","",""
"","","","","","html-keyboard-response","477","2.0.0","441605","potttr9tecm","mus","rabbit","21","female","yes","yes","12","4","null","","null","","","","","","",""
"","","","","","image-keyboard-response","478","2.0.0","444522","potttr9tecm","mus","rabbit","21","female","yes","yes","12","4","2915","stimuli/pictures/drum_bongo_2.jpg","1","0","","false","no","sound","stimuli/sounds/piano_sound_A.wav",""
"","","","","","audio-keyboard-response","479","2.0.0","445525","potttr9tecm","mus","rabbit","21","female","yes","yes","12","4","null","stimuli/sounds/buzz.wav","null","","","","","","",""
"","","","","","html-keyboard-response","480","2.0.0","448886","potttr9tecm","mus","rabbit","21","female","yes","yes","12","4","3258","<div style=""font-size:30px;"">Press space to start the trial</div>"," ","","","","","","",""
"","","","","","html-keyboard-response","481","2.0.0","449138","potttr9tecm","mus","rabbit","21","female","yes","yes","12","4","null","<div style=""font-size:60px;"">+</div>","null","","","","","","",""
"","","","","","audio-keyboard-response","482","2.0.0","449738","potttr9tecm","mus","rabbit","21","female","yes","yes","12","4","null","stimuli/sounds/phone_label_B.wav","null","","","","","","",""
"","","","","","html-keyboard-response","483","2.0.0","450740","potttr9tecm","mus","rabbit","21","female","yes","yes","12","4","null","","null","","","","","","",""
