"success","timeout","failed_images","failed_audio","failed_video","trial_type","trial_index","plugin_version","time_elapsed","random_id","condition","participant","age","gender_id","mus_exp","inst_exp","years_exp","mus_listening","rt","stimulus","response","correct_response","practice","correct","congruent","sound_type","audio","question_order"
"true","false","[]","[]","[]","preload","0","2.0.0","1021","pq1rxk7w7jo","ono","alpaca","23","male","no","no","0.5","3-4","","","","","","","","","",""
"","","","","","html-keyboard-response","1","2.0.0","3360","pq1rxk7w7jo","ono","alpaca","23","male","no","no","0.5","3-4","2337","Welcome to the experiment! Press any key to begin."," ","","","","","","",""
"true","","","","","fullscreen","2","null","8120","pq1rxk7w7jo","ono","alpaca","23","male","no","no","0.5","3-4","3754","","","","","","","","",""
"","","","","","survey-text","3","2.0.0","12916","pq1rxk7w7jo","ono","alpaca","23","male","no","no","0.5","3-4","4791","","{""participant_id"":""alpaca""}","","","","","","",""
"","","","","","html-keyboard-response","4","2.0.0","34426","pq1rxk7w7jo","ono","alpaca","23","male","no","no","0.5","3-4","21506","
    <p> Please use headphones for the duration of the study.</p>
    <p> Within each trial, you will hear a sound and then be presented with an image in the center of your screen.</p>
    <p>Press the <b>'1'</b> key if what you hear <u>matches</u> what you see.</p>
    <p>Press the <b>'0'</b> key if what you hear <u>does not match</u> what you see.</p>
    <p>Try to respond as quickly and accurately as you can.</p>
    <p> Press any key to begin.</p>
    "," ","","","","","","",""
"","","","","","html-keyboard-response","5","2.0.0","34806","pq1rxk7w7jo","ono","alpaca","23","male","no","no","0.5","3-4","379","
    <div style=""font-size:28px;"">
      <p>You will now complete 4 short practice trials.</p>
      <p>This is just to help you get familiar with the task.</p>
      <p>Press any key to begin.</p>
    </div>
  ","1","","","","","","",""
"","","","","","html-keyboard-response","6","2.0.0","35307","pq1rxk7w7jo","ono","alpaca","23","male","no","no","0.5","3-4","null","<div style=""font-size:60px;"">+</div>","null","","","","","","",""
"","","","","","audio-keyboard-response","7","2.0.0","36680","pq1rxk7w7jo","ono","alpaca","23","male","no","no","0.5","3-4","null","stimuli/sounds/guitar_label_A.wav","null","","","","","","",""
"","","","","","image-keyboard-response","8","2.0.0","37938","pq1rxk7w7jo","ono","alpaca","23","male","no","no","0.5","3-4","1254","stimuli/pictures/guitar_acoustic_1.jpg","1","1","true","true","","","",""
"","","","","","audio-keyboard-response","9","2.0.0","38739","pq1rxk7w7jo","ono","alpaca","23","male","no","no","0.5","3-4","null","stimuli/sounds/bleep.wav","null","","","","","","",""
"","","","","","html-keyboard-response","10","2.0.0","39442","pq1rxk7w7jo","ono","alpaca","23","male","no","no","0.5","3-4","null","<p style='color:green; font-size:30px;'>Correct!</p>","null","","","","","","",""
"","","","","","html-keyboard-response","11","2.0.0","39943","pq1rxk7w7jo","ono","alpaca","23","male","no","no","0.5","3-4","null","<div style=""font-size:60px;"">+</div>","null","","","","","","",""
"","","","","","audio-keyboard-response","12","2.0.0","40546","pq1rxk7w7jo","ono","alpaca","23","male","no","no","0.5","3-4","null","stimuli/sounds/guitar_sound_B.wav","null","","","","","","",""
"","","","","","image-keyboard-response","13","2.0.0","43224","pq1rxk7w7jo","ono","alpaca","23","male","no","no","0.5","3-4","2676","stimuli/pictures/guitar_acoustic_2.jpg","1","1","true","true","","","",""
"","","","","","audio-keyboard-response","14","2.0.0","44026","pq1rxk7w7jo","ono","alpaca","23","male","no","no","0.5","3-4","null","stimuli/sounds/bleep.wav","null","","","","","","",""
"","","","","","html-keyboard-response","15","2.0.0","44727","pq1rxk7w7jo","ono","alpaca","23","male","no","no","0.5","3-4","null","<p style='color:green; font-size:30px;'>Correct!</p>","null","","","","","","",""
"","","","","","html-keyboard-response","16","2.0.0","45229","pq1rxk7w7jo","ono","alpaca","23","male","no","no","0.5","3-4","null","<div style=""font-size:60px;"">+</div>","null","","","","","","",""
"","","","","","audio-keyboard-response","17","2.0.0","45832","pq1rxk7w7jo","ono","alpaca","23","male","no","no","0.5","3-4","null","stimuli/sounds/flute_sound_A.wav","null","","","","","","",""
"","","","","","image-keyboard-response","18","2.0.0","47448","pq1rxk7w7jo","ono","alpaca","23","male","no","no","0.5","3-4","1615","stimuli/pictures/guitar_electric_1.jpg","0","0","true","true","","","",""
"","","","","","audio-keyboard-response","19","2.0.0","48251","pq1rxk7w7jo","ono","alpaca","23","male","no","no","0.5","3-4","null","stimuli/sounds/bleep.wav","null","","","","","","",""
"","","","","","html-keyboard-response","20","2.0.0","48953","pq1rxk7w7jo","ono","alpaca","23","male","no","no","0.5","3-4","null","<p style='color:green; font-size:30px;'>Correct!</p>","null","","","","","","",""
"","","","","","html-keyboard-response","21","2.0.0","49454","pq1rxk7w7jo","ono","alpaca","23","male","no","no","0.5","3-4","null","<div style=""font-size:60px;"">+</div>","null","","","","","","",""
"","","","","","audio-keyboard-response","22","2.0.0","50056","pq1rxk7w7jo","ono","alpaca","23","male","no","no","0.5","3-4","null","stimuli/sounds/guitar_sound_A.wav","null","","","","","","",""
"","","","","","image-keyboard-response","23","2.0.0","51809","pq1rxk7w7jo","ono","alpaca","23","male","no","no","0.5","3-4","1751","stimuli/pictures/guitar_acoustic_1.jpg","0","1","true","false","","","",""
"","","","","","audio-keyboard-response","24","2.0.0","52611","pq1rxk7w7jo","ono","alpaca","23","male","no","no","0.5","3-4","null","stimuli/sounds/buzz.wav","null","","","","","","",""
"","","","","","html-keyboard-response","25","2.0.0","53312","pq1rxk7w7jo","ono","alpaca","23","male","no","no","0.5","3-4","null","<p style='color:red; font-size:30px;'>Incorrect</p>","null","","","","","","",""
"","","","","","html-keyboard-response","26","2.0.0","55985","pq1rxk7w7jo","ono","alpaca","23","male","no","no","0.5","3-4","2672","<p>Practice complete. Press any key to begin the real experiment.</p>"," ","","","","","","",""
"","","","","","html-keyboard-response","27","2.0.0","62080","pq1rxk7w7jo","ono","alpaca","23","male","no","no","0.5","3-4","6095","<div style=""font-size:30px;"">Press space to start the trial</div>"," ","","","","","","",""
"","","","","","html-keyboard-response","28","2.0.0","62332","pq1rxk7w7jo","ono","alpaca","23","male","no","no","0.5","3-4","null","<div style=""font-size:60px;"">+</div>","null","","","","","","",""
"","","","","","audio-keyboard-response","29","2.0.0","63016","pq1rxk7w7jo","ono","alpaca","23","male","no","no","0.5","3-4","null","stimuli/sounds/cough_sound_B.wav","null","","","","","","",""
"","","","","","html-keyboard-response","30","2.0.0","64017","pq1rxk7w7jo","ono","alpaca","23","male","no","no","0.5","3-4","null","","null","","","","","","",""
"","","","","","image-keyboard-response","31","2.0.0","68470","pq1rxk7w7jo","ono","alpaca","23","male","no","no","0.5","3-4","4451","stimuli/pictures/hiccup_man_1.jpg","0","0","","true","no","sound","stimuli/sounds/cough_sound_B.wav",""
"","","","","","audio-keyboard-response","32","2.0.0","69473","pq1rxk7w7jo","ono","alpaca","23","male","no","no","0.5","3-4","null","stimuli/sounds/bleep.wav","null","","","","","","",""
"","","","","","html-keyboard-response","33","2.0.0","75090","pq1rxk7w7jo","ono","alpaca","23","male","no","no","0.5","3-4","5513","<div style=""font-size:30px;"">Press space to start the trial</div>"," ","","","","","","",""
"","","","","","html-keyboard-response","34","2.0.0","75342","pq1rxk7w7jo","ono","alpaca","23","male","no","no","0.5","3-4","null","<div style=""font-size:60px;"">+</div>","null","","","","","","",""
"","","","","","audio-keyboard-response","35","2.0.0","75943","pq1rxk7w7jo","ono","alpaca","23","male","no","no","0.5","3-4","null","stimuli/sounds/motor_label_B.wav","null","","","","","","",""
"","","","","","html-keyboard-response","36","2.0.0","76945","pq1rxk7w7jo","ono","alpaca","23","male","no","no","0.5","3-4","null","","null","","","","","","",""
"","","","","","image-keyboard-response","37","2.0.0","77736","pq1rxk7w7jo","ono","alpaca","23","male","no","no","0.5","3-4","790","stimuli/pictures/hiccup_man_2.jpg","0","0","","true","no","sound","stimuli/sounds/motor_label_B.wav",""
"","","","","","audio-keyboard-response","38","2.0.0","78738","pq1rxk7w7jo","ono","alpaca","23","male","no","no","0.5","3-4","null","stimuli/sounds/bleep.wav","null","","","","","","",""
"","","","","","html-keyboard-response","39","2.0.0","91817","pq1rxk7w7jo","ono","alpaca","23","male","no","no","0.5","3-4","12976","<div style=""font-size:30px;"">Press space to start the trial</div>"," ","","","","","","",""
"","","","","","html-keyboard-response","40","2.0.0","92068","pq1rxk7w7jo","ono","alpaca","23","male","no","no","0.5","3-4","null","<div style=""font-size:60px;"">+</div>","null","","","","","","",""
"","","","","","audio-keyboard-response","41","2.0.0","92749","pq1rxk7w7jo","ono","alpaca","23","male","no","no","0.5","3-4","null","stimuli/sounds/cough_sound_B.wav","null","","","","","","",""
"","","","","","html-keyboard-response","42","2.0.0","93751","pq1rxk7w7jo","ono","alpaca","23","male","no","no","0.5","3-4","null","","null","","","","","","",""
"","","","","","image-keyboard-response","43","2.0.0","95835","pq1rxk7w7jo","ono","alpaca","23","male","no","no","0.5","3-4","2082","stimuli/pictures/hiccup_man_2.jpg","1","0","","false","no","sound","stimuli/sounds/cough_sound_B.wav",""
"","","","","","audio-keyboard-response","44","2.0.0","96838","pq1rxk7w7jo","ono","alpaca","23","male","no","no","0.5","3-4","null","stimuli/sounds/buzz.wav","null","","","","","","",""
"","","","","","html-keyboard-response","45","2.0.0","102998","pq1rxk7w7jo","ono","alpaca","23","male","no","no","0.5","3-4","6059","<div style=""font-size:30px;"">Press space to start the trial</div>"," ","","","","","","",""
"","","","","","html-keyboard-response","46","2.0.0","103250","pq1rxk7w7jo","ono","alpaca","23","male","no","no","0.5","3-4","null","<div style=""font-size:60px;"">+</div>","null","","","","","","",""
"","","","","","audio-keyboard-response","47","2.0.0","103853","pq1rxk7w7jo","ono","alpaca","23","male","no","no","0.5","3-4","null","stimuli/sounds/dog_label_A.wav","null","","","","","","",""
"","","","","","html-keyboard-response","48","2.0.0","104855","pq1rxk7w7jo","ono","alpaca","23","male","no","no","0.5","3-4","null","","null","","","","","","",""
"","","","","","image-keyboard-response","49","2.0.0","106186","pq1rxk7w7jo","ono","alpaca","23","male","no","no","0.5","3-4","1329","stimuli/pictures/drop_single_1.jpg","0","0","","true","no","sound","stimuli/sounds/dog_label_A.wav",""
"","","","","","audio-keyboard-response","50","2.0.0","107187","pq1rxk7w7jo","ono","alpaca","23","male","no","no","0.5","3-4","null","stimuli/sounds/bleep.wav","null","","","","","","",""
"","","","","","html-keyboard-response","51","2.0.0","107924","pq1rxk7w7jo","ono","alpaca","23","male","no","no","0.5","3-4","635","<div style=""font-size:30px;"">Press space to start the trial</div>"," ","","","","","","",""
"","","","","","html-keyboard-response","52","2.0.0","108176","pq1rxk7w7jo","ono","alpaca","23","male","no","no","0.5","3-4","null","<div style=""font-size:60px;"">+</div>","null","","","","","","",""
"","","","","","audio-keyboard-response","53","2.0.0","108775","pq1rxk7w7jo","ono","alpaca","23","male","no","no","0.5","3-4","null","stimuli/sounds/motor_label_A.wav","null","","","","","","",""
"","","","","","html-keyboard-response","54","2.0.0","109777","pq1rxk7w7jo","ono","alpaca","23","male","no","no","0.5","3-4","null","","null","","","","","","",""
"","","","","","image-keyboard-response","55","2.0.0","110594","pq1rxk7w7jo","ono","alpaca","23","male","no","no","0.5","3-4","814","stimuli/pictures/motor_harley_2.jpg","1","1","","true","yes","sound","stimuli/sounds/motor_label_A.wav",""
"","","","","","audio-keyboard-response","56","2.0.0","111596","pq1rxk7w7jo","ono","alpaca","23","male","no","no","0.5","3-4","null","stimuli/sounds/bleep.wav","null","","","","","","",""
"","","","","","html-keyboard-response","57","2.0.0","112114","pq1rxk7w7jo","ono","alpaca","23","male","no","no","0.5","3-4","416","<div style=""font-size:30px;"">Press space to start the trial</div>"," ","","","","","","",""
"","","","","","html-keyboard-response","58","2.0.0","112366","pq1rxk7w7jo","ono","alpaca","23","male","no","no","0.5","3-4","null","<div style=""font-size:60px;"">+</div>","null","","","","","","",""
"","","","","","audio-keyboard-response","59","2.0.0","112973","pq1rxk7w7jo","ono","alpaca","23","male","no","no","0.5","3-4","null","stimuli/sounds/hiccup_label_B.wav","null","","","","","","",""
"","","","","","html-keyboard-response","60","2.0.0","113975","pq1rxk7w7jo","ono","alpaca","23","male","no","no","0.5","3-4","null","","null","","","","","","",""
"","","","","","image-keyboard-response","61","2.0.0","115392","pq1rxk7w7jo","ono","alpaca","23","male","no","no","0.5","3-4","1415","stimuli/pictures/dog_rott_1.jpg","0","0","","true","no","sound","stimuli/sounds/hiccup_label_B.wav",""
"","","","","","audio-keyboard-response","62","2.0.0","116394","pq1rxk7w7jo","ono","alpaca","23","male","no","no","0.5","3-4","null","stimuli/sounds/bleep.wav","null","","","","","","",""
"","","","","","html-keyboard-response","63","2.0.0","117771","pq1rxk7w7jo","ono","alpaca","23","male","no","no","0.5","3-4","1276","<div style=""font-size:30px;"">Press space to start the trial</div>"," ","","","","","","",""
"","","","","","html-keyboard-response","64","2.0.0","118023","pq1rxk7w7jo","ono","alpaca","23","male","no","no","0.5","3-4","null","<div style=""font-size:60px;"">+</div>","null","","","","","","",""
"","","","","","audio-keyboard-response","65","2.0.0","118631","pq1rxk7w7jo","ono","alpaca","23","male","no","no","0.5","3-4","null","stimuli/sounds/hiccup_label_B.wav","null","","","","","","",""
"","","","","","html-keyboard-response","66","2.0.0","119633","pq1rxk7w7jo","ono","alpaca","23","male","no","no","0.5","3-4","null","","null","","","","","","",""
"","","","","","image-keyboard-response","67","2.0.0","120947","pq1rxk7w7jo","ono","alpaca","23","male","no","no","0.5","3-4","1312","stimuli/pictures/dog_york_1.jpg","0","0","","true","no","sound","stimuli/sounds/hiccup_label_B.wav",""
"","","","","","audio-keyboard-response","68","2.0.0","121949","pq1rxk7w7jo","ono","alpaca","23","male","no","no","0.5","3-4","null","stimuli/sounds/bleep.wav","null","","","","","","",""
"","","","","","html-keyboard-response","69","2.0.0","122986","pq1rxk7w7jo","ono","alpaca","23","male","no","no","0.5","3-4","935","<div style=""font-size:30px;"">Press space to start the trial</div>"," ","","","","","","",""
"","","","","","html-keyboard-response","70","2.0.0","123237","pq1rxk7w7jo","ono","alpaca","23","male","no","no","0.5","3-4","null","<div style=""font-size:60px;"">+</div>","null","","","","","","",""
"","","","","","audio-keyboard-response","71","2.0.0","123901","pq1rxk7w7jo","ono","alpaca","23","male","no","no","0.5","3-4","null","stimuli/sounds/cough_sound_A.wav","null","","","","","","",""
"","","","","","html-keyboard-response","72","2.0.0","124902","pq1rxk7w7jo","ono","alpaca","23","male","no","no","0.5","3-4","null","","null","","","","","","",""
"","","","","","image-keyboard-response","73","2.0.0","126624","pq1rxk7w7jo","ono","alpaca","23","male","no","no","0.5","3-4","1721","stimuli/pictures/cough_man_2.jpg","1","1","","true","no","sound","stimuli/sounds/cough_sound_A.wav",""
"","","","","","audio-keyboard-response","74","2.0.0","127627","pq1rxk7w7jo","ono","alpaca","23","male","no","no","0.5","3-4","null","stimuli/sounds/bleep.wav","null","","","","","","",""
"","","","","","html-keyboard-response","75","2.0.0","128453","pq1rxk7w7jo","ono","alpaca","23","male","no","no","0.5","3-4","724","<div style=""font-size:30px;"">Press space to start the trial</div>"," ","","","","","","",""
"","","","","","html-keyboard-response","76","2.0.0","128705","pq1rxk7w7jo","ono","alpaca","23","male","no","no","0.5","3-4","null","<div style=""font-size:60px;"">+</div>","null","","","","","","",""
"","","","","","audio-keyboard-response","77","2.0.0","129314","pq1rxk7w7jo","ono","alpaca","23","male","no","no","0.5","3-4","null","stimuli/sounds/hiccup_label_B.wav","null","","","","","","",""
"","","","","","html-keyboard-response","78","2.0.0","130316","pq1rxk7w7jo","ono","alpaca","23","male","no","no","0.5","3-4","null","","null","","","","","","",""
"","","","","","image-keyboard-response","79","2.0.0","133455","pq1rxk7w7jo","ono","alpaca","23","male","no","no","0.5","3-4","3137","stimuli/pictures/hiccup_wom_2.jpg","1","1","","true","yes","sound","stimuli/sounds/hiccup_label_B.wav",""
"","","","","","audio-keyboard-response","80","2.0.0","134458","pq1rxk7w7jo","ono","alpaca","23","male","no","no","0.5","3-4","null","stimuli/sounds/bleep.wav","null","","","","","","",""
"","","","","","html-keyboard-response","81","2.0.0","135056","pq1rxk7w7jo","ono","alpaca","23","male","no","no","0.5","3-4","496","<div style=""font-size:30px;"">Press space to start the trial</div>"," ","","","","","","",""
"","","","","","html-keyboard-response","82","2.0.0","135308","pq1rxk7w7jo","ono","alpaca","23","male","no","no","0.5","3-4","null","<div style=""font-size:60px;"">+</div>","null","","","","","","",""
"","","","","","audio-keyboard-response","83","2.0.0","135912","pq1rxk7w7jo","ono","alpaca","23","male","no","no","0.5","3-4","null","stimuli/sounds/dog_sound_B.wav","null","","","","","","",""
"","","","","","html-keyboard-response","84","2.0.0","136913","pq1rxk7w7jo","ono","alpaca","23","male","no","no","0.5","3-4","null","","null","","","","","","",""
"","","","","","image-keyboard-response","85","2.0.0","138134","pq1rxk7w7jo","ono","alpaca","23","male","no","no","0.5","3-4","1219","stimuli/pictures/dog_york_1.jpg","1","1","","true","yes","sound","stimuli/sounds/dog_sound_B.wav",""
"","","","","","audio-keyboard-response","86","2.0.0","139136","pq1rxk7w7jo","ono","alpaca","23","male","no","no","0.5","3-4","null","stimuli/sounds/bleep.wav","null","","","","","","",""
"","","","","","html-keyboard-response","87","2.0.0","139680","pq1rxk7w7jo","ono","alpaca","23","male","no","no","0.5","3-4","442","<div style=""font-size:30px;"">Press space to start the trial</div>"," ","","","","","","",""
"","","","","","html-keyboard-response","88","2.0.0","139931","pq1rxk7w7jo","ono","alpaca","23","male","no","no","0.5","3-4","null","<div style=""font-size:60px;"">+</div>","null","","","","","","",""
"","","","","","audio-keyboard-response","89","2.0.0","140530","pq1rxk7w7jo","ono","alpaca","23","male","no","no","0.5","3-4","null","stimuli/sounds/motor_sound_A.wav","null","","","","","","",""
"","","","","","html-keyboard-response","90","2.0.0","141532","pq1rxk7w7jo","ono","alpaca","23","male","no","no","0.5","3-4","null","","null","","","","","","",""
"","","","","","image-keyboard-response","91","2.0.0","142748","pq1rxk7w7jo","ono","alpaca","23","male","no","no","0.5","3-4","1214","stimuli/pictures/drop_multi_2.jpg","0","0","","true","no","sound","stimuli/sounds/motor_sound_A.wav",""
"","","","","","audio-keyboard-response","92","2.0.0","143751","pq1rxk7w7jo","ono","alpaca","23","male","no","no","0.5","3-4","null","stimuli/sounds/bleep.wav","null","","","","","","",""
"","","","","","html-keyboard-response","93","2.0.0","144167","pq1rxk7w7jo","ono","alpaca","23","male","no","no","0.5","3-4","314","<div style=""font-size:30px;"">Press space to start the trial</div>"," ","","","","","","",""
"","","","","","html-keyboard-response","94","2.0.0","144418","pq1rxk7w7jo","ono","alpaca","23","male","no","no","0.5","3-4","null","<div style=""font-size:60px;"">+</div>","null","","","","","","",""
"","","","","","audio-keyboard-response","95","2.0.0","145021","pq1rxk7w7jo","ono","alpaca","23","male","no","no","0.5","3-4","null","stimuli/sounds/hiccup_sound_B.wav","null","","","","","","",""
"","","","","","html-keyboard-response","96","2.0.0","146023","pq1rxk7w7jo","ono","alpaca","23","male","no","no","0.5","3-4","null","","null","","","","","","",""
"","","","","","image-keyboard-response","97","2.0.0","146915","pq1rxk7w7jo","ono","alpaca","23","male","no","no","0.5","3-4","890","stimuli/pictures/drop_multi_2.jpg","0","0","","true","no","sound","stimuli/sounds/hiccup_sound_B.wav",""
"","","","","","audio-keyboard-response","98","2.0.0","147917","pq1rxk7w7jo","ono","alpaca","23","male","no","no","0.5","3-4","null","stimuli/sounds/bleep.wav","null","","","","","","",""
"","","","","","html-keyboard-response","99","2.0.0","148405","pq1rxk7w7jo","ono","alpaca","23","male","no","no","0.5","3-4","386","<div style=""font-size:30px;"">Press space to start the trial</div>"," ","","","","","","",""
"","","","","","html-keyboard-response","100","2.0.0","148657","pq1rxk7w7jo","ono","alpaca","23","male","no","no","0.5","3-4","null","<div style=""font-size:60px;"">+</div>","null","","","","","","",""
"","","","","","audio-keyboard-response","101","2.0.0","149261","pq1rxk7w7jo","ono","alpaca","23","male","no","no","0.5","3-4","null","stimuli/sounds/dog_label_B.wav","null","","","","","","",""
"","","","","","html-keyboard-response","102","2.0.0","150263","pq1rxk7w7jo","ono","alpaca","23","male","no","no","0.5","3-4","null","","null","","","","","","",""
"","","","","","image-keyboard-response","103","2.0.0","152947","pq1rxk7w7jo","ono","alpaca","23","male","no","no","0.5","3-4","2683","stimuli/pictures/dog_rott_2.jpg","1","1","","true","yes","sound","stimuli/sounds/dog_label_B.wav",""
"","","","","","audio-keyboard-response","104","2.0.0","153949","pq1rxk7w7jo","ono","alpaca","23","male","no","no","0.5","3-4","null","stimuli/sounds/bleep.wav","null","","","","","","",""
"","","","","","html-keyboard-response","105","2.0.0","155214","pq1rxk7w7jo","ono","alpaca","23","male","no","no","0.5","3-4","1163","<div style=""font-size:30px;"">Press space to start the trial</div>"," ","","","","","","",""
"","","","","","html-keyboard-response","106","2.0.0","155466","pq1rxk7w7jo","ono","alpaca","23","male","no","no","0.5","3-4","null","<div style=""font-size:60px;"">+</div>","null","","","","","","",""
"","","","","","audio-keyboard-response","107","2.0.0","156130","pq1rxk7w7jo","ono","alpaca","23","male","no","no","0.5","3-4","null","stimuli/sounds/cough_sound_A.wav","null","","","","","","",""
"","","","","","html-keyboard-response","108","2.0.0","157132","pq1rxk7w7jo","ono","alpaca","23","male","no","no","0.5","3-4","null","","null","","","","","","",""
"","","","","","image-keyboard-response","109","2.0.0","158305","pq1rxk7w7jo","ono","alpaca","23","male","no","no","0.5","3-4","1170","stimuli/pictures/dog_rott_1.jpg","0","0","","true","no","sound","stimuli/sounds/cough_sound_A.wav",""
"","","","","","audio-keyboard-response","110","2.0.0","159307","pq1rxk7w7jo","ono","alpaca","23","male","no","no","0.5","3-4","null","stimuli/sounds/bleep.wav","null","","","","","","",""
"","","","","","html-keyboard-response","111","2.0.0","160277","pq1rxk7w7jo","ono","alpaca","23","male","no","no","0.5","3-4","869","<div style=""font-size:30px;"">Press space to start the trial</div>"," ","","","","","","",""
"","","","","","html-keyboard-response","112","2.0.0","160529","pq1rxk7w7jo","ono","alpaca","23","male","no","no","0.5","3-4","null","<div style=""font-size:60px;"">+</div>","null","","","","","","",""
"","","","","","audio-keyboard-response","113","2.0.0","161133","pq1rxk7w7jo","ono","alpaca","23","male","no","no","0.5","3-4","null","stimuli/sounds/dog_label_B.wav","null","","","","","","",""
"","","","","","html-keyboard-response","114","2.0.0","162135","pq1rxk7w7jo","ono","alpaca","23","male","no","no","0.5","3-4","null","","null","","","","","","",""
"","","","","","image-keyboard-response","115","2.0.0","163664","pq1rxk7w7jo","ono","alpaca","23","male","no","no","0.5","3-4","1527","stimuli/pictures/cough_wom_1.jpg","0","0","","true","no","sound","stimuli/sounds/dog_label_B.wav",""
"","","","","","audio-keyboard-response","116","2.0.0","164666","pq1rxk7w7jo","ono","alpaca","23","male","no","no","0.5","3-4","null","stimuli/sounds/bleep.wav","null","","","","","","",""
"","","","","","html-keyboard-response","117","2.0.0","165317","pq1rxk7w7jo","ono","alpaca","23","male","no","no","0.5","3-4","549","<div style=""font-size:30px;"">Press space to start the trial</div>"," ","","","","","","",""
"","","","","","html-keyboard-response","118","2.0.0","165569","pq1rxk7w7jo","ono","alpaca","23","male","no","no","0.5","3-4","null","<div style=""font-size:60px;"">+</div>","null","","","","","","",""
"","","","","","audio-keyboard-response","119","2.0.0","166173","pq1rxk7w7jo","ono","alpaca","23","male","no","no","0.5","3-4","null","stimuli/sounds/hiccup_sound_B.wav","null","","","","","","",""
"","","","","","html-keyboard-response","120","2.0.0","167175","pq1rxk7w7jo","ono","alpaca","23","male","no","no","0.5","3-4","null","","null","","","","","","",""
"","","","","","image-keyboard-response","121","2.0.0","168147","pq1rxk7w7jo","ono","alpaca","23","male","no","no","0.5","3-4","970","stimuli/pictures/hiccup_man_2.jpg","0","1","","false","yes","sound","stimuli/sounds/hiccup_sound_B.wav",""
"","","","","","audio-keyboard-response","122","2.0.0","169149","pq1rxk7w7jo","ono","alpaca","23","male","no","no","0.5","3-4","null","stimuli/sounds/buzz.wav","null","","","","","","",""
"","","","","","html-keyboard-response","123","2.0.0","170003","pq1rxk7w7jo","ono","alpaca","23","male","no","no","0.5","3-4","752","<div style=""font-size:30px;"">Press space to start the trial</div>"," ","","","","","","",""
"","","","","","html-keyboard-response","124","2.0.0","170254","pq1rxk7w7jo","ono","alpaca","23","male","no","no","0.5","3-4","null","<div style=""font-size:60px;"">+</div>","null","","","","","","",""
"","","","","","audio-keyboard-response","125","2.0.0","170855","pq1rxk7w7jo","ono","alpaca","23","male","no","no","0.5","3-4","null","stimuli/sounds/motor_label_A.wav","null","","","","","","",""
"","","","","","html-keyboard-response","126","2.0.0","171857","pq1rxk7w7jo","ono","alpaca","23","male","no","no","0.5","3-4","null","","null","","","","","","",""
"","","","","","image-keyboard-response","127","2.0.0","172587","pq1rxk7w7jo","ono","alpaca","23","male","no","no","0.5","3-4","728","stimuli/pictures/motor_harley_1.jpg","1","1","","true","yes","sound","stimuli/sounds/motor_label_A.wav",""
"","","","","","audio-keyboard-response","128","2.0.0","173589","pq1rxk7w7jo","ono","alpaca","23","male","no","no","0.5","3-4","null","stimuli/sounds/bleep.wav","null","","","","","","",""
"","","","","","html-keyboard-response","129","2.0.0","174382","pq1rxk7w7jo","ono","alpaca","23","male","no","no","0.5","3-4","692","<div style=""font-size:30px;"">Press space to start the trial</div>"," ","","","","","","",""
"","","","","","html-keyboard-response","130","2.0.0","174634","pq1rxk7w7jo","ono","alpaca","23","male","no","no","0.5","3-4","null","<div style=""font-size:60px;"">+</div>","null","","","","","","",""
"","","","","","audio-keyboard-response","131","2.0.0","175239","pq1rxk7w7jo","ono","alpaca","23","male","no","no","0.5","3-4","null","stimuli/sounds/hiccup_label_B.wav","null","","","","","","",""
"","","","","","html-keyboard-response","132","2.0.0","176241","pq1rxk7w7jo","ono","alpaca","23","male","no","no","0.5","3-4","null","","null","","","","","","",""
"","","","","","image-keyboard-response","133","2.0.0","180197","pq1rxk7w7jo","ono","alpaca","23","male","no","no","0.5","3-4","3954","stimuli/pictures/hiccup_man_1.jpg","0","1","","false","yes","sound","stimuli/sounds/hiccup_label_B.wav",""
"","","","","","audio-keyboard-response","134","2.0.0","181199","pq1rxk7w7jo","ono","alpaca","23","male","no","no","0.5","3-4","null","stimuli/sounds/buzz.wav","null","","","","","","",""
"","","","","","html-keyboard-response","135","2.0.0","181680","pq1rxk7w7jo","ono","alpaca","23","male","no","no","0.5","3-4","379","<div style=""font-size:30px;"">Press space to start the trial</div>"," ","","","","","","",""
"","","","","","html-keyboard-response","136","2.0.0","181932","pq1rxk7w7jo","ono","alpaca","23","male","no","no","0.5","3-4","null","<div style=""font-size:60px;"">+</div>","null","","","","","","",""
"","","","","","audio-keyboard-response","137","2.0.0","182536","pq1rxk7w7jo","ono","alpaca","23","male","no","no","0.5","3-4","null","stimuli/sounds/dog_label_B.wav","null","","","","","","",""
"","","","","","html-keyboard-response","138","2.0.0","183537","pq1rxk7w7jo","ono","alpaca","23","male","no","no","0.5","3-4","null","","null","","","","","","",""
"","","","","","image-keyboard-response","139","2.0.0","184047","pq1rxk7w7jo","ono","alpaca","23","male","no","no","0.5","3-4","507","stimuli/pictures/dog_york_1.jpg","1","1","","true","yes","sound","stimuli/sounds/dog_label_B.wav",""
"","","","","","audio-keyboard-response","140","2.0.0","184869","pq1rxk7w7jo","ono","alpaca","23","male","no","no","0.5","3-4","821","stimuli/sounds/bleep.wav"," ","","","","","","",""
"","","","","","html-keyboard-response","141","2.0.0","185501","pq1rxk7w7jo","ono","alpaca","23","male","no","no","0.5","3-4","531","<div style=""font-size:30px;"">Press space to start the trial</div>"," ","","","","","","",""
"","","","","","html-keyboard-response","142","2.0.0","185753","pq1rxk7w7jo","ono","alpaca","23","male","no","no","0.5","3-4","null","<div style=""font-size:60px;"">+</div>","null","","","","","","",""
"","","","","","audio-keyboard-response","143","2.0.0","186290","pq1rxk7w7jo","ono","alpaca","23","male","no","no","0.5","3-4","null","stimuli/sounds/hiccup_label_A.wav","null","","","","","","",""
"","","","","","html-keyboard-response","144","2.0.0","187292","pq1rxk7w7jo","ono","alpaca","23","male","no","no","0.5","3-4","null","","null","","","","","","",""
"","","","","","image-keyboard-response","145","2.0.0","189224","pq1rxk7w7jo","ono","alpaca","23","male","no","no","0.5","3-4","1931","stimuli/pictures/cough_man_2.jpg","1","0","","false","no","sound","stimuli/sounds/hiccup_label_A.wav",""
"","","","","","audio-keyboard-response","146","2.0.0","190226","pq1rxk7w7jo","ono","alpaca","23","male","no","no","0.5","3-4","null","stimuli/sounds/buzz.wav","null","","","","","","",""
"","","","","","html-keyboard-response","147","2.0.0","193501","pq1rxk7w7jo","ono","alpaca","23","male","no","no","0.5","3-4","3173","<p>You have completed a block. Press R when you are ready to continue</p>","r","","","","","","",""
"","","","","","html-keyboard-response","148","2.0.0","196369","pq1rxk7w7jo","ono","alpaca","23","male","no","no","0.5","3-4","2867","<div style=""font-size:30px;"">Press space to start the trial</div>"," ","","","","","","",""
"","","","","","html-keyboard-response","149","2.0.0","196621","pq1rxk7w7jo","ono","alpaca","23","male","no","no","0.5","3-4","null","<div style=""font-size:60px;"">+</div>","null","","","","","","",""
"","","","","","audio-keyboard-response","150","2.0.0","197170","pq1rxk7w7jo","ono","alpaca","23","male","no","no","0.5","3-4","null","stimuli/sounds/drop_label_A.wav","null","","","","","","",""
"","","","","","html-keyboard-response","151","2.0.0","198172","pq1rxk7w7jo","ono","alpaca","23","male","no","no","0.5","3-4","null","","null","","","","","","",""
"","","","","","image-keyboard-response","152","2.0.0","199022","pq1rxk7w7jo","ono","alpaca","23","male","no","no","0.5","3-4","848","stimuli/pictures/hiccup_man_2.jpg","0","0","","true","no","sound","stimuli/sounds/drop_label_A.wav",""
"","","","","","audio-keyboard-response","153","2.0.0","200024","pq1rxk7w7jo","ono","alpaca","23","male","no","no","0.5","3-4","null","stimuli/sounds/bleep.wav","null","","","","","","",""
"","","","","","html-keyboard-response","154","2.0.0","201011","pq1rxk7w7jo","ono","alpaca","23","male","no","no","0.5","3-4","886","<div style=""font-size:30px;"">Press space to start the trial</div>"," ","","","","","","",""
"","","","","","html-keyboard-response","155","2.0.0","201263","pq1rxk7w7jo","ono","alpaca","23","male","no","no","0.5","3-4","null","<div style=""font-size:60px;"">+</div>","null","","","","","","",""
"","","","","","audio-keyboard-response","156","2.0.0","201863","pq1rxk7w7jo","ono","alpaca","23","male","no","no","0.5","3-4","null","stimuli/sounds/dog_label_A.wav","null","","","","","","",""
"","","","","","html-keyboard-response","157","2.0.0","202864","pq1rxk7w7jo","ono","alpaca","23","male","no","no","0.5","3-4","null","","null","","","","","","",""
"","","","","","image-keyboard-response","158","2.0.0","206043","pq1rxk7w7jo","ono","alpaca","23","male","no","no","0.5","3-4","3177","stimuli/pictures/drop_multi_1.jpg","0","0","","true","no","sound","stimuli/sounds/dog_label_A.wav",""
"","","","","","audio-keyboard-response","159","2.0.0","207046","pq1rxk7w7jo","ono","alpaca","23","male","no","no","0.5","3-4","null","stimuli/sounds/bleep.wav","null","","","","","","",""
"","","","","","html-keyboard-response","160","2.0.0","207663","pq1rxk7w7jo","ono","alpaca","23","male","no","no","0.5","3-4","515","<div style=""font-size:30px;"">Press space to start the trial</div>"," ","","","","","","",""
"","","","","","html-keyboard-response","161","2.0.0","207915","pq1rxk7w7jo","ono","alpaca","23","male","no","no","0.5","3-4","null","<div style=""font-size:60px;"">+</div>","null","","","","","","",""
"","","","","","audio-keyboard-response","162","2.0.0","208498","pq1rxk7w7jo","ono","alpaca","23","male","no","no","0.5","3-4","null","stimuli/sounds/drop_sound_A.wav","null","","","","","","",""
"","","","","","html-keyboard-response","163","2.0.0","209500","pq1rxk7w7jo","ono","alpaca","23","male","no","no","0.5","3-4","null","","null","","","","","","",""
"","","","","","image-keyboard-response","164","2.0.0","212347","pq1rxk7w7jo","ono","alpaca","23","male","no","no","0.5","3-4","2845","stimuli/pictures/cough_wom_1.jpg","0","0","","true","no","sound","stimuli/sounds/drop_sound_A.wav",""
"","","","","","audio-keyboard-response","165","2.0.0","213350","pq1rxk7w7jo","ono","alpaca","23","male","no","no","0.5","3-4","null","stimuli/sounds/bleep.wav","null","","","","","","",""
"","","","","","html-keyboard-response","166","2.0.0","213817","pq1rxk7w7jo","ono","alpaca","23","male","no","no","0.5","3-4","365","<div style=""font-size:30px;"">Press space to start the trial</div>"," ","","","","","","",""
"","","","","","html-keyboard-response","167","2.0.0","214068","pq1rxk7w7jo","ono","alpaca","23","male","no","no","0.5","3-4","null","<div style=""font-size:60px;"">+</div>","null","","","","","","",""
"","","","","","audio-keyboard-response","168","2.0.0","214674","pq1rxk7w7jo","ono","alpaca","23","male","no","no","0.5","3-4","null","stimuli/sounds/drop_sound_B.wav","null","","","","","","",""
"","","","","","html-keyboard-response","169","2.0.0","215675","pq1rxk7w7jo","ono","alpaca","23","male","no","no","0.5","3-4","null","","null","","","","","","",""
"","","","","","image-keyboard-response","170","2.0.0","216779","pq1rxk7w7jo","ono","alpaca","23","male","no","no","0.5","3-4","1102","stimuli/pictures/drop_single_1.jpg","1","1","","true","no","sound","stimuli/sounds/drop_sound_B.wav",""
"","","","","","audio-keyboard-response","171","2.0.0","217782","pq1rxk7w7jo","ono","alpaca","23","male","no","no","0.5","3-4","null","stimuli/sounds/bleep.wav","null","","","","","","",""
"","","","","","html-keyboard-response","172","2.0.0","218283","pq1rxk7w7jo","ono","alpaca","23","male","no","no","0.5","3-4","400","<div style=""font-size:30px;"">Press space to start the trial</div>"," ","","","","","","",""
"","","","","","html-keyboard-response","173","2.0.0","218535","pq1rxk7w7jo","ono","alpaca","23","male","no","no","0.5","3-4","null","<div style=""font-size:60px;"">+</div>","null","","","","","","",""
"","","","","","audio-keyboard-response","174","2.0.0","219085","pq1rxk7w7jo","ono","alpaca","23","male","no","no","0.5","3-4","null","stimuli/sounds/drop_label_A.wav","null","","","","","","",""
"","","","","","html-keyboard-response","175","2.0.0","220087","pq1rxk7w7jo","ono","alpaca","23","male","no","no","0.5","3-4","null","","null","","","","","","",""
"","","","","","image-keyboard-response","176","2.0.0","220817","pq1rxk7w7jo","ono","alpaca","23","male","no","no","0.5","3-4","729","stimuli/pictures/hiccup_wom_1.jpg","0","0","","true","no","sound","stimuli/sounds/drop_label_A.wav",""
"","","","","","audio-keyboard-response","177","2.0.0","221820","pq1rxk7w7jo","ono","alpaca","23","male","no","no","0.5","3-4","null","stimuli/sounds/bleep.wav","null","","","","","","",""
"","","","","","html-keyboard-response","178","2.0.0","222383","pq1rxk7w7jo","ono","alpaca","23","male","no","no","0.5","3-4","461","<div style=""font-size:30px;"">Press space to start the trial</div>"," ","","","","","","",""
"","","","","","html-keyboard-response","179","2.0.0","222635","pq1rxk7w7jo","ono","alpaca","23","male","no","no","0.5","3-4","null","<div style=""font-size:60px;"">+</div>","null","","","","","","",""
"","","","","","audio-keyboard-response","180","2.0.0","223234","pq1rxk7w7jo","ono","alpaca","23","male","no","no","0.5","3-4","null","stimuli/sounds/motor_label_A.wav","null","","","","","","",""
"","","","","","html-keyboard-response","181","2.0.0","224236","pq1rxk7w7jo","ono","alpaca","23","male","no","no","0.5","3-4","null","","null","","","","","","",""
"","","","","","image-keyboard-response","182","2.0.0","225184","pq1rxk7w7jo","ono","alpaca","23","male","no","no","0.5","3-4","946","stimuli/pictures/dog_rott_1.jpg","0","0","","true","no","sound","stimuli/sounds/motor_label_A.wav",""
"","","","","","audio-keyboard-response","183","2.0.0","226186","pq1rxk7w7jo","ono","alpaca","23","male","no","no","0.5","3-4","null","stimuli/sounds/bleep.wav","null","","","","","","",""
"","","","","","html-keyboard-response","184","2.0.0","226850","pq1rxk7w7jo","ono","alpaca","23","male","no","no","0.5","3-4","563","<div style=""font-size:30px;"">Press space to start the trial</div>"," ","","","","","","",""
"","","","","","html-keyboard-response","185","2.0.0","227102","pq1rxk7w7jo","ono","alpaca","23","male","no","no","0.5","3-4","null","<div style=""font-size:60px;"">+</div>","null","","","","","","",""
"","","","","","audio-keyboard-response","186","2.0.0","227709","pq1rxk7w7jo","ono","alpaca","23","male","no","no","0.5","3-4","null","stimuli/sounds/cough_label_B.wav","null","","","","","","",""
"","","","","","html-keyboard-response","187","2.0.0","228711","pq1rxk7w7jo","ono","alpaca","23","male","no","no","0.5","3-4","null","","null","","","","","","",""
"","","","","","image-keyboard-response","188","2.0.0","231892","pq1rxk7w7jo","ono","alpaca","23","male","no","no","0.5","3-4","3179","stimuli/pictures/cough_man_1.jpg","0","1","","false","yes","sound","stimuli/sounds/cough_label_B.wav",""
"","","","","","audio-keyboard-response","189","2.0.0","232893","pq1rxk7w7jo","ono","alpaca","23","male","no","no","0.5","3-4","null","stimuli/sounds/buzz.wav","null","","","","","","",""
"","","","","","html-keyboard-response","190","2.0.0","233900","pq1rxk7w7jo","ono","alpaca","23","male","no","no","0.5","3-4","905","<div style=""font-size:30px;"">Press space to start the trial</div>"," ","","","","","","",""
"","","","","","html-keyboard-response","191","2.0.0","234151","pq1rxk7w7jo","ono","alpaca","23","male","no","no","0.5","3-4","null","<div style=""font-size:60px;"">+</div>","null","","","","","","",""
"","","","","","audio-keyboard-response","192","2.0.0","234759","pq1rxk7w7jo","ono","alpaca","23","male","no","no","0.5","3-4","null","stimuli/sounds/drop_sound_B.wav","null","","","","","","",""
"","","","","","html-keyboard-response","193","2.0.0","235761","pq1rxk7w7jo","ono","alpaca","23","male","no","no","0.5","3-4","null","","null","","","","","","",""
"","","","","","image-keyboard-response","194","2.0.0","236456","pq1rxk7w7jo","ono","alpaca","23","male","no","no","0.5","3-4","693","stimuli/pictures/drop_multi_2.jpg","1","1","","true","yes","sound","stimuli/sounds/drop_sound_B.wav",""
"","","","","","audio-keyboard-response","195","2.0.0","237457","pq1rxk7w7jo","ono","alpaca","23","male","no","no","0.5","3-4","null","stimuli/sounds/bleep.wav","null","","","","","","",""
"","","","","","html-keyboard-response","196","2.0.0","237877","pq1rxk7w7jo","ono","alpaca","23","male","no","no","0.5","3-4","318","<div style=""font-size:30px;"">Press space to start the trial</div>"," ","","","","","","",""
"","","","","","html-keyboard-response","197","2.0.0","238128","pq1rxk7w7jo","ono","alpaca","23","male","no","no","0.5","3-4","null","<div style=""font-size:60px;"">+</div>","null","","","","","","",""
"","","","","","audio-keyboard-response","198","2.0.0","238738","pq1rxk7w7jo","ono","alpaca","23","male","no","no","0.5","3-4","null","stimuli/sounds/drop_label_B.wav","null","","","","","","",""
"","","","","","html-keyboard-response","199","2.0.0","239739","pq1rxk7w7jo","ono","alpaca","23","male","no","no","0.5","3-4","null","","null","","","","","","",""
"","","","","","image-keyboard-response","200","2.0.0","240509","pq1rxk7w7jo","ono","alpaca","23","male","no","no","0.5","3-4","768","stimuli/pictures/motor_harley_1.jpg","0","0","","true","no","sound","stimuli/sounds/drop_label_B.wav",""
"","","","","","audio-keyboard-response","201","2.0.0","241512","pq1rxk7w7jo","ono","alpaca","23","male","no","no","0.5","3-4","null","stimuli/sounds/bleep.wav","null","","","","","","",""
"","","","","","html-keyboard-response","202","2.0.0","242226","pq1rxk7w7jo","ono","alpaca","23","male","no","no","0.5","3-4","613","<div style=""font-size:30px;"">Press space to start the trial</div>"," ","","","","","","",""
"","","","","","html-keyboard-response","203","2.0.0","242478","pq1rxk7w7jo","ono","alpaca","23","male","no","no","0.5","3-4","null","<div style=""font-size:60px;"">+</div>","null","","","","","","",""
"","","","","","audio-keyboard-response","204","2.0.0","243085","pq1rxk7w7jo","ono","alpaca","23","male","no","no","0.5","3-4","null","stimuli/sounds/cough_label_B.wav","null","","","","","","",""
"","","","","","html-keyboard-response","205","2.0.0","244087","pq1rxk7w7jo","ono","alpaca","23","male","no","no","0.5","3-4","null","","null","","","","","","",""
"","","","","","image-keyboard-response","206","2.0.0","245083","pq1rxk7w7jo","ono","alpaca","23","male","no","no","0.5","3-4","994","stimuli/pictures/drop_single_1.jpg","0","0","","true","no","sound","stimuli/sounds/cough_label_B.wav",""
"","","","","","audio-keyboard-response","207","2.0.0","246025","pq1rxk7w7jo","ono","alpaca","23","male","no","no","0.5","3-4","944","stimuli/sounds/bleep.wav"," ","","","","","","",""
"","","","","","html-keyboard-response","208","2.0.0","246500","pq1rxk7w7jo","ono","alpaca","23","male","no","no","0.5","3-4","373","<div style=""font-size:30px;"">Press space to start the trial</div>"," ","","","","","","",""
"","","","","","html-keyboard-response","209","2.0.0","246751","pq1rxk7w7jo","ono","alpaca","23","male","no","no","0.5","3-4","null","<div style=""font-size:60px;"">+</div>","null","","","","","","",""
"","","","","","audio-keyboard-response","210","2.0.0","247352","pq1rxk7w7jo","ono","alpaca","23","male","no","no","0.5","3-4","null","stimuli/sounds/dog_sound_B.wav","null","","","","","","",""
"","","","","","html-keyboard-response","211","2.0.0","248353","pq1rxk7w7jo","ono","alpaca","23","male","no","no","0.5","3-4","null","","null","","","","","","",""
"","","","","","image-keyboard-response","212","2.0.0","249035","pq1rxk7w7jo","ono","alpaca","23","male","no","no","0.5","3-4","680","stimuli/pictures/motor_harley_1.jpg","0","0","","true","no","sound","stimuli/sounds/dog_sound_B.wav",""
"","","","","","audio-keyboard-response","213","2.0.0","250038","pq1rxk7w7jo","ono","alpaca","23","male","no","no","0.5","3-4","null","stimuli/sounds/bleep.wav","null","","","","","","",""
"","","","","","html-keyboard-response","214","2.0.0","250497","pq1rxk7w7jo","ono","alpaca","23","male","no","no","0.5","3-4","358","<div style=""font-size:30px;"">Press space to start the trial</div>"," ","","","","","","",""
"","","","","","html-keyboard-response","215","2.0.0","250749","pq1rxk7w7jo","ono","alpaca","23","male","no","no","0.5","3-4","null","<div style=""font-size:60px;"">+</div>","null","","","","","","",""
"","","","","","audio-keyboard-response","216","2.0.0","251352","pq1rxk7w7jo","ono","alpaca","23","male","no","no","0.5","3-4","null","stimuli/sounds/dog_sound_A.wav","null","","","","","","",""
"","","","","","html-keyboard-response","217","2.0.0","252353","pq1rxk7w7jo","ono","alpaca","23","male","no","no","0.5","3-4","null","","null","","","","","","",""
"","","","","","image-keyboard-response","218","2.0.0","253344","pq1rxk7w7jo","ono","alpaca","23","male","no","no","0.5","3-4","989","stimuli/pictures/hiccup_man_1.jpg","0","0","","true","no","sound","stimuli/sounds/dog_sound_A.wav",""
"","","","","","audio-keyboard-response","219","2.0.0","253828","pq1rxk7w7jo","ono","alpaca","23","male","no","no","0.5","3-4","485","stimuli/sounds/bleep.wav"," ","","","","","","",""
"","","","","","html-keyboard-response","220","2.0.0","254399","pq1rxk7w7jo","ono","alpaca","23","male","no","no","0.5","3-4","470","<div style=""font-size:30px;"">Press space to start the trial</div>"," ","","","","","","",""
"","","","","","html-keyboard-response","221","2.0.0","254651","pq1rxk7w7jo","ono","alpaca","23","male","no","no","0.5","3-4","null","<div style=""font-size:60px;"">+</div>","null","","","","","","",""
"","","","","","audio-keyboard-response","222","2.0.0","255250","pq1rxk7w7jo","ono","alpaca","23","male","no","no","0.5","3-4","null","stimuli/sounds/motor_sound_A.wav","null","","","","","","",""
"","","","","","html-keyboard-response","223","2.0.0","256252","pq1rxk7w7jo","ono","alpaca","23","male","no","no","0.5","3-4","null","","null","","","","","","",""
"","","","","","image-keyboard-response","224","2.0.0","257439","pq1rxk7w7jo","ono","alpaca","23","male","no","no","0.5","3-4","1185","stimuli/pictures/motor_dirt_2.jpg","1","1","","true","yes","sound","stimuli/sounds/motor_sound_A.wav",""
"","","","","","audio-keyboard-response","225","2.0.0","258442","pq1rxk7w7jo","ono","alpaca","23","male","no","no","0.5","3-4","null","stimuli/sounds/bleep.wav","null","","","","","","",""
"","","","","","html-keyboard-response","226","2.0.0","258860","pq1rxk7w7jo","ono","alpaca","23","male","no","no","0.5","3-4","317","<div style=""font-size:30px;"">Press space to start the trial</div>"," ","","","","","","",""
"","","","","","html-keyboard-response","227","2.0.0","259111","pq1rxk7w7jo","ono","alpaca","23","male","no","no","0.5","3-4","null","<div style=""font-size:60px;"">+</div>","null","","","","","","",""
"","","","","","audio-keyboard-response","228","2.0.0","259719","pq1rxk7w7jo","ono","alpaca","23","male","no","no","0.5","3-4","null","stimuli/sounds/hiccup_sound_A.wav","null","","","","","","",""
"","","","","","html-keyboard-response","229","2.0.0","260720","pq1rxk7w7jo","ono","alpaca","23","male","no","no","0.5","3-4","null","","null","","","","","","",""
"","","","","","image-keyboard-response","230","2.0.0","261646","pq1rxk7w7jo","ono","alpaca","23","male","no","no","0.5","3-4","923","stimuli/pictures/motor_harley_2.jpg","0","0","","true","no","sound","stimuli/sounds/hiccup_sound_A.wav",""
"","","","","","audio-keyboard-response","231","2.0.0","262648","pq1rxk7w7jo","ono","alpaca","23","male","no","no","0.5","3-4","null","stimuli/sounds/bleep.wav","null","","","","","","",""
"","","","","","html-keyboard-response","232","2.0.0","263381","pq1rxk7w7jo","ono","alpaca","23","male","no","no","0.5","3-4","632","<div style=""font-size:30px;"">Press space to start the trial</div>"," ","","","","","","",""
"","","","","","html-keyboard-response","233","2.0.0","263633","pq1rxk7w7jo","ono","alpaca","23","male","no","no","0.5","3-4","null","<div style=""font-size:60px;"">+</div>","null","","","","","","",""
"","","","","","audio-keyboard-response","234","2.0.0","264237","pq1rxk7w7jo","ono","alpaca","23","male","no","no","0.5","3-4","null","stimuli/sounds/motor_label_A.wav","null","","","","","","",""
"","","","","","html-keyboard-response","235","2.0.0","265239","pq1rxk7w7jo","ono","alpaca","23","male","no","no","0.5","3-4","null","","null","","","","","","",""
"","","","","","image-keyboard-response","236","2.0.0","265867","pq1rxk7w7jo","ono","alpaca","23","male","no","no","0.5","3-4","627","stimuli/pictures/dog_york_2.jpg","0","0","","true","no","sound","stimuli/sounds/motor_label_A.wav",""
"","","","","","audio-keyboard-response","237","2.0.0","266870","pq1rxk7w7jo","ono","alpaca","23","male","no","no","0.5","3-4","null","stimuli/sounds/bleep.wav","null","","","","","","",""
"","","","","","html-keyboard-response","238","2.0.0","267397","pq1rxk7w7jo","ono","alpaca","23","male","no","no","0.5","3-4","426","<div style=""font-size:30px;"">Press space to start the trial</div>"," ","","","","","","",""
"","","","","","html-keyboard-response","239","2.0.0","267649","pq1rxk7w7jo","ono","alpaca","23","male","no","no","0.5","3-4","null","<div style=""font-size:60px;"">+</div>","null","","","","","","",""
"","","","","","audio-keyboard-response","240","2.0.0","268200","pq1rxk7w7jo","ono","alpaca","23","male","no","no","0.5","3-4","null","stimuli/sounds/drop_label_A.wav","null","","","","","","",""
"","","","","","html-keyboard-response","241","2.0.0","269201","pq1rxk7w7jo","ono","alpaca","23","male","no","no","0.5","3-4","null","","null","","","","","","",""
"","","","","","image-keyboard-response","242","2.0.0","269555","pq1rxk7w7jo","ono","alpaca","23","male","no","no","0.5","3-4","351","stimuli/pictures/drop_multi_1.jpg","0","1","","false","yes","sound","stimuli/sounds/drop_label_A.wav",""
"","","","","","audio-keyboard-response","243","2.0.0","270557","pq1rxk7w7jo","ono","alpaca","23","male","no","no","0.5","3-4","null","stimuli/sounds/buzz.wav","null","","","","","","",""
"","","","","","html-keyboard-response","244","2.0.0","271232","pq1rxk7w7jo","ono","alpaca","23","male","no","no","0.5","3-4","573","<div style=""font-size:30px;"">Press space to start the trial</div>"," ","","","","","","",""
"","","","","","html-keyboard-response","245","2.0.0","271483","pq1rxk7w7jo","ono","alpaca","23","male","no","no","0.5","3-4","null","<div style=""font-size:60px;"">+</div>","null","","","","","","",""
"","","","","","audio-keyboard-response","246","2.0.0","272162","pq1rxk7w7jo","ono","alpaca","23","male","no","no","0.5","3-4","null","stimuli/sounds/cough_sound_B.wav","null","","","","","","",""
"","","","","","html-keyboard-response","247","2.0.0","273164","pq1rxk7w7jo","ono","alpaca","23","male","no","no","0.5","3-4","null","","null","","","","","","",""
"","","","","","image-keyboard-response","248","2.0.0","274423","pq1rxk7w7jo","ono","alpaca","23","male","no","no","0.5","3-4","1257","stimuli/pictures/cough_wom_1.jpg","1","1","","true","no","sound","stimuli/sounds/cough_sound_B.wav",""
"","","","","","audio-keyboard-response","249","2.0.0","275424","pq1rxk7w7jo","ono","alpaca","23","male","no","no","0.5","3-4","null","stimuli/sounds/bleep.wav","null","","","","","","",""
"","","","","","html-keyboard-response","250","2.0.0","275847","pq1rxk7w7jo","ono","alpaca","23","male","no","no","0.5","3-4","321","<div style=""font-size:30px;"">Press space to start the trial</div>"," ","","","","","","",""
"","","","","","html-keyboard-response","251","2.0.0","276098","pq1rxk7w7jo","ono","alpaca","23","male","no","no","0.5","3-4","null","<div style=""font-size:60px;"">+</div>","null","","","","","","",""
"","","","","","audio-keyboard-response","252","2.0.0","276706","pq1rxk7w7jo","ono","alpaca","23","male","no","no","0.5","3-4","null","stimuli/sounds/drop_sound_B.wav","null","","","","","","",""
"","","","","","html-keyboard-response","253","2.0.0","277708","pq1rxk7w7jo","ono","alpaca","23","male","no","no","0.5","3-4","null","","null","","","","","","",""
"","","","","","image-keyboard-response","254","2.0.0","278387","pq1rxk7w7jo","ono","alpaca","23","male","no","no","0.5","3-4","677","stimuli/pictures/dog_york_2.jpg","0","0","","true","no","sound","stimuli/sounds/drop_sound_B.wav",""
"","","","","","audio-keyboard-response","255","2.0.0","279389","pq1rxk7w7jo","ono","alpaca","23","male","no","no","0.5","3-4","null","stimuli/sounds/bleep.wav","null","","","","","","",""
"","","","","","html-keyboard-response","256","2.0.0","280013","pq1rxk7w7jo","ono","alpaca","23","male","no","no","0.5","3-4","522","<div style=""font-size:30px;"">Press space to start the trial</div>"," ","","","","","","",""
"","","","","","html-keyboard-response","257","2.0.0","280265","pq1rxk7w7jo","ono","alpaca","23","male","no","no","0.5","3-4","null","<div style=""font-size:60px;"">+</div>","null","","","","","","",""
"","","","","","audio-keyboard-response","258","2.0.0","280872","pq1rxk7w7jo","ono","alpaca","23","male","no","no","0.5","3-4","null","stimuli/sounds/hiccup_sound_A.wav","null","","","","","","",""
"","","","","","html-keyboard-response","259","2.0.0","281873","pq1rxk7w7jo","ono","alpaca","23","male","no","no","0.5","3-4","null","","null","","","","","","",""
"","","","","","image-keyboard-response","260","2.0.0","288447","pq1rxk7w7jo","ono","alpaca","23","male","no","no","0.5","3-4","6572","stimuli/pictures/hiccup_man_1.jpg","1","1","","true","no","sound","stimuli/sounds/hiccup_sound_A.wav",""
"","","","","","audio-keyboard-response","261","2.0.0","289449","pq1rxk7w7jo","ono","alpaca","23","male","no","no","0.5","3-4","null","stimuli/sounds/bleep.wav","null","","","","","","",""
"","","","","","html-keyboard-response","262","2.0.0","293426","pq1rxk7w7jo","ono","alpaca","23","male","no","no","0.5","3-4","3876","<div style=""font-size:30px;"">Press space to start the trial</div>"," ","","","","","","",""
"","","","","","html-keyboard-response","263","2.0.0","293678","pq1rxk7w7jo","ono","alpaca","23","male","no","no","0.5","3-4","null","<div style=""font-size:60px;"">+</div>","null","","","","","","",""
"","","","","","audio-keyboard-response","264","2.0.0","294280","pq1rxk7w7jo","ono","alpaca","23","male","no","no","0.5","3-4","null","stimuli/sounds/motor_label_A.wav","null","","","","","","",""
"","","","","","html-keyboard-response","265","2.0.0","295281","pq1rxk7w7jo","ono","alpaca","23","male","no","no","0.5","3-4","null","","null","","","","","","",""
"","","","","","image-keyboard-response","266","2.0.0","295951","pq1rxk7w7jo","ono","alpaca","23","male","no","no","0.5","3-4","668","stimuli/pictures/dog_rott_1.jpg","0","0","","true","no","sound","stimuli/sounds/motor_label_A.wav",""
"","","","","","audio-keyboard-response","267","2.0.0","296954","pq1rxk7w7jo","ono","alpaca","23","male","no","no","0.5","3-4","null","stimuli/sounds/bleep.wav","null","","","","","","",""
"","","","","","html-keyboard-response","268","2.0.0","299007","pq1rxk7w7jo","ono","alpaca","23","male","no","no","0.5","3-4","1951","<p>You have completed a block. Press R when you are ready to continue</p>","r","","","","","","",""
"","","","","","html-keyboard-response","269","2.0.0","299932","pq1rxk7w7jo","ono","alpaca","23","male","no","no","0.5","3-4","924","<div style=""font-size:30px;"">Press space to start the trial</div>"," ","","","","","","",""
"","","","","","html-keyboard-response","270","2.0.0","300183","pq1rxk7w7jo","ono","alpaca","23","male","no","no","0.5","3-4","null","<div style=""font-size:60px;"">+</div>","null","","","","","","",""
"","","","","","audio-keyboard-response","271","2.0.0","300722","pq1rxk7w7jo","ono","alpaca","23","male","no","no","0.5","3-4","null","stimuli/sounds/hiccup_label_A.wav","null","","","","","","",""
"","","","","","html-keyboard-response","272","2.0.0","301723","pq1rxk7w7jo","ono","alpaca","23","male","no","no","0.5","3-4","null","","null","","","","","","",""
"","","","","","image-keyboard-response","273","2.0.0","302785","pq1rxk7w7jo","ono","alpaca","23","male","no","no","0.5","3-4","1061","stimuli/pictures/cough_wom_1.jpg","0","0","","true","no","sound","stimuli/sounds/hiccup_label_A.wav",""
"","","","","","audio-keyboard-response","274","2.0.0","303787","pq1rxk7w7jo","ono","alpaca","23","male","no","no","0.5","3-4","null","stimuli/sounds/bleep.wav","null","","","","","","",""
"","","","","","html-keyboard-response","275","2.0.0","304516","pq1rxk7w7jo","ono","alpaca","23","male","no","no","0.5","3-4","627","<div style=""font-size:30px;"">Press space to start the trial</div>"," ","","","","","","",""
"","","","","","html-keyboard-response","276","2.0.0","304768","pq1rxk7w7jo","ono","alpaca","23","male","no","no","0.5","3-4","null","<div style=""font-size:60px;"">+</div>","null","","","","","","",""
"","","","","","audio-keyboard-response","277","2.0.0","305314","pq1rxk7w7jo","ono","alpaca","23","male","no","no","0.5","3-4","null","stimuli/sounds/drop_label_A.wav","null","","","","","","",""
"","","","","","html-keyboard-response","278","2.0.0","306316","pq1rxk7w7jo","ono","alpaca","23","male","no","no","0.5","3-4","null","","null","","","","","","",""
"","","","","","image-keyboard-response","279","2.0.0","307000","pq1rxk7w7jo","ono","alpaca","23","male","no","no","0.5","3-4","682","stimuli/pictures/hiccup_wom_2.jpg","0","0","","true","no","sound","stimuli/sounds/drop_label_A.wav",""
"","","","","","audio-keyboard-response","280","2.0.0","308002","pq1rxk7w7jo","ono","alpaca","23","male","no","no","0.5","3-4","null","stimuli/sounds/bleep.wav","null","","","","","","",""
"","","","","","html-keyboard-response","281","2.0.0","308549","pq1rxk7w7jo","ono","alpaca","23","male","no","no","0.5","3-4","445","<div style=""font-size:30px;"">Press space to start the trial</div>"," ","","","","","","",""
"","","","","","html-keyboard-response","282","2.0.0","308801","pq1rxk7w7jo","ono","alpaca","23","male","no","no","0.5","3-4","null","<div style=""font-size:60px;"">+</div>","null","","","","","","",""
"","","","","","audio-keyboard-response","283","2.0.0","309416","pq1rxk7w7jo","ono","alpaca","23","male","no","no","0.5","3-4","null","stimuli/sounds/drop_label_B.wav","null","","","","","","",""
"","","","","","html-keyboard-response","284","2.0.0","310417","pq1rxk7w7jo","ono","alpaca","23","male","no","no","0.5","3-4","null","","null","","","","","","",""
"","","","","","image-keyboard-response","285","2.0.0","314598","pq1rxk7w7jo","ono","alpaca","23","male","no","no","0.5","3-4","4179","stimuli/pictures/drop_single_1.jpg","1","1","","true","yes","sound","stimuli/sounds/drop_label_B.wav",""
"","","","","","audio-keyboard-response","286","2.0.0","315600","pq1rxk7w7jo","ono","alpaca","23","male","no","no","0.5","3-4","null","stimuli/sounds/bleep.wav","null","","","","","","",""
"","","","","","html-keyboard-response","287","2.0.0","316156","pq1rxk7w7jo","ono","alpaca","23","male","no","no","0.5","3-4","454","<div style=""font-size:30px;"">Press space to start the trial</div>"," ","","","","","","",""
"","","","","","html-keyboard-response","288","2.0.0","316407","pq1rxk7w7jo","ono","alpaca","23","male","no","no","0.5","3-4","null","<div style=""font-size:60px;"">+</div>","null","","","","","","",""
"","","","","","audio-keyboard-response","289","2.0.0","317010","pq1rxk7w7jo","ono","alpaca","23","male","no","no","0.5","3-4","null","stimuli/sounds/motor_label_B.wav","null","","","","","","",""
"","","","","","html-keyboard-response","290","2.0.0","318012","pq1rxk7w7jo","ono","alpaca","23","male","no","no","0.5","3-4","null","","null","","","","","","",""
"","","","","","image-keyboard-response","291","2.0.0","318530","pq1rxk7w7jo","ono","alpaca","23","male","no","no","0.5","3-4","516","stimuli/pictures/motor_dirt_1.jpg","1","1","","true","yes","sound","stimuli/sounds/motor_label_B.wav",""
"","","","","","audio-keyboard-response","292","2.0.0","319396","pq1rxk7w7jo","ono","alpaca","23","male","no","no","0.5","3-4","864","stimuli/sounds/bleep.wav"," ","","","","","","",""
"","","","","","html-keyboard-response","293","2.0.0","319766","pq1rxk7w7jo","ono","alpaca","23","male","no","no","0.5","3-4","269","<div style=""font-size:30px;"">Press space to start the trial</div>"," ","","","","","","",""
"","","","","","html-keyboard-response","294","2.0.0","320017","pq1rxk7w7jo","ono","alpaca","23","male","no","no","0.5","3-4","null","<div style=""font-size:60px;"">+</div>","null","","","","","","",""
"","","","","","audio-keyboard-response","295","2.0.0","320621","pq1rxk7w7jo","ono","alpaca","23","male","no","no","0.5","3-4","null","stimuli/sounds/cough_label_B.wav","null","","","","","","",""
"","","","","","html-keyboard-response","296","2.0.0","321623","pq1rxk7w7jo","ono","alpaca","23","male","no","no","0.5","3-4","null","","null","","","","","","",""
"","","","","","image-keyboard-response","297","2.0.0","322872","pq1rxk7w7jo","ono","alpaca","23","male","no","no","0.5","3-4","1247","stimuli/pictures/cough_man_2.jpg","1","1","","true","yes","sound","stimuli/sounds/cough_label_B.wav",""
"","","","","","audio-keyboard-response","298","2.0.0","323874","pq1rxk7w7jo","ono","alpaca","23","male","no","no","0.5","3-4","null","stimuli/sounds/bleep.wav","null","","","","","","",""
"","","","","","html-keyboard-response","299","2.0.0","324312","pq1rxk7w7jo","ono","alpaca","23","male","no","no","0.5","3-4","336","<div style=""font-size:30px;"">Press space to start the trial</div>"," ","","","","","","",""
"","","","","","html-keyboard-response","300","2.0.0","324564","pq1rxk7w7jo","ono","alpaca","23","male","no","no","0.5","3-4","null","<div style=""font-size:60px;"">+</div>","null","","","","","","",""
"","","","","","audio-keyboard-response","301","2.0.0","325165","pq1rxk7w7jo","ono","alpaca","23","male","no","no","0.5","3-4","null","stimuli/sounds/dog_sound_B.wav","null","","","","","","",""
"","","","","","html-keyboard-response","302","2.0.0","326167","pq1rxk7w7jo","ono","alpaca","23","male","no","no","0.5","3-4","null","","null","","","","","","",""
"","","","","","image-keyboard-response","303","2.0.0","326648","pq1rxk7w7jo","ono","alpaca","23","male","no","no","0.5","3-4","479","stimuli/pictures/dog_york_2.jpg","1","1","","true","yes","sound","stimuli/sounds/dog_sound_B.wav",""
"","","","","","audio-keyboard-response","304","2.0.0","326893","pq1rxk7w7jo","ono","alpaca","23","male","no","no","0.5","3-4","245","stimuli/sounds/bleep.wav"," ","","","","","","",""
"","","","","","html-keyboard-response","305","2.0.0","327417","pq1rxk7w7jo","ono","alpaca","23","male","no","no","0.5","3-4","422","<div style=""font-size:30px;"">Press space to start the trial</div>"," ","","","","","","",""
"","","","","","html-keyboard-response","306","2.0.0","327668","pq1rxk7w7jo","ono","alpaca","23","male","no","no","0.5","3-4","null","<div style=""font-size:60px;"">+</div>","null","","","","","","",""
"","","","","","audio-keyboard-response","307","2.0.0","328333","pq1rxk7w7jo","ono","alpaca","23","male","no","no","0.5","3-4","null","stimuli/sounds/cough_sound_A.wav","null","","","","","","",""
"","","","","","html-keyboard-response","308","2.0.0","329335","pq1rxk7w7jo","ono","alpaca","23","male","no","no","0.5","3-4","null","","null","","","","","","",""
"","","","","","image-keyboard-response","309","2.0.0","330155","pq1rxk7w7jo","ono","alpaca","23","male","no","no","0.5","3-4","819","stimuli/pictures/dog_york_1.jpg","0","0","","true","no","sound","stimuli/sounds/cough_sound_A.wav",""
"","","","","","audio-keyboard-response","310","2.0.0","331158","pq1rxk7w7jo","ono","alpaca","23","male","no","no","0.5","3-4","null","stimuli/sounds/bleep.wav","null","","","","","","",""
"","","","","","html-keyboard-response","311","2.0.0","332267","pq1rxk7w7jo","ono","alpaca","23","male","no","no","0.5","3-4","1007","<div style=""font-size:30px;"">Press space to start the trial</div>"," ","","","","","","",""
"","","","","","html-keyboard-response","312","2.0.0","332519","pq1rxk7w7jo","ono","alpaca","23","male","no","no","0.5","3-4","null","<div style=""font-size:60px;"">+</div>","null","","","","","","",""
"","","","","","audio-keyboard-response","313","2.0.0","333122","pq1rxk7w7jo","ono","alpaca","23","male","no","no","0.5","3-4","null","stimuli/sounds/motor_sound_B.wav","null","","","","","","",""
"","","","","","html-keyboard-response","314","2.0.0","334124","pq1rxk7w7jo","ono","alpaca","23","male","no","no","0.5","3-4","null","","null","","","","","","",""
"","","","","","image-keyboard-response","315","2.0.0","334707","pq1rxk7w7jo","ono","alpaca","23","male","no","no","0.5","3-4","582","stimuli/pictures/cough_man_2.jpg","0","0","","true","no","sound","stimuli/sounds/motor_sound_B.wav",""
"","","","","","audio-keyboard-response","316","2.0.0","335709","pq1rxk7w7jo","ono","alpaca","23","male","no","no","0.5","3-4","null","stimuli/sounds/bleep.wav","null","","","","","","",""
"","","","","","html-keyboard-response","317","2.0.0","336124","pq1rxk7w7jo","ono","alpaca","23","male","no","no","0.5","3-4","313","<div style=""font-size:30px;"">Press space to start the trial</div>"," ","","","","","","",""
"","","","","","html-keyboard-response","318","2.0.0","336375","pq1rxk7w7jo","ono","alpaca","23","male","no","no","0.5","3-4","null","<div style=""font-size:60px;"">+</div>","null","","","","","","",""
"","","","","","audio-keyboard-response","319","2.0.0","336984","pq1rxk7w7jo","ono","alpaca","23","male","no","no","0.5","3-4","null","stimuli/sounds/hiccup_sound_A.wav","null","","","","","","",""
"","","","","","html-keyboard-response","320","2.0.0","337985","pq1rxk7w7jo","ono","alpaca","23","male","no","no","0.5","3-4","null","","null","","","","","","",""
"","","","","","image-keyboard-response","321","2.0.0","338828","pq1rxk7w7jo","ono","alpaca","23","male","no","no","0.5","3-4","842","stimuli/pictures/motor_dirt_2.jpg","0","0","","true","no","sound","stimuli/sounds/hiccup_sound_A.wav",""
"","","","","","audio-keyboard-response","322","2.0.0","339831","pq1rxk7w7jo","ono","alpaca","23","male","no","no","0.5","3-4","null","stimuli/sounds/bleep.wav","null","","","","","","",""
"","","","","","html-keyboard-response","323","2.0.0","340418","pq1rxk7w7jo","ono","alpaca","23","male","no","no","0.5","3-4","486","<div style=""font-size:30px;"">Press space to start the trial</div>"," ","","","","","","",""
"","","","","","html-keyboard-response","324","2.0.0","340670","pq1rxk7w7jo","ono","alpaca","23","male","no","no","0.5","3-4","null","<div style=""font-size:60px;"">+</div>","null","","","","","","",""
"","","","","","audio-keyboard-response","325","2.0.0","341207","pq1rxk7w7jo","ono","alpaca","23","male","no","no","0.5","3-4","null","stimuli/sounds/hiccup_label_A.wav","null","","","","","","",""
"","","","","","html-keyboard-response","326","2.0.0","342209","pq1rxk7w7jo","ono","alpaca","23","male","no","no","0.5","3-4","null","","null","","","","","","",""
"","","","","","image-keyboard-response","327","2.0.0","343687","pq1rxk7w7jo","ono","alpaca","23","male","no","no","0.5","3-4","1476","stimuli/pictures/hiccup_man_2.jpg","1","1","","true","yes","sound","stimuli/sounds/hiccup_label_A.wav",""
"","","","","","audio-keyboard-response","328","2.0.0","344688","pq1rxk7w7jo","ono","alpaca","23","male","no","no","0.5","3-4","null","stimuli/sounds/bleep.wav","null","","","","","","",""
"","","","","","html-keyboard-response","329","2.0.0","345212","pq1rxk7w7jo","ono","alpaca","23","male","no","no","0.5","3-4","422","<div style=""font-size:30px;"">Press space to start the trial</div>"," ","","","","","","",""
"","","","","","html-keyboard-response","330","2.0.0","345463","pq1rxk7w7jo","ono","alpaca","23","male","no","no","0.5","3-4","null","<div style=""font-size:60px;"">+</div>","null","","","","","","",""
"","","","","","audio-keyboard-response","331","2.0.0","346077","pq1rxk7w7jo","ono","alpaca","23","male","no","no","0.5","3-4","null","stimuli/sounds/drop_label_B.wav","null","","","","","","",""
"","","","","","html-keyboard-response","332","2.0.0","347079","pq1rxk7w7jo","ono","alpaca","23","male","no","no","0.5","3-4","null","","null","","","","","","",""
"","","","","","image-keyboard-response","333","2.0.0","347864","pq1rxk7w7jo","ono","alpaca","23","male","no","no","0.5","3-4","783","stimuli/pictures/drop_single_2.jpg","1","1","","true","yes","sound","stimuli/sounds/drop_label_B.wav",""
"","","","","","audio-keyboard-response","334","2.0.0","348866","pq1rxk7w7jo","ono","alpaca","23","male","no","no","0.5","3-4","null","stimuli/sounds/bleep.wav","null","","","","","","",""
"","","","","","html-keyboard-response","335","2.0.0","349378","pq1rxk7w7jo","ono","alpaca","23","male","no","no","0.5","3-4","410","<div style=""font-size:30px;"">Press space to start the trial</div>"," ","","","","","","",""
"","","","","","html-keyboard-response","336","2.0.0","349630","pq1rxk7w7jo","ono","alpaca","23","male","no","no","0.5","3-4","null","<div style=""font-size:60px;"">+</div>","null","","","","","","",""
"","","","","","audio-keyboard-response","337","2.0.0","350311","pq1rxk7w7jo","ono","alpaca","23","male","no","no","0.5","3-4","null","stimuli/sounds/cough_sound_B.wav","null","","","","","","",""
"","","","","","html-keyboard-response","338","2.0.0","351313","pq1rxk7w7jo","ono","alpaca","23","male","no","no","0.5","3-4","null","","null","","","","","","",""
"","","","","","image-keyboard-response","339","2.0.0","354549","pq1rxk7w7jo","ono","alpaca","23","male","no","no","0.5","3-4","3234","stimuli/pictures/cough_man_1.jpg","1","1","","true","yes","sound","stimuli/sounds/cough_sound_B.wav",""
"","","","","","audio-keyboard-response","340","2.0.0","355551","pq1rxk7w7jo","ono","alpaca","23","male","no","no","0.5","3-4","null","stimuli/sounds/bleep.wav","null","","","","","","",""
"","","","","","html-keyboard-response","341","2.0.0","356195","pq1rxk7w7jo","ono","alpaca","23","male","no","no","0.5","3-4","542","<div style=""font-size:30px;"">Press space to start the trial</div>"," ","","","","","","",""
"","","","","","html-keyboard-response","342","2.0.0","356447","pq1rxk7w7jo","ono","alpaca","23","male","no","no","0.5","3-4","null","<div style=""font-size:60px;"">+</div>","null","","","","","","",""
"","","","","","audio-keyboard-response","343","2.0.0","357032","pq1rxk7w7jo","ono","alpaca","23","male","no","no","0.5","3-4","null","stimuli/sounds/drop_sound_A.wav","null","","","","","","",""
"","","","","","html-keyboard-response","344","2.0.0","358033","pq1rxk7w7jo","ono","alpaca","23","male","no","no","0.5","3-4","null","","null","","","","","","",""
"","","","","","image-keyboard-response","345","2.0.0","358727","pq1rxk7w7jo","ono","alpaca","23","male","no","no","0.5","3-4","692","stimuli/pictures/drop_multi_1.jpg","1","1","","true","no","sound","stimuli/sounds/drop_sound_A.wav",""
"","","","","","audio-keyboard-response","346","2.0.0","359729","pq1rxk7w7jo","ono","alpaca","23","male","no","no","0.5","3-4","null","stimuli/sounds/bleep.wav","null","","","","","","",""
"","","","","","html-keyboard-response","347","2.0.0","360407","pq1rxk7w7jo","ono","alpaca","23","male","no","no","0.5","3-4","576","<div style=""font-size:30px;"">Press space to start the trial</div>"," ","","","","","","",""
"","","","","","html-keyboard-response","348","2.0.0","360658","pq1rxk7w7jo","ono","alpaca","23","male","no","no","0.5","3-4","null","<div style=""font-size:60px;"">+</div>","null","","","","","","",""
"","","","","","audio-keyboard-response","349","2.0.0","361261","pq1rxk7w7jo","ono","alpaca","23","male","no","no","0.5","3-4","null","stimuli/sounds/hiccup_sound_B.wav","null","","","","","","",""
"","","","","","html-keyboard-response","350","2.0.0","362263","pq1rxk7w7jo","ono","alpaca","23","male","no","no","0.5","3-4","null","","null","","","","","","",""
"","","","","","image-keyboard-response","351","2.0.0","363097","pq1rxk7w7jo","ono","alpaca","23","male","no","no","0.5","3-4","833","stimuli/pictures/drop_multi_1.jpg","0","0","","true","no","sound","stimuli/sounds/hiccup_sound_B.wav",""
"","","","","","audio-keyboard-response","352","2.0.0","364099","pq1rxk7w7jo","ono","alpaca","23","male","no","no","0.5","3-4","null","stimuli/sounds/bleep.wav","null","","","","","","",""
"","","","","","html-keyboard-response","353","2.0.0","364741","pq1rxk7w7jo","ono","alpaca","23","male","no","no","0.5","3-4","540","<div style=""font-size:30px;"">Press space to start the trial</div>"," ","","","","","","",""
"","","","","","html-keyboard-response","354","2.0.0","364992","pq1rxk7w7jo","ono","alpaca","23","male","no","no","0.5","3-4","null","<div style=""font-size:60px;"">+</div>","null","","","","","","",""
"","","","","","audio-keyboard-response","355","2.0.0","365656","pq1rxk7w7jo","ono","alpaca","23","male","no","no","0.5","3-4","null","stimuli/sounds/cough_sound_A.wav","null","","","","","","",""
"","","","","","html-keyboard-response","356","2.0.0","366657","pq1rxk7w7jo","ono","alpaca","23","male","no","no","0.5","3-4","null","","null","","","","","","",""
"","","","","","image-keyboard-response","357","2.0.0","367489","pq1rxk7w7jo","ono","alpaca","23","male","no","no","0.5","3-4","830","stimuli/pictures/dog_rott_1.jpg","0","0","","true","no","sound","stimuli/sounds/cough_sound_A.wav",""
"","","","","","audio-keyboard-response","358","2.0.0","368491","pq1rxk7w7jo","ono","alpaca","23","male","no","no","0.5","3-4","null","stimuli/sounds/bleep.wav","null","","","","","","",""
"","","","","","html-keyboard-response","359","2.0.0","369034","pq1rxk7w7jo","ono","alpaca","23","male","no","no","0.5","3-4","441","<div style=""font-size:30px;"">Press space to start the trial</div>"," ","","","","","","",""
"","","","","","html-keyboard-response","360","2.0.0","369286","pq1rxk7w7jo","ono","alpaca","23","male","no","no","0.5","3-4","null","<div style=""font-size:60px;"">+</div>","null","","","","","","",""
"","","","","","audio-keyboard-response","361","2.0.0","369885","pq1rxk7w7jo","ono","alpaca","23","male","no","no","0.5","3-4","null","stimuli/sounds/dog_label_A.wav","null","","","","","","",""
"","","","","","html-keyboard-response","362","2.0.0","370887","pq1rxk7w7jo","ono","alpaca","23","male","no","no","0.5","3-4","null","","null","","","","","","",""
"","","","","","image-keyboard-response","363","2.0.0","371395","pq1rxk7w7jo","ono","alpaca","23","male","no","no","0.5","3-4","507","stimuli/pictures/dog_york_1.jpg","1","1","","true","yes","sound","stimuli/sounds/dog_label_A.wav",""
"","","","","","audio-keyboard-response","364","2.0.0","372397","pq1rxk7w7jo","ono","alpaca","23","male","no","no","0.5","3-4","null","stimuli/sounds/bleep.wav","null","","","","","","",""
"","","","","","html-keyboard-response","365","2.0.0","372754","pq1rxk7w7jo","ono","alpaca","23","male","no","no","0.5","3-4","255","<div style=""font-size:30px;"">Press space to start the trial</div>"," ","","","","","","",""
"","","","","","html-keyboard-response","366","2.0.0","373006","pq1rxk7w7jo","ono","alpaca","23","male","no","no","0.5","3-4","null","<div style=""font-size:60px;"">+</div>","null","","","","","","",""
"","","","","","audio-keyboard-response","367","2.0.0","373613","pq1rxk7w7jo","ono","alpaca","23","male","no","no","0.5","3-4","null","stimuli/sounds/hiccup_label_B.wav","null","","","","","","",""
"","","","","","html-keyboard-response","368","2.0.0","374615","pq1rxk7w7jo","ono","alpaca","23","male","no","no","0.5","3-4","null","","null","","","","","","",""
"","","","","","image-keyboard-response","369","2.0.0","375357","pq1rxk7w7jo","ono","alpaca","23","male","no","no","0.5","3-4","741","stimuli/pictures/dog_york_2.jpg","0","0","","true","no","sound","stimuli/sounds/hiccup_label_B.wav",""
"","","","","","audio-keyboard-response","370","2.0.0","376359","pq1rxk7w7jo","ono","alpaca","23","male","no","no","0.5","3-4","null","stimuli/sounds/bleep.wav","null","","","","","","",""
"","","","","","html-keyboard-response","371","2.0.0","377018","pq1rxk7w7jo","ono","alpaca","23","male","no","no","0.5","3-4","558","<div style=""font-size:30px;"">Press space to start the trial</div>"," ","","","","","","",""
"","","","","","html-keyboard-response","372","2.0.0","377271","pq1rxk7w7jo","ono","alpaca","23","male","no","no","0.5","3-4","null","<div style=""font-size:60px;"">+</div>","null","","","","","","",""
"","","","","","audio-keyboard-response","373","2.0.0","377874","pq1rxk7w7jo","ono","alpaca","23","male","no","no","0.5","3-4","null","stimuli/sounds/dog_label_A.wav","null","","","","","","",""
"","","","","","html-keyboard-response","374","2.0.0","378876","pq1rxk7w7jo","ono","alpaca","23","male","no","no","0.5","3-4","null","","null","","","","","","",""
"","","","","","image-keyboard-response","375","2.0.0","379418","pq1rxk7w7jo","ono","alpaca","23","male","no","no","0.5","3-4","540","stimuli/pictures/dog_rott_1.jpg","0","1","","false","yes","sound","stimuli/sounds/dog_label_A.wav",""
"","","","","","audio-keyboard-response","376","2.0.0","380419","pq1rxk7w7jo","ono","alpaca","23","male","no","no","0.5","3-4","null","stimuli/sounds/buzz.wav","null","","","","","","",""
"","","","","","html-keyboard-response","377","2.0.0","381918","pq1rxk7w7jo","ono","alpaca","23","male","no","no","0.5","3-4","1397","<div style=""font-size:30px;"">Press space to start the trial</div>"," ","","","","","","",""
"","","","","","html-keyboard-response","378","2.0.0","382171","pq1rxk7w7jo","ono","alpaca","23","male","no","no","0.5","3-4","null","<div style=""font-size:60px;"">+</div>","null","","","","","","",""
"","","","","","audio-keyboard-response","379","2.0.0","382776","pq1rxk7w7jo","ono","alpaca","23","male","no","no","0.5","3-4","null","stimuli/sounds/hiccup_label_B.wav","null","","","","","","",""
"","","","","","html-keyboard-response","380","2.0.0","383777","pq1rxk7w7jo","ono","alpaca","23","male","no","no","0.5","3-4","null","","null","","","","","","",""
"","","","","","image-keyboard-response","381","2.0.0","387318","pq1rxk7w7jo","ono","alpaca","23","male","no","no","0.5","3-4","3539","stimuli/pictures/hiccup_wom_1.jpg","1","1","","true","yes","sound","stimuli/sounds/hiccup_label_B.wav",""
"","","","","","audio-keyboard-response","382","2.0.0","388320","pq1rxk7w7jo","ono","alpaca","23","male","no","no","0.5","3-4","null","stimuli/sounds/bleep.wav","null","","","","","","",""
"","","","","","html-keyboard-response","383","2.0.0","389863","pq1rxk7w7jo","ono","alpaca","23","male","no","no","0.5","3-4","1440","<div style=""font-size:30px;"">Press space to start the trial</div>"," ","","","","","","",""
"","","","","","html-keyboard-response","384","2.0.0","390114","pq1rxk7w7jo","ono","alpaca","23","male","no","no","0.5","3-4","null","<div style=""font-size:60px;"">+</div>","null","","","","","","",""
"","","","","","audio-keyboard-response","385","2.0.0","390717","pq1rxk7w7jo","ono","alpaca","23","male","no","no","0.5","3-4","null","stimuli/sounds/dog_label_B.wav","null","","","","","","",""
"","","","","","html-keyboard-response","386","2.0.0","391719","pq1rxk7w7jo","ono","alpaca","23","male","no","no","0.5","3-4","null","","null","","","","","","",""
"","","","","","image-keyboard-response","387","2.0.0","392440","pq1rxk7w7jo","ono","alpaca","23","male","no","no","0.5","3-4","719","stimuli/pictures/cough_wom_2.jpg","0","0","","true","no","sound","stimuli/sounds/dog_label_B.wav",""
"","","","","","audio-keyboard-response","388","2.0.0","393442","pq1rxk7w7jo","ono","alpaca","23","male","no","no","0.5","3-4","null","stimuli/sounds/bleep.wav","null","","","","","","",""
"","","","","","html-keyboard-response","389","2.0.0","394901","pq1rxk7w7jo","ono","alpaca","23","male","no","no","0.5","3-4","1357","<p>You have completed a block. Press R when you are ready to continue</p>","r","","","","","","",""
"","","","","","html-keyboard-response","390","2.0.0","396291","pq1rxk7w7jo","ono","alpaca","23","male","no","no","0.5","3-4","1389","<div style=""font-size:30px;"">Press space to start the trial</div>"," ","","","","","","",""
"","","","","","html-keyboard-response","391","2.0.0","396543","pq1rxk7w7jo","ono","alpaca","23","male","no","no","0.5","3-4","null","<div style=""font-size:60px;"">+</div>","null","","","","","","",""
"","","","","","audio-keyboard-response","392","2.0.0","397144","pq1rxk7w7jo","ono","alpaca","23","male","no","no","0.5","3-4","null","stimuli/sounds/motor_sound_B.wav","null","","","","","","",""
"","","","","","html-keyboard-response","393","2.0.0","398145","pq1rxk7w7jo","ono","alpaca","23","male","no","no","0.5","3-4","null","","null","","","","","","",""
"","","","","","image-keyboard-response","394","2.0.0","398750","pq1rxk7w7jo","ono","alpaca","23","male","no","no","0.5","3-4","603","stimuli/pictures/cough_wom_2.jpg","0","0","","true","no","sound","stimuli/sounds/motor_sound_B.wav",""
"","","","","","audio-keyboard-response","395","2.0.0","399752","pq1rxk7w7jo","ono","alpaca","23","male","no","no","0.5","3-4","null","stimuli/sounds/bleep.wav","null","","","","","","",""
"","","","","","html-keyboard-response","396","2.0.0","400631","pq1rxk7w7jo","ono","alpaca","23","male","no","no","0.5","3-4","778","<div style=""font-size:30px;"">Press space to start the trial</div>"," ","","","","","","",""
"","","","","","html-keyboard-response","397","2.0.0","400883","pq1rxk7w7jo","ono","alpaca","23","male","no","no","0.5","3-4","null","<div style=""font-size:60px;"">+</div>","null","","","","","","",""
"","","","","","audio-keyboard-response","398","2.0.0","401469","pq1rxk7w7jo","ono","alpaca","23","male","no","no","0.5","3-4","null","stimuli/sounds/drop_sound_A.wav","null","","","","","","",""
"","","","","","html-keyboard-response","399","2.0.0","402471","pq1rxk7w7jo","ono","alpaca","23","male","no","no","0.5","3-4","null","","null","","","","","","",""
"","","","","","image-keyboard-response","400","2.0.0","403502","pq1rxk7w7jo","ono","alpaca","23","male","no","no","0.5","3-4","1030","stimuli/pictures/cough_man_1.jpg","0","0","","true","no","sound","stimuli/sounds/drop_sound_A.wav",""
"","","","","","audio-keyboard-response","401","2.0.0","404505","pq1rxk7w7jo","ono","alpaca","23","male","no","no","0.5","3-4","null","stimuli/sounds/bleep.wav","null","","","","","","",""
"","","","","","html-keyboard-response","402","2.0.0","405100","pq1rxk7w7jo","ono","alpaca","23","male","no","no","0.5","3-4","493","<div style=""font-size:30px;"">Press space to start the trial</div>"," ","","","","","","",""
"","","","","","html-keyboard-response","403","2.0.0","405351","pq1rxk7w7jo","ono","alpaca","23","male","no","no","0.5","3-4","null","<div style=""font-size:60px;"">+</div>","null","","","","","","",""
"","","","","","audio-keyboard-response","404","2.0.0","405890","pq1rxk7w7jo","ono","alpaca","23","male","no","no","0.5","3-4","null","stimuli/sounds/hiccup_label_A.wav","null","","","","","","",""
"","","","","","html-keyboard-response","405","2.0.0","406891","pq1rxk7w7jo","ono","alpaca","23","male","no","no","0.5","3-4","null","","null","","","","","","",""
"","","","","","image-keyboard-response","406","2.0.0","407970","pq1rxk7w7jo","ono","alpaca","23","male","no","no","0.5","3-4","1077","stimuli/pictures/hiccup_wom_2.jpg","1","1","","true","yes","sound","stimuli/sounds/hiccup_label_A.wav",""
"","","","","","audio-keyboard-response","407","2.0.0","408972","pq1rxk7w7jo","ono","alpaca","23","male","no","no","0.5","3-4","null","stimuli/sounds/bleep.wav","null","","","","","","",""
"","","","","","html-keyboard-response","408","2.0.0","409649","pq1rxk7w7jo","ono","alpaca","23","male","no","no","0.5","3-4","576","<div style=""font-size:30px;"">Press space to start the trial</div>"," ","","","","","","",""
"","","","","","html-keyboard-response","409","2.0.0","409901","pq1rxk7w7jo","ono","alpaca","23","male","no","no","0.5","3-4","null","<div style=""font-size:60px;"">+</div>","null","","","","","","",""
"","","","","","audio-keyboard-response","410","2.0.0","410509","pq1rxk7w7jo","ono","alpaca","23","male","no","no","0.5","3-4","null","stimuli/sounds/cough_label_B.wav","null","","","","","","",""
"","","","","","html-keyboard-response","411","2.0.0","411511","pq1rxk7w7jo","ono","alpaca","23","male","no","no","0.5","3-4","null","","null","","","","","","",""
"","","","","","image-keyboard-response","412","2.0.0","412336","pq1rxk7w7jo","ono","alpaca","23","male","no","no","0.5","3-4","823","stimuli/pictures/cough_wom_1.jpg","0","1","","false","yes","sound","stimuli/sounds/cough_label_B.wav",""
"","","","","","audio-keyboard-response","413","2.0.0","413338","pq1rxk7w7jo","ono","alpaca","23","male","no","no","0.5","3-4","null","stimuli/sounds/buzz.wav","null","","","","","","",""
"","","","","","html-keyboard-response","414","2.0.0","414132","pq1rxk7w7jo","ono","alpaca","23","male","no","no","0.5","3-4","692","<div style=""font-size:30px;"">Press space to start the trial</div>"," ","","","","","","",""
"","","","","","html-keyboard-response","415","2.0.0","414384","pq1rxk7w7jo","ono","alpaca","23","male","no","no","0.5","3-4","null","<div style=""font-size:60px;"">+</div>","null","","","","","","",""
"","","","","","audio-keyboard-response","416","2.0.0","414984","pq1rxk7w7jo","ono","alpaca","23","male","no","no","0.5","3-4","null","stimuli/sounds/motor_sound_B.wav","null","","","","","","",""
"","","","","","html-keyboard-response","417","2.0.0","415985","pq1rxk7w7jo","ono","alpaca","23","male","no","no","0.5","3-4","null","","null","","","","","","",""
"","","","","","image-keyboard-response","418","2.0.0","416682","pq1rxk7w7jo","ono","alpaca","23","male","no","no","0.5","3-4","695","stimuli/pictures/cough_man_1.jpg","0","0","","true","no","sound","stimuli/sounds/motor_sound_B.wav",""
"","","","","","audio-keyboard-response","419","2.0.0","417684","pq1rxk7w7jo","ono","alpaca","23","male","no","no","0.5","3-4","null","stimuli/sounds/bleep.wav","null","","","","","","",""
"","","","","","html-keyboard-response","420","2.0.0","418381","pq1rxk7w7jo","ono","alpaca","23","male","no","no","0.5","3-4","595","<div style=""font-size:30px;"">Press space to start the trial</div>"," ","","","","","","",""
"","","","","","html-keyboard-response","421","2.0.0","418633","pq1rxk7w7jo","ono","alpaca","23","male","no","no","0.5","3-4","null","<div style=""font-size:60px;"">+</div>","null","","","","","","",""
"","","","","","audio-keyboard-response","422","2.0.0","419234","pq1rxk7w7jo","ono","alpaca","23","male","no","no","0.5","3-4","null","stimuli/sounds/motor_label_B.wav","null","","","","","","",""
"","","","","","html-keyboard-response","423","2.0.0","420236","pq1rxk7w7jo","ono","alpaca","23","male","no","no","0.5","3-4","null","","null","","","","","","",""
"","","","","","image-keyboard-response","424","2.0.0","422335","pq1rxk7w7jo","ono","alpaca","23","male","no","no","0.5","3-4","2097","stimuli/pictures/motor_dirt_2.jpg","1","1","","true","yes","sound","stimuli/sounds/motor_label_B.wav",""
"","","","","","audio-keyboard-response","425","2.0.0","423337","pq1rxk7w7jo","ono","alpaca","23","male","no","no","0.5","3-4","null","stimuli/sounds/bleep.wav","null","","","","","","",""
"","","","","","html-keyboard-response","426","2.0.0","424169","pq1rxk7w7jo","ono","alpaca","23","male","no","no","0.5","3-4","731","<div style=""font-size:30px;"">Press space to start the trial</div>"," ","","","","","","",""
"","","","","","html-keyboard-response","427","2.0.0","424420","pq1rxk7w7jo","ono","alpaca","23","male","no","no","0.5","3-4","null","<div style=""font-size:60px;"">+</div>","null","","","","","","",""
"","","","","","audio-keyboard-response","428","2.0.0","425021","pq1rxk7w7jo","ono","alpaca","23","male","no","no","0.5","3-4","null","stimuli/sounds/dog_label_A.wav","null","","","","","","",""
"","","","","","html-keyboard-response","429","2.0.0","426023","pq1rxk7w7jo","ono","alpaca","23","male","no","no","0.5","3-4","null","","null","","","","","","",""
"","","","","","image-keyboard-response","430","2.0.0","427345","pq1rxk7w7jo","ono","alpaca","23","male","no","no","0.5","3-4","1321","stimuli/pictures/dog_york_2.jpg","1","1","","true","yes","sound","stimuli/sounds/dog_label_A.wav",""
"","","","","","audio-keyboard-response","431","2.0.0","428348","pq1rxk7w7jo","ono","alpaca","23","male","no","no","0.5","3-4","null","stimuli/sounds/bleep.wav","null","","","","","","",""
"","","","","","html-keyboard-response","432","2.0.0","429007","pq1rxk7w7jo","ono","alpaca","23","male","no","no","0.5","3-4","557","<div style=""font-size:30px;"">Press space to start the trial</div>"," ","","","","","","",""
"","","","","","html-keyboard-response","433","2.0.0","429259","pq1rxk7w7jo","ono","alpaca","23","male","no","no","0.5","3-4","null","<div style=""font-size:60px;"">+</div>","null","","","","","","",""
"","","","","","audio-keyboard-response","434","2.0.0","429864","pq1rxk7w7jo","ono","alpaca","23","male","no","no","0.5","3-4","null","stimuli/sounds/cough_label_B.wav","null","","","","","","",""
"","","","","","html-keyboard-response","435","2.0.0","430865","pq1rxk7w7jo","ono","alpaca","23","male","no","no","0.5","3-4","null","","null","","","","","","",""
"","","","","","image-keyboard-response","436","2.0.0","431725","pq1rxk7w7jo","ono","alpaca","23","male","no","no","0.5","3-4","858","stimuli/pictures/cough_wom_2.jpg","0","1","","false","yes","sound","stimuli/sounds/cough_label_B.wav",""
"","","","","","audio-keyboard-response","437","2.0.0","432727","pq1rxk7w7jo","ono","alpaca","23","male","no","no","0.5","3-4","null","stimuli/sounds/buzz.wav","null","","","","","","",""
"","","","","","html-keyboard-response","438","2.0.0","434757","pq1rxk7w7jo","ono","alpaca","23","male","no","no","0.5","3-4","1928","<div style=""font-size:30px;"">Press space to start the trial</div>"," ","","","","","","",""
"","","","","","html-keyboard-response","439","2.0.0","435009","pq1rxk7w7jo","ono","alpaca","23","male","no","no","0.5","3-4","null","<div style=""font-size:60px;"">+</div>","null","","","","","","",""
"","","","","","audio-keyboard-response","440","2.0.0","435613","pq1rxk7w7jo","ono","alpaca","23","male","no","no","0.5","3-4","null","stimuli/sounds/hiccup_sound_B.wav","null","","","","","","",""
"","","","","","html-keyboard-response","441","2.0.0","436615","pq1rxk7w7jo","ono","alpaca","23","male","no","no","0.5","3-4","null","","null","","","","","","",""
"","","","","","image-keyboard-response","442","2.0.0","437197","pq1rxk7w7jo","ono","alpaca","23","male","no","no","0.5","3-4","581","stimuli/pictures/hiccup_wom_1.jpg","0","1","","false","no","sound","stimuli/sounds/hiccup_sound_B.wav",""
"","","","","","audio-keyboard-response","443","2.0.0","438200","pq1rxk7w7jo","ono","alpaca","23","male","no","no","0.5","3-4","null","stimuli/sounds/buzz.wav","null","","","","","","",""
"","","","","","html-keyboard-response","444","2.0.0","439591","pq1rxk7w7jo","ono","alpaca","23","male","no","no","0.5","3-4","1290","<div style=""font-size:30px;"">Press space to start the trial</div>"," ","","","","","","",""
"","","","","","html-keyboard-response","445","2.0.0","439842","pq1rxk7w7jo","ono","alpaca","23","male","no","no","0.5","3-4","null","<div style=""font-size:60px;"">+</div>","null","","","","","","",""
"","","","","","audio-keyboard-response","446","2.0.0","440456","pq1rxk7w7jo","ono","alpaca","23","male","no","no","0.5","3-4","null","stimuli/sounds/drop_label_B.wav","null","","","","","","",""
"","","","","","html-keyboard-response","447","2.0.0","441457","pq1rxk7w7jo","ono","alpaca","23","male","no","no","0.5","3-4","null","","null","","","","","","",""
"","","","","","image-keyboard-response","448","2.0.0","441999","pq1rxk7w7jo","ono","alpaca","23","male","no","no","0.5","3-4","540","stimuli/pictures/motor_dirt_2.jpg","0","0","","true","no","sound","stimuli/sounds/drop_label_B.wav",""
"","","","","","audio-keyboard-response","449","2.0.0","443002","pq1rxk7w7jo","ono","alpaca","23","male","no","no","0.5","3-4","null","stimuli/sounds/bleep.wav","null","","","","","","",""
"","","","","","html-keyboard-response","450","2.0.0","443348","pq1rxk7w7jo","ono","alpaca","23","male","no","no","0.5","3-4","244","<div style=""font-size:30px;"">Press space to start the trial</div>"," ","","","","","","",""
"","","","","","html-keyboard-response","451","2.0.0","443600","pq1rxk7w7jo","ono","alpaca","23","male","no","no","0.5","3-4","null","<div style=""font-size:60px;"">+</div>","null","","","","","","",""
"","","","","","audio-keyboard-response","452","2.0.0","444232","pq1rxk7w7jo","ono","alpaca","23","male","no","no","0.5","3-4","null","stimuli/sounds/cough_label_A.wav","null","","","","","","",""
"","","","","","html-keyboard-response","453","2.0.0","445233","pq1rxk7w7jo","ono","alpaca","23","male","no","no","0.5","3-4","null","","null","","","","","","",""
"","","","","","image-keyboard-response","454","2.0.0","446190","pq1rxk7w7jo","ono","alpaca","23","male","no","no","0.5","3-4","954","stimuli/pictures/motor_dirt_2.jpg","0","0","","true","no","sound","stimuli/sounds/cough_label_A.wav",""
"","","","","","audio-keyboard-response","455","2.0.0","447192","pq1rxk7w7jo","ono","alpaca","23","male","no","no","0.5","3-4","null","stimuli/sounds/bleep.wav","null","","","","","","",""
"","","","","","html-keyboard-response","456","2.0.0","447811","pq1rxk7w7jo","ono","alpaca","23","male","no","no","0.5","3-4","517","<div style=""font-size:30px;"">Press space to start the trial</div>"," ","","","","","","",""
"","","","","","html-keyboard-response","457","2.0.0","448062","pq1rxk7w7jo","ono","alpaca","23","male","no","no","0.5","3-4","null","<div style=""font-size:60px;"">+</div>","null","","","","","","",""
"","","","","","audio-keyboard-response","458","2.0.0","448599","pq1rxk7w7jo","ono","alpaca","23","male","no","no","0.5","3-4","null","stimuli/sounds/hiccup_label_A.wav","null","","","","","","",""
"","","","","","html-keyboard-response","459","2.0.0","449601","pq1rxk7w7jo","ono","alpaca","23","male","no","no","0.5","3-4","null","","null","","","","","","",""
"","","","","","image-keyboard-response","460","2.0.0","450761","pq1rxk7w7jo","ono","alpaca","23","male","no","no","0.5","3-4","1159","stimuli/pictures/cough_wom_2.jpg","0","0","","true","no","sound","stimuli/sounds/hiccup_label_A.wav",""
"","","","","","audio-keyboard-response","461","2.0.0","451763","pq1rxk7w7jo","ono","alpaca","23","male","no","no","0.5","3-4","null","stimuli/sounds/bleep.wav","null","","","","","","",""
"","","","","","html-keyboard-response","462","2.0.0","452101","pq1rxk7w7jo","ono","alpaca","23","male","no","no","0.5","3-4","236","<div style=""font-size:30px;"">Press space to start the trial</div>"," ","","","","","","",""
"","","","","","html-keyboard-response","463","2.0.0","452353","pq1rxk7w7jo","ono","alpaca","23","male","no","no","0.5","3-4","null","<div style=""font-size:60px;"">+</div>","null","","","","","","",""
"","","","","","audio-keyboard-response","464","2.0.0","452989","pq1rxk7w7jo","ono","alpaca","23","male","no","no","0.5","3-4","null","stimuli/sounds/cough_label_A.wav","null","","","","","","",""
"","","","","","html-keyboard-response","465","2.0.0","453991","pq1rxk7w7jo","ono","alpaca","23","male","no","no","0.5","3-4","null","","null","","","","","","",""
"","","","","","image-keyboard-response","466","2.0.0","454774","pq1rxk7w7jo","ono","alpaca","23","male","no","no","0.5","3-4","782","stimuli/pictures/motor_harley_1.jpg","0","0","","true","no","sound","stimuli/sounds/cough_label_A.wav",""
"","","","","","audio-keyboard-response","467","2.0.0","455777","pq1rxk7w7jo","ono","alpaca","23","male","no","no","0.5","3-4","null","stimuli/sounds/bleep.wav","null","","","","","","",""
"","","","","","html-keyboard-response","468","2.0.0","455965","pq1rxk7w7jo","ono","alpaca","23","male","no","no","0.5","3-4","86","<div style=""font-size:30px;"">Press space to start the trial</div>"," ","","","","","","",""
"","","","","","html-keyboard-response","469","2.0.0","456217","pq1rxk7w7jo","ono","alpaca","23","male","no","no","0.5","3-4","null","<div style=""font-size:60px;"">+</div>","null","","","","","","",""
"","","","","","audio-keyboard-response","470","2.0.0","456818","pq1rxk7w7jo","ono","alpaca","23","male","no","no","0.5","3-4","null","stimuli/sounds/dog_sound_A.wav","null","","","","","","",""
"","","","","","html-keyboard-response","471","2.0.0","457820","pq1rxk7w7jo","ono","alpaca","23","male","no","no","0.5","3-4","null","","null","","","","","","",""
"","","","","","image-keyboard-response","472","2.0.0","458714","pq1rxk7w7jo","ono","alpaca","23","male","no","no","0.5","3-4","893","stimuli/pictures/hiccup_wom_1.jpg","0","0","","true","no","sound","stimuli/sounds/dog_sound_A.wav",""
"","","","","","audio-keyboard-response","473","2.0.0","459716","pq1rxk7w7jo","ono","alpaca","23","male","no","no","0.5","3-4","null","stimuli/sounds/bleep.wav","null","","","","","","",""
"","","","","","html-keyboard-response","474","2.0.0","460327","pq1rxk7w7jo","ono","alpaca","23","male","no","no","0.5","3-4","508","<div style=""font-size:30px;"">Press space to start the trial</div>"," ","","","","","","",""
"","","","","","html-keyboard-response","475","2.0.0","460578","pq1rxk7w7jo","ono","alpaca","23","male","no","no","0.5","3-4","null","<div style=""font-size:60px;"">+</div>","null","","","","","","",""
"","","","","","audio-keyboard-response","476","2.0.0","461117","pq1rxk7w7jo","ono","alpaca","23","male","no","no","0.5","3-4","null","stimuli/sounds/hiccup_label_A.wav","null","","","","","","",""
"","","","","","html-keyboard-response","477","2.0.0","462119","pq1rxk7w7jo","ono","alpaca","23","male","no","no","0.5","3-4","null","","null","","","","","","",""
"","","","","","image-keyboard-response","478","2.0.0","463325","pq1rxk7w7jo","ono","alpaca","23","male","no","no","0.5","3-4","1205","stimuli/pictures/cough_man_1.jpg","0","0","","true","no","sound","stimuli/sounds/hiccup_label_A.wav",""
"","","","","","audio-keyboard-response","479","2.0.0","464327","pq1rxk7w7jo","ono","alpaca","23","male","no","no","0.5","3-4","null","stimuli/sounds/bleep.wav","null","","","","","","",""
"","","","","","html-keyboard-response","480","2.0.0","464963","pq1rxk7w7jo","ono","alpaca","23","male","no","no","0.5","3-4","535","<div style=""font-size:30px;"">Press space to start the trial</div>"," ","","","","","","",""
"","","","","","html-keyboard-response","481","2.0.0","465215","pq1rxk7w7jo","ono","alpaca","23","male","no","no","0.5","3-4","null","<div style=""font-size:60px;"">+</div>","null","","","","","","",""
"","","","","","audio-keyboard-response","482","2.0.0","465880","pq1rxk7w7jo","ono","alpaca","23","male","no","no","0.5","3-4","null","stimuli/sounds/cough_sound_A.wav","null","","","","","","",""
"","","","","","html-keyboard-response","483","2.0.0","466881","pq1rxk7w7jo","ono","alpaca","23","male","no","no","0.5","3-4","null","","null","","","","","","",""
"","","","","","image-keyboard-response","484","2.0.0","467123","pq1rxk7w7jo","ono","alpaca","23","male","no","no","0.5","3-4","240","stimuli/pictures/cough_man_1.jpg","1","1","","true","no","sound","stimuli/sounds/cough_sound_A.wav",""
"","","","","","audio-keyboard-response","485","2.0.0","468125","pq1rxk7w7jo","ono","alpaca","23","male","no","no","0.5","3-4","null","stimuli/sounds/bleep.wav","null","","","","","","",""
