"success","timeout","failed_images","failed_audio","failed_video","trial_type","trial_index","plugin_version","time_elapsed","random_id","condition","participant","age","gender_id","mus_exp","inst_exp","years_exp","mus_listening","rt","stimulus","response","correct_response","practice","correct","congruent","sound_type","audio","question_order"
"true","false","[]","[]","[]","preload","0","2.0.0","333","pqobvqc3jat","mus","hamster","21","female","yes","yes","5","10","","","","","","","","","",""
"","","","","","html-keyboard-response","1","2.0.0","27812","pqobvqc3jat","mus","hamster","21","female","yes","yes","5","10","27477","Welcome to the experiment! Press any key to begin.","Enter","","","","","","",""
"true","","","","","fullscreen","2","null","30288","pqobvqc3jat","mus","hamster","21","female","yes","yes","5","10","1461","","","","","","","","",""
"","","","","","survey-text","3","2.0.0","33897","pqobvqc3jat","mus","hamster","21","female","yes","yes","5","10","3600","","{""participant_id"":""hamster""}","","","","","","",""
"","","","","","html-keyboard-response","4","2.0.0","38779","pqobvqc3jat","mus","hamster","21","female","yes","yes","5","10","4875","
    <p> Please use headphones for the duration of the study.</p>
    <p> Within each trial, you will hear a sound and then be presented with an image in the center of your screen.</p>
    <p>Press the <b>'1'</b> key if what you hear <u>matches</u> what you see.</p>
    <p>Press the <b>'0'</b> key if what you hear <u>does not match</u> what you see.</p>
    <p>Try to respond as quickly and accurately as you can.</p>
    <p> Press any key to begin.</p>
    ","Enter","","","","","","",""
"","","","","","html-keyboard-response","5","2.0.0","41582","pqobvqc3jat","mus","hamster","21","female","yes","yes","5","10","2802","
    <div style=""font-size:28px;"">
      <p>You will now complete 4 short practice trials.</p>
      <p>This is just to help you get familiar with the task.</p>
      <p>Press any key to begin.</p>
    </div>
  ","Enter","","","","","","",""
"","","","","","html-keyboard-response","6","2.0.0","42089","pqobvqc3jat","mus","hamster","21","female","yes","yes","5","10","null","<div style=""font-size:60px;"">+</div>","null","","","","","","",""
"","","","","","audio-keyboard-response","7","2.0.0","42803","pqobvqc3jat","mus","hamster","21","female","yes","yes","5","10","null","stimuli/sounds/guitar_label_A.wav","null","","","","","","",""
"","","","","","image-keyboard-response","8","2.0.0","55940","pqobvqc3jat","mus","hamster","21","female","yes","yes","5","10","13130","stimuli/pictures/guitar_acoustic_1.jpg","0","1","true","false","","","",""
"","","","","","audio-keyboard-response","9","2.0.0","56747","pqobvqc3jat","mus","hamster","21","female","yes","yes","5","10","null","stimuli/sounds/buzz.wav","null","","","","","","",""
"","","","","","html-keyboard-response","10","2.0.0","57462","pqobvqc3jat","mus","hamster","21","female","yes","yes","5","10","null","<p style='color:red; font-size:30px;'>Incorrect</p>","null","","","","","","",""
"","","","","","html-keyboard-response","11","2.0.0","57977","pqobvqc3jat","mus","hamster","21","female","yes","yes","5","10","null","<div style=""font-size:60px;"">+</div>","null","","","","","","",""
"","","","","","audio-keyboard-response","12","2.0.0","58572","pqobvqc3jat","mus","hamster","21","female","yes","yes","5","10","null","stimuli/sounds/guitar_sound_B.wav","null","","","","","","",""
"","","","","","image-keyboard-response","13","2.0.0","59520","pqobvqc3jat","mus","hamster","21","female","yes","yes","5","10","945","stimuli/pictures/guitar_acoustic_2.jpg","1","1","true","true","","","",""
"","","","","","audio-keyboard-response","14","2.0.0","60337","pqobvqc3jat","mus","hamster","21","female","yes","yes","5","10","null","stimuli/sounds/bleep.wav","null","","","","","","",""
"","","","","","html-keyboard-response","15","2.0.0","61049","pqobvqc3jat","mus","hamster","21","female","yes","yes","5","10","null","<p style='color:green; font-size:30px;'>Correct!</p>","null","","","","","","",""
"","","","","","html-keyboard-response","16","2.0.0","61558","pqobvqc3jat","mus","hamster","21","female","yes","yes","5","10","null","<div style=""font-size:60px;"">+</div>","null","","","","","","",""
"","","","","","audio-keyboard-response","17","2.0.0","62163","pqobvqc3jat","mus","hamster","21","female","yes","yes","5","10","null","stimuli/sounds/flute_sound_A.wav","null","","","","","","",""
"","","","","","image-keyboard-response","18","2.0.0","62928","pqobvqc3jat","mus","hamster","21","female","yes","yes","5","10","763","stimuli/pictures/guitar_electric_1.jpg","1","0","true","false","","","",""
"","","","","","audio-keyboard-response","19","2.0.0","63739","pqobvqc3jat","mus","hamster","21","female","yes","yes","5","10","null","stimuli/sounds/buzz.wav","null","","","","","","",""
"","","","","","html-keyboard-response","20","2.0.0","64442","pqobvqc3jat","mus","hamster","21","female","yes","yes","5","10","null","<p style='color:red; font-size:30px;'>Incorrect</p>","null","","","","","","",""
"","","","","","html-keyboard-response","21","2.0.0","64953","pqobvqc3jat","mus","hamster","21","female","yes","yes","5","10","null","<div style=""font-size:60px;"">+</div>","null","","","","","","",""
"","","","","","audio-keyboard-response","22","2.0.0","65553","pqobvqc3jat","mus","hamster","21","female","yes","yes","5","10","null","stimuli/sounds/guitar_sound_A.wav","null","","","","","","",""
"","","","","","image-keyboard-response","23","2.0.0","66649","pqobvqc3jat","mus","hamster","21","female","yes","yes","5","10","1094","stimuli/pictures/guitar_acoustic_1.jpg","0","1","true","false","","","",""
"","","","","","audio-keyboard-response","24","2.0.0","67465","pqobvqc3jat","mus","hamster","21","female","yes","yes","5","10","null","stimuli/sounds/buzz.wav","null","","","","","","",""
"","","","","","html-keyboard-response","25","2.0.0","68173","pqobvqc3jat","mus","hamster","21","female","yes","yes","5","10","null","<p style='color:red; font-size:30px;'>Incorrect</p>","null","","","","","","",""
"","","","","","html-keyboard-response","26","2.0.0","70199","pqobvqc3jat","mus","hamster","21","female","yes","yes","5","10","2025","<p>Practice complete. Press any key to begin the real experiment.</p>"," ","","","","","","",""
"","","","","","html-keyboard-response","27","2.0.0","73140","pqobvqc3jat","mus","hamster","21","female","yes","yes","5","10","2940","<div style=""font-size:30px;"">Press space to start the trial</div>"," ","","","","","","",""
"","","","","","html-keyboard-response","28","2.0.0","73398","pqobvqc3jat","mus","hamster","21","female","yes","yes","5","10","null","<div style=""font-size:60px;"">+</div>","null","","","","","","",""
"","","","","","audio-keyboard-response","29","2.0.0","73993","pqobvqc3jat","mus","hamster","21","female","yes","yes","5","10","null","stimuli/sounds/phone_label_A.wav","null","","","","","","",""
"","","","","","html-keyboard-response","30","2.0.0","74997","pqobvqc3jat","mus","hamster","21","female","yes","yes","5","10","null","","null","","","","","","",""
"","","","","","image-keyboard-response","31","2.0.0","76069","pqobvqc3jat","mus","hamster","21","female","yes","yes","5","10","1069","stimuli/pictures/drum_kit_2.jpg","0","0","","true","no","sound","stimuli/sounds/phone_label_A.wav",""
"","","","","","audio-keyboard-response","32","2.0.0","77076","pqobvqc3jat","mus","hamster","21","female","yes","yes","5","10","null","stimuli/sounds/bleep.wav","null","","","","","","",""
"","","","","","html-keyboard-response","33","2.0.0","80660","pqobvqc3jat","mus","hamster","21","female","yes","yes","5","10","3471","<div style=""font-size:30px;"">Press space to start the trial</div>"," ","","","","","","",""
"","","","","","html-keyboard-response","34","2.0.0","80921","pqobvqc3jat","mus","hamster","21","female","yes","yes","5","10","null","<div style=""font-size:60px;"">+</div>","null","","","","","","",""
"","","","","","audio-keyboard-response","35","2.0.0","81513","pqobvqc3jat","mus","hamster","21","female","yes","yes","5","10","null","stimuli/sounds/phone_sound_A.wav","null","","","","","","",""
"","","","","","html-keyboard-response","36","2.0.0","82528","pqobvqc3jat","mus","hamster","21","female","yes","yes","5","10","null","","null","","","","","","",""
"","","","","","image-keyboard-response","37","2.0.0","83949","pqobvqc3jat","mus","hamster","21","female","yes","yes","5","10","1419","stimuli/pictures/bird_song_1.jpg","0","0","","true","no","sound","stimuli/sounds/phone_sound_A.wav",""
"","","","","","audio-keyboard-response","38","2.0.0","84953","pqobvqc3jat","mus","hamster","21","female","yes","yes","5","10","null","stimuli/sounds/bleep.wav","null","","","","","","",""
"","","","","","html-keyboard-response","39","2.0.0","86319","pqobvqc3jat","mus","hamster","21","female","yes","yes","5","10","1254","<div style=""font-size:30px;"">Press space to start the trial</div>"," ","","","","","","",""
"","","","","","html-keyboard-response","40","2.0.0","86585","pqobvqc3jat","mus","hamster","21","female","yes","yes","5","10","null","<div style=""font-size:60px;"">+</div>","null","","","","","","",""
"","","","","","audio-keyboard-response","41","2.0.0","87193","pqobvqc3jat","mus","hamster","21","female","yes","yes","5","10","null","stimuli/sounds/piano_sound_A.wav","null","","","","","","",""
"","","","","","html-keyboard-response","42","2.0.0","88199","pqobvqc3jat","mus","hamster","21","female","yes","yes","5","10","null","","null","","","","","","",""
"","","","","","image-keyboard-response","43","2.0.0","89010","pqobvqc3jat","mus","hamster","21","female","yes","yes","5","10","808","stimuli/pictures/drum_kit_2.jpg","0","0","","true","no","sound","stimuli/sounds/piano_sound_A.wav",""
"","","","","","audio-keyboard-response","44","2.0.0","90025","pqobvqc3jat","mus","hamster","21","female","yes","yes","5","10","null","stimuli/sounds/bleep.wav","null","","","","","","",""
"","","","","","html-keyboard-response","45","2.0.0","90539","pqobvqc3jat","mus","hamster","21","female","yes","yes","5","10","402","<div style=""font-size:30px;"">Press space to start the trial</div>"," ","","","","","","",""
"","","","","","html-keyboard-response","46","2.0.0","90798","pqobvqc3jat","mus","hamster","21","female","yes","yes","5","10","null","<div style=""font-size:60px;"">+</div>","null","","","","","","",""
"","","","","","audio-keyboard-response","47","2.0.0","91423","pqobvqc3jat","mus","hamster","21","female","yes","yes","5","10","null","stimuli/sounds/piano_label_A.wav","null","","","","","","",""
"","","","","","html-keyboard-response","48","2.0.0","92433","pqobvqc3jat","mus","hamster","21","female","yes","yes","5","10","null","","null","","","","","","",""
"","","","","","image-keyboard-response","49","2.0.0","92988","pqobvqc3jat","mus","hamster","21","female","yes","yes","5","10","552","stimuli/pictures/piano_grand_2.jpg","1","1","","true","yes","sound","stimuli/sounds/piano_label_A.wav",""
"","","","","","audio-keyboard-response","50","2.0.0","94008","pqobvqc3jat","mus","hamster","21","female","yes","yes","5","10","null","stimuli/sounds/bleep.wav","null","","","","","","",""
"","","","","","html-keyboard-response","51","2.0.0","94171","pqobvqc3jat","mus","hamster","21","female","yes","yes","5","10","50","<div style=""font-size:30px;"">Press space to start the trial</div>"," ","","","","","","",""
"","","","","","html-keyboard-response","52","2.0.0","94428","pqobvqc3jat","mus","hamster","21","female","yes","yes","5","10","null","<div style=""font-size:60px;"">+</div>","null","","","","","","",""
"","","","","","audio-keyboard-response","53","2.0.0","95023","pqobvqc3jat","mus","hamster","21","female","yes","yes","5","10","null","stimuli/sounds/phone_label_B.wav","null","","","","","","",""
"","","","","","html-keyboard-response","54","2.0.0","96031","pqobvqc3jat","mus","hamster","21","female","yes","yes","5","10","null","","null","","","","","","",""
"","","","","","image-keyboard-response","55","2.0.0","96622","pqobvqc3jat","mus","hamster","21","female","yes","yes","5","10","587","stimuli/pictures/flute_wooden_2.jpg","0","0","","true","no","sound","stimuli/sounds/phone_label_B.wav",""
"","","","","","audio-keyboard-response","56","2.0.0","97638","pqobvqc3jat","mus","hamster","21","female","yes","yes","5","10","null","stimuli/sounds/bleep.wav","null","","","","","","",""
"","","","","","html-keyboard-response","57","2.0.0","98278","pqobvqc3jat","mus","hamster","21","female","yes","yes","5","10","528","<div style=""font-size:30px;"">Press space to start the trial</div>"," ","","","","","","",""
"","","","","","html-keyboard-response","58","2.0.0","98536","pqobvqc3jat","mus","hamster","21","female","yes","yes","5","10","null","<div style=""font-size:60px;"">+</div>","null","","","","","","",""
"","","","","","audio-keyboard-response","59","2.0.0","99133","pqobvqc3jat","mus","hamster","21","female","yes","yes","5","10","null","stimuli/sounds/drum_label_A.wav","null","","","","","","",""
"","","","","","html-keyboard-response","60","2.0.0","100138","pqobvqc3jat","mus","hamster","21","female","yes","yes","5","10","null","","null","","","","","","",""
"","","","","","image-keyboard-response","61","2.0.0","100599","pqobvqc3jat","mus","hamster","21","female","yes","yes","5","10","458","stimuli/pictures/bird_hawk_1.jpg","0","0","","true","no","sound","stimuli/sounds/drum_label_A.wav",""
"","","","","","audio-keyboard-response","62","2.0.0","101613","pqobvqc3jat","mus","hamster","21","female","yes","yes","5","10","null","stimuli/sounds/bleep.wav","null","","","","","","",""
"","","","","","html-keyboard-response","63","2.0.0","101999","pqobvqc3jat","mus","hamster","21","female","yes","yes","5","10","276","<div style=""font-size:30px;"">Press space to start the trial</div>"," ","","","","","","",""
"","","","","","html-keyboard-response","64","2.0.0","102258","pqobvqc3jat","mus","hamster","21","female","yes","yes","5","10","null","<div style=""font-size:60px;"">+</div>","null","","","","","","",""
"","","","","","audio-keyboard-response","65","2.0.0","102883","pqobvqc3jat","mus","hamster","21","female","yes","yes","5","10","null","stimuli/sounds/piano_label_A.wav","null","","","","","","",""
"","","","","","html-keyboard-response","66","2.0.0","103890","pqobvqc3jat","mus","hamster","21","female","yes","yes","5","10","null","","null","","","","","","",""
"","","","","","image-keyboard-response","67","2.0.0","104450","pqobvqc3jat","mus","hamster","21","female","yes","yes","5","10","558","stimuli/pictures/phone_cell_2.jpg","0","0","","true","no","sound","stimuli/sounds/piano_label_A.wav",""
"","","","","","audio-keyboard-response","68","2.0.0","105462","pqobvqc3jat","mus","hamster","21","female","yes","yes","5","10","null","stimuli/sounds/bleep.wav","null","","","","","","",""
"","","","","","html-keyboard-response","69","2.0.0","106109","pqobvqc3jat","mus","hamster","21","female","yes","yes","5","10","536","<div style=""font-size:30px;"">Press space to start the trial</div>"," ","","","","","","",""
"","","","","","html-keyboard-response","70","2.0.0","106372","pqobvqc3jat","mus","hamster","21","female","yes","yes","5","10","null","<div style=""font-size:60px;"">+</div>","null","","","","","","",""
"","","","","","audio-keyboard-response","71","2.0.0","106973","pqobvqc3jat","mus","hamster","21","female","yes","yes","5","10","null","stimuli/sounds/phone_sound_A.wav","null","","","","","","",""
"","","","","","html-keyboard-response","72","2.0.0","107974","pqobvqc3jat","mus","hamster","21","female","yes","yes","5","10","null","","null","","","","","","",""
"","","","","","image-keyboard-response","73","2.0.0","108448","pqobvqc3jat","mus","hamster","21","female","yes","yes","5","10","472","stimuli/pictures/phone_cell_1.jpg","1","1","","true","yes","sound","stimuli/sounds/phone_sound_A.wav",""
"","","","","","audio-keyboard-response","74","2.0.0","109389","pqobvqc3jat","mus","hamster","21","female","yes","yes","5","10","941","stimuli/sounds/bleep.wav"," ","","","","","","",""
"","","","","","html-keyboard-response","75","2.0.0","110028","pqobvqc3jat","mus","hamster","21","female","yes","yes","5","10","535","<div style=""font-size:30px;"">Press space to start the trial</div>"," ","","","","","","",""
"","","","","","html-keyboard-response","76","2.0.0","110288","pqobvqc3jat","mus","hamster","21","female","yes","yes","5","10","null","<div style=""font-size:60px;"">+</div>","null","","","","","","",""
"","","","","","audio-keyboard-response","77","2.0.0","110883","pqobvqc3jat","mus","hamster","21","female","yes","yes","5","10","null","stimuli/sounds/phone_label_A.wav","null","","","","","","",""
"","","","","","html-keyboard-response","78","2.0.0","111885","pqobvqc3jat","mus","hamster","21","female","yes","yes","5","10","null","","null","","","","","","",""
"","","","","","image-keyboard-response","79","2.0.0","112438","pqobvqc3jat","mus","hamster","21","female","yes","yes","5","10","551","stimuli/pictures/drum_bongo_1.jpg","0","0","","true","no","sound","stimuli/sounds/phone_label_A.wav",""
"","","","","","audio-keyboard-response","80","2.0.0","113446","pqobvqc3jat","mus","hamster","21","female","yes","yes","5","10","null","stimuli/sounds/bleep.wav","null","","","","","","",""
"","","","","","html-keyboard-response","81","2.0.0","114159","pqobvqc3jat","mus","hamster","21","female","yes","yes","5","10","601","<div style=""font-size:30px;"">Press space to start the trial</div>"," ","","","","","","",""
"","","","","","html-keyboard-response","82","2.0.0","114424","pqobvqc3jat","mus","hamster","21","female","yes","yes","5","10","null","<div style=""font-size:60px;"">+</div>","null","","","","","","",""
"","","","","","audio-keyboard-response","83","2.0.0","115023","pqobvqc3jat","mus","hamster","21","female","yes","yes","5","10","null","stimuli/sounds/phone_sound_A.wav","null","","","","","","",""
"","","","","","html-keyboard-response","84","2.0.0","116046","pqobvqc3jat","mus","hamster","21","female","yes","yes","5","10","null","","null","","","","","","",""
"","","","","","image-keyboard-response","85","2.0.0","116570","pqobvqc3jat","mus","hamster","21","female","yes","yes","5","10","521","stimuli/pictures/bird_hawk_1.jpg","0","0","","true","no","sound","stimuli/sounds/phone_sound_A.wav",""
"","","","","","audio-keyboard-response","86","2.0.0","117587","pqobvqc3jat","mus","hamster","21","female","yes","yes","5","10","null","stimuli/sounds/bleep.wav","null","","","","","","",""
"","","","","","html-keyboard-response","87","2.0.0","118519","pqobvqc3jat","mus","hamster","21","female","yes","yes","5","10","820","<div style=""font-size:30px;"">Press space to start the trial</div>"," ","","","","","","",""
"","","","","","html-keyboard-response","88","2.0.0","118781","pqobvqc3jat","mus","hamster","21","female","yes","yes","5","10","null","<div style=""font-size:60px;"">+</div>","null","","","","","","",""
"","","","","","audio-keyboard-response","89","2.0.0","119384","pqobvqc3jat","mus","hamster","21","female","yes","yes","5","10","null","stimuli/sounds/bird_sound_A.wav","null","","","","","","",""
"","","","","","html-keyboard-response","90","2.0.0","120390","pqobvqc3jat","mus","hamster","21","female","yes","yes","5","10","null","","null","","","","","","",""
"","","","","","image-keyboard-response","91","2.0.0","121090","pqobvqc3jat","mus","hamster","21","female","yes","yes","5","10","699","stimuli/pictures/bird_song_2.jpg","1","1","","true","no","sound","stimuli/sounds/bird_sound_A.wav",""
"","","","","","audio-keyboard-response","92","2.0.0","122098","pqobvqc3jat","mus","hamster","21","female","yes","yes","5","10","null","stimuli/sounds/bleep.wav","null","","","","","","",""
"","","","","","html-keyboard-response","93","2.0.0","123229","pqobvqc3jat","mus","hamster","21","female","yes","yes","5","10","1020","<div style=""font-size:30px;"">Press space to start the trial</div>"," ","","","","","","",""
"","","","","","html-keyboard-response","94","2.0.0","123480","pqobvqc3jat","mus","hamster","21","female","yes","yes","5","10","null","<div style=""font-size:60px;"">+</div>","null","","","","","","",""
"","","","","","audio-keyboard-response","95","2.0.0","124082","pqobvqc3jat","mus","hamster","21","female","yes","yes","5","10","null","stimuli/sounds/flute_label_B.wav","null","","","","","","",""
"","","","","","html-keyboard-response","96","2.0.0","125099","pqobvqc3jat","mus","hamster","21","female","yes","yes","5","10","null","","null","","","","","","",""
"","","","","","image-keyboard-response","97","2.0.0","125570","pqobvqc3jat","mus","hamster","21","female","yes","yes","5","10","468","stimuli/pictures/drum_bongo_2.jpg","0","0","","true","no","sound","stimuli/sounds/flute_label_B.wav",""
"","","","","","audio-keyboard-response","98","2.0.0","126578","pqobvqc3jat","mus","hamster","21","female","yes","yes","5","10","null","stimuli/sounds/bleep.wav","null","","","","","","",""
"","","","","","html-keyboard-response","99","2.0.0","127499","pqobvqc3jat","mus","hamster","21","female","yes","yes","5","10","809","<div style=""font-size:30px;"">Press space to start the trial</div>"," ","","","","","","",""
"","","","","","html-keyboard-response","100","2.0.0","127758","pqobvqc3jat","mus","hamster","21","female","yes","yes","5","10","null","<div style=""font-size:60px;"">+</div>","null","","","","","","",""
"","","","","","audio-keyboard-response","101","2.0.0","128363","pqobvqc3jat","mus","hamster","21","female","yes","yes","5","10","null","stimuli/sounds/flute_label_A.wav","null","","","","","","",""
"","","","","","html-keyboard-response","102","2.0.0","129365","pqobvqc3jat","mus","hamster","21","female","yes","yes","5","10","null","","null","","","","","","",""
"","","","","","image-keyboard-response","103","2.0.0","129730","pqobvqc3jat","mus","hamster","21","female","yes","yes","5","10","363","stimuli/pictures/piano_grand_2.jpg","0","0","","true","no","sound","stimuli/sounds/flute_label_A.wav",""
"","","","","","audio-keyboard-response","104","2.0.0","130736","pqobvqc3jat","mus","hamster","21","female","yes","yes","5","10","null","stimuli/sounds/bleep.wav","null","","","","","","",""
"","","","","","html-keyboard-response","105","2.0.0","131419","pqobvqc3jat","mus","hamster","21","female","yes","yes","5","10","571","<div style=""font-size:30px;"">Press space to start the trial</div>"," ","","","","","","",""
"","","","","","html-keyboard-response","106","2.0.0","131687","pqobvqc3jat","mus","hamster","21","female","yes","yes","5","10","null","<div style=""font-size:60px;"">+</div>","null","","","","","","",""
"","","","","","audio-keyboard-response","107","2.0.0","132283","pqobvqc3jat","mus","hamster","21","female","yes","yes","5","10","null","stimuli/sounds/bird_label_B.wav","null","","","","","","",""
"","","","","","html-keyboard-response","108","2.0.0","133288","pqobvqc3jat","mus","hamster","21","female","yes","yes","5","10","null","","null","","","","","","",""
"","","","","","image-keyboard-response","109","2.0.0","133810","pqobvqc3jat","mus","hamster","21","female","yes","yes","5","10","520","stimuli/pictures/phone_rotary_2.jpg","0","0","","true","no","sound","stimuli/sounds/bird_label_B.wav",""
"","","","","","audio-keyboard-response","110","2.0.0","134819","pqobvqc3jat","mus","hamster","21","female","yes","yes","5","10","null","stimuli/sounds/bleep.wav","null","","","","","","",""
"","","","","","html-keyboard-response","111","2.0.0","134998","pqobvqc3jat","mus","hamster","21","female","yes","yes","5","10","66","<div style=""font-size:30px;"">Press space to start the trial</div>"," ","","","","","","",""
"","","","","","html-keyboard-response","112","2.0.0","135254","pqobvqc3jat","mus","hamster","21","female","yes","yes","5","10","null","<div style=""font-size:60px;"">+</div>","null","","","","","","",""
"","","","","","audio-keyboard-response","113","2.0.0","135853","pqobvqc3jat","mus","hamster","21","female","yes","yes","5","10","null","stimuli/sounds/bird_sound_A.wav","null","","","","","","",""
"","","","","","html-keyboard-response","114","2.0.0","136860","pqobvqc3jat","mus","hamster","21","female","yes","yes","5","10","null","","null","","","","","","",""
"","","","","","image-keyboard-response","115","2.0.0","137419","pqobvqc3jat","mus","hamster","21","female","yes","yes","5","10","557","stimuli/pictures/bird_hawk_1.jpg","1","1","","true","yes","sound","stimuli/sounds/bird_sound_A.wav",""
"","","","","","audio-keyboard-response","116","2.0.0","138424","pqobvqc3jat","mus","hamster","21","female","yes","yes","5","10","null","stimuli/sounds/bleep.wav","null","","","","","","",""
"","","","","","html-keyboard-response","117","2.0.0","138919","pqobvqc3jat","mus","hamster","21","female","yes","yes","5","10","383","<div style=""font-size:30px;"">Press space to start the trial</div>"," ","","","","","","",""
"","","","","","html-keyboard-response","118","2.0.0","139177","pqobvqc3jat","mus","hamster","21","female","yes","yes","5","10","null","<div style=""font-size:60px;"">+</div>","null","","","","","","",""
"","","","","","audio-keyboard-response","119","2.0.0","139782","pqobvqc3jat","mus","hamster","21","female","yes","yes","5","10","null","stimuli/sounds/flute_sound_B.wav","null","","","","","","",""
"","","","","","html-keyboard-response","120","2.0.0","140798","pqobvqc3jat","mus","hamster","21","female","yes","yes","5","10","null","","null","","","","","","",""
"","","","","","image-keyboard-response","121","2.0.0","142099","pqobvqc3jat","mus","hamster","21","female","yes","yes","5","10","1300","stimuli/pictures/flute_metal_1.jpg","0","1","","false","no","sound","stimuli/sounds/flute_sound_B.wav",""
"","","","","","audio-keyboard-response","122","2.0.0","143109","pqobvqc3jat","mus","hamster","21","female","yes","yes","5","10","null","stimuli/sounds/buzz.wav","null","","","","","","",""
"","","","","","html-keyboard-response","123","2.0.0","143709","pqobvqc3jat","mus","hamster","21","female","yes","yes","5","10","489","<div style=""font-size:30px;"">Press space to start the trial</div>"," ","","","","","","",""
"","","","","","html-keyboard-response","124","2.0.0","143969","pqobvqc3jat","mus","hamster","21","female","yes","yes","5","10","null","<div style=""font-size:60px;"">+</div>","null","","","","","","",""
"","","","","","audio-keyboard-response","125","2.0.0","144563","pqobvqc3jat","mus","hamster","21","female","yes","yes","5","10","null","stimuli/sounds/drum_label_B.wav","null","","","","","","",""
"","","","","","html-keyboard-response","126","2.0.0","145572","pqobvqc3jat","mus","hamster","21","female","yes","yes","5","10","null","","null","","","","","","",""
"","","","","","image-keyboard-response","127","2.0.0","146191","pqobvqc3jat","mus","hamster","21","female","yes","yes","5","10","617","stimuli/pictures/drum_kit_1.jpg","1","1","","true","yes","sound","stimuli/sounds/drum_label_B.wav",""
"","","","","","audio-keyboard-response","128","2.0.0","147205","pqobvqc3jat","mus","hamster","21","female","yes","yes","5","10","null","stimuli/sounds/bleep.wav","null","","","","","","",""
"","","","","","html-keyboard-response","129","2.0.0","148039","pqobvqc3jat","mus","hamster","21","female","yes","yes","5","10","721","<div style=""font-size:30px;"">Press space to start the trial</div>"," ","","","","","","",""
"","","","","","html-keyboard-response","130","2.0.0","148301","pqobvqc3jat","mus","hamster","21","female","yes","yes","5","10","null","<div style=""font-size:60px;"">+</div>","null","","","","","","",""
"","","","","","audio-keyboard-response","131","2.0.0","148933","pqobvqc3jat","mus","hamster","21","female","yes","yes","5","10","null","stimuli/sounds/piano_label_A.wav","null","","","","","","",""
"","","","","","html-keyboard-response","132","2.0.0","149947","pqobvqc3jat","mus","hamster","21","female","yes","yes","5","10","null","","null","","","","","","",""
"","","","","","image-keyboard-response","133","2.0.0","151581","pqobvqc3jat","mus","hamster","21","female","yes","yes","5","10","1632","stimuli/pictures/piano_electric_2.jpg","1","1","","true","yes","sound","stimuli/sounds/piano_label_A.wav",""
"","","","","","audio-keyboard-response","134","2.0.0","152593","pqobvqc3jat","mus","hamster","21","female","yes","yes","5","10","null","stimuli/sounds/bleep.wav","null","","","","","","",""
"","","","","","html-keyboard-response","135","2.0.0","153530","pqobvqc3jat","mus","hamster","21","female","yes","yes","5","10","825","<div style=""font-size:30px;"">Press space to start the trial</div>"," ","","","","","","",""
"","","","","","html-keyboard-response","136","2.0.0","153786","pqobvqc3jat","mus","hamster","21","female","yes","yes","5","10","null","<div style=""font-size:60px;"">+</div>","null","","","","","","",""
"","","","","","audio-keyboard-response","137","2.0.0","154393","pqobvqc3jat","mus","hamster","21","female","yes","yes","5","10","null","stimuli/sounds/flute_sound_A.wav","null","","","","","","",""
"","","","","","html-keyboard-response","138","2.0.0","155397","pqobvqc3jat","mus","hamster","21","female","yes","yes","5","10","null","","null","","","","","","",""
"","","","","","image-keyboard-response","139","2.0.0","156049","pqobvqc3jat","mus","hamster","21","female","yes","yes","5","10","651","stimuli/pictures/flute_wooden_1.jpg","1","1","","true","no","sound","stimuli/sounds/flute_sound_A.wav",""
"","","","","","audio-keyboard-response","140","2.0.0","157067","pqobvqc3jat","mus","hamster","21","female","yes","yes","5","10","null","stimuli/sounds/bleep.wav","null","","","","","","",""
"","","","","","html-keyboard-response","141","2.0.0","157669","pqobvqc3jat","mus","hamster","21","female","yes","yes","5","10","491","<div style=""font-size:30px;"">Press space to start the trial</div>"," ","","","","","","",""
"","","","","","html-keyboard-response","142","2.0.0","157928","pqobvqc3jat","mus","hamster","21","female","yes","yes","5","10","null","<div style=""font-size:60px;"">+</div>","null","","","","","","",""
"","","","","","audio-keyboard-response","143","2.0.0","158523","pqobvqc3jat","mus","hamster","21","female","yes","yes","5","10","null","stimuli/sounds/bird_label_A.wav","null","","","","","","",""
"","","","","","html-keyboard-response","144","2.0.0","159536","pqobvqc3jat","mus","hamster","21","female","yes","yes","5","10","null","","null","","","","","","",""
"","","","","","image-keyboard-response","145","2.0.0","160038","pqobvqc3jat","mus","hamster","21","female","yes","yes","5","10","501","stimuli/pictures/flute_metal_1.jpg","0","0","","true","no","sound","stimuli/sounds/bird_label_A.wav",""
"","","","","","audio-keyboard-response","146","2.0.0","161055","pqobvqc3jat","mus","hamster","21","female","yes","yes","5","10","null","stimuli/sounds/bleep.wav","null","","","","","","",""
"","","","","","html-keyboard-response","147","2.0.0","163949","pqobvqc3jat","mus","hamster","21","female","yes","yes","5","10","2783","<p>You have completed a block. Press R when you are ready to continue</p>","R","","","","","","",""
"","","","","","html-keyboard-response","148","2.0.0","164721","pqobvqc3jat","mus","hamster","21","female","yes","yes","5","10","770","<div style=""font-size:30px;"">Press space to start the trial</div>"," ","","","","","","",""
"","","","","","html-keyboard-response","149","2.0.0","164976","pqobvqc3jat","mus","hamster","21","female","yes","yes","5","10","null","<div style=""font-size:60px;"">+</div>","null","","","","","","",""
"","","","","","audio-keyboard-response","150","2.0.0","165583","pqobvqc3jat","mus","hamster","21","female","yes","yes","5","10","null","stimuli/sounds/flute_sound_B.wav","null","","","","","","",""
"","","","","","html-keyboard-response","151","2.0.0","166587","pqobvqc3jat","mus","hamster","21","female","yes","yes","5","10","null","","null","","","","","","",""
"","","","","","image-keyboard-response","152","2.0.0","167269","pqobvqc3jat","mus","hamster","21","female","yes","yes","5","10","681","stimuli/pictures/bird_song_2.jpg","0","0","","true","no","sound","stimuli/sounds/flute_sound_B.wav",""
"","","","","","audio-keyboard-response","153","2.0.0","168289","pqobvqc3jat","mus","hamster","21","female","yes","yes","5","10","null","stimuli/sounds/bleep.wav","null","","","","","","",""
"","","","","","html-keyboard-response","154","2.0.0","169090","pqobvqc3jat","mus","hamster","21","female","yes","yes","5","10","690","<div style=""font-size:30px;"">Press space to start the trial</div>"," ","","","","","","",""
"","","","","","html-keyboard-response","155","2.0.0","169348","pqobvqc3jat","mus","hamster","21","female","yes","yes","5","10","null","<div style=""font-size:60px;"">+</div>","null","","","","","","",""
"","","","","","audio-keyboard-response","156","2.0.0","169973","pqobvqc3jat","mus","hamster","21","female","yes","yes","5","10","null","stimuli/sounds/piano_label_A.wav","null","","","","","","",""
"","","","","","html-keyboard-response","157","2.0.0","170975","pqobvqc3jat","mus","hamster","21","female","yes","yes","5","10","null","","null","","","","","","",""
"","","","","","image-keyboard-response","158","2.0.0","171581","pqobvqc3jat","mus","hamster","21","female","yes","yes","5","10","604","stimuli/pictures/phone_rotary_2.jpg","0","0","","true","no","sound","stimuli/sounds/piano_label_A.wav",""
"","","","","","audio-keyboard-response","159","2.0.0","172594","pqobvqc3jat","mus","hamster","21","female","yes","yes","5","10","null","stimuli/sounds/bleep.wav","null","","","","","","",""
"","","","","","html-keyboard-response","160","2.0.0","173069","pqobvqc3jat","mus","hamster","21","female","yes","yes","5","10","363","<div style=""font-size:30px;"">Press space to start the trial</div>"," ","","","","","","",""
"","","","","","html-keyboard-response","161","2.0.0","173336","pqobvqc3jat","mus","hamster","21","female","yes","yes","5","10","null","<div style=""font-size:60px;"">+</div>","null","","","","","","",""
"","","","","","audio-keyboard-response","162","2.0.0","173933","pqobvqc3jat","mus","hamster","21","female","yes","yes","5","10","null","stimuli/sounds/drum_label_A.wav","null","","","","","","",""
"","","","","","html-keyboard-response","163","2.0.0","174939","pqobvqc3jat","mus","hamster","21","female","yes","yes","5","10","null","","null","","","","","","",""
"","","","","","image-keyboard-response","164","2.0.0","176180","pqobvqc3jat","mus","hamster","21","female","yes","yes","5","10","1239","stimuli/pictures/drum_kit_1.jpg","1","1","","true","yes","sound","stimuli/sounds/drum_label_A.wav",""
"","","","","","audio-keyboard-response","165","2.0.0","177184","pqobvqc3jat","mus","hamster","21","female","yes","yes","5","10","null","stimuli/sounds/bleep.wav","null","","","","","","",""
"","","","","","html-keyboard-response","166","2.0.0","178050","pqobvqc3jat","mus","hamster","21","female","yes","yes","5","10","755","<div style=""font-size:30px;"">Press space to start the trial</div>"," ","","","","","","",""
"","","","","","html-keyboard-response","167","2.0.0","178308","pqobvqc3jat","mus","hamster","21","female","yes","yes","5","10","null","<div style=""font-size:60px;"">+</div>","null","","","","","","",""
"","","","","","audio-keyboard-response","168","2.0.0","178903","pqobvqc3jat","mus","hamster","21","female","yes","yes","5","10","null","stimuli/sounds/drum_label_A.wav","null","","","","","","",""
"","","","","","html-keyboard-response","169","2.0.0","179905","pqobvqc3jat","mus","hamster","21","female","yes","yes","5","10","null","","null","","","","","","",""
"","","","","","image-keyboard-response","170","2.0.0","180720","pqobvqc3jat","mus","hamster","21","female","yes","yes","5","10","814","stimuli/pictures/bird_song_1.jpg","0","0","","true","no","sound","stimuli/sounds/drum_label_A.wav",""
"","","","","","audio-keyboard-response","171","2.0.0","181733","pqobvqc3jat","mus","hamster","21","female","yes","yes","5","10","null","stimuli/sounds/bleep.wav","null","","","","","","",""
"","","","","","html-keyboard-response","172","2.0.0","182461","pqobvqc3jat","mus","hamster","21","female","yes","yes","5","10","616","<div style=""font-size:30px;"">Press space to start the trial</div>"," ","","","","","","",""
"","","","","","html-keyboard-response","173","2.0.0","182713","pqobvqc3jat","mus","hamster","21","female","yes","yes","5","10","null","<div style=""font-size:60px;"">+</div>","null","","","","","","",""
"","","","","","audio-keyboard-response","174","2.0.0","183323","pqobvqc3jat","mus","hamster","21","female","yes","yes","5","10","null","stimuli/sounds/flute_sound_B.wav","null","","","","","","",""
"","","","","","html-keyboard-response","175","2.0.0","184332","pqobvqc3jat","mus","hamster","21","female","yes","yes","5","10","null","","null","","","","","","",""
"","","","","","image-keyboard-response","176","2.0.0","186089","pqobvqc3jat","mus","hamster","21","female","yes","yes","5","10","1755","stimuli/pictures/bird_hawk_1.jpg","0","0","","true","no","sound","stimuli/sounds/flute_sound_B.wav",""
"","","","","","audio-keyboard-response","177","2.0.0","187094","pqobvqc3jat","mus","hamster","21","female","yes","yes","5","10","null","stimuli/sounds/bleep.wav","null","","","","","","",""
"","","","","","html-keyboard-response","178","2.0.0","187680","pqobvqc3jat","mus","hamster","21","female","yes","yes","5","10","476","<div style=""font-size:30px;"">Press space to start the trial</div>"," ","","","","","","",""
"","","","","","html-keyboard-response","179","2.0.0","187943","pqobvqc3jat","mus","hamster","21","female","yes","yes","5","10","null","<div style=""font-size:60px;"">+</div>","null","","","","","","",""
"","","","","","audio-keyboard-response","180","2.0.0","188553","pqobvqc3jat","mus","hamster","21","female","yes","yes","5","10","null","stimuli/sounds/piano_label_B.wav","null","","","","","","",""
"","","","","","html-keyboard-response","181","2.0.0","189570","pqobvqc3jat","mus","hamster","21","female","yes","yes","5","10","null","","null","","","","","","",""
"","","","","","image-keyboard-response","182","2.0.0","190112","pqobvqc3jat","mus","hamster","21","female","yes","yes","5","10","540","stimuli/pictures/piano_electric_2.jpg","1","1","","true","yes","sound","stimuli/sounds/piano_label_B.wav",""
"","","","","","audio-keyboard-response","183","2.0.0","191130","pqobvqc3jat","mus","hamster","21","female","yes","yes","5","10","null","stimuli/sounds/bleep.wav","null","","","","","","",""
"","","","","","html-keyboard-response","184","2.0.0","193039","pqobvqc3jat","mus","hamster","21","female","yes","yes","5","10","1798","<div style=""font-size:30px;"">Press space to start the trial</div>"," ","","","","","","",""
"","","","","","html-keyboard-response","185","2.0.0","193306","pqobvqc3jat","mus","hamster","21","female","yes","yes","5","10","null","<div style=""font-size:60px;"">+</div>","null","","","","","","",""
"","","","","","audio-keyboard-response","186","2.0.0","193902","pqobvqc3jat","mus","hamster","21","female","yes","yes","5","10","null","stimuli/sounds/phone_label_B.wav","null","","","","","","",""
"","","","","","html-keyboard-response","187","2.0.0","194909","pqobvqc3jat","mus","hamster","21","female","yes","yes","5","10","null","","null","","","","","","",""
"","","","","","image-keyboard-response","188","2.0.0","201941","pqobvqc3jat","mus","hamster","21","female","yes","yes","5","10","7030","stimuli/pictures/flute_metal_2.jpg","0","0","","true","no","sound","stimuli/sounds/phone_label_B.wav",""
"","","","","","audio-keyboard-response","189","2.0.0","202947","pqobvqc3jat","mus","hamster","21","female","yes","yes","5","10","null","stimuli/sounds/bleep.wav","null","","","","","","",""
"","","","","","html-keyboard-response","190","2.0.0","205090","pqobvqc3jat","mus","hamster","21","female","yes","yes","5","10","2032","<div style=""font-size:30px;"">Press space to start the trial</div>"," ","","","","","","",""
"","","","","","html-keyboard-response","191","2.0.0","205349","pqobvqc3jat","mus","hamster","21","female","yes","yes","5","10","null","<div style=""font-size:60px;"">+</div>","null","","","","","","",""
"","","","","","audio-keyboard-response","192","2.0.0","205943","pqobvqc3jat","mus","hamster","21","female","yes","yes","5","10","null","stimuli/sounds/bird_sound_B.wav","null","","","","","","",""
"","","","","","html-keyboard-response","193","2.0.0","206952","pqobvqc3jat","mus","hamster","21","female","yes","yes","5","10","null","","null","","","","","","",""
"","","","","","image-keyboard-response","194","2.0.0","207659","pqobvqc3jat","mus","hamster","21","female","yes","yes","5","10","705","stimuli/pictures/drum_kit_2.jpg","0","0","","true","no","sound","stimuli/sounds/bird_sound_B.wav",""
"","","","","","audio-keyboard-response","195","2.0.0","208679","pqobvqc3jat","mus","hamster","21","female","yes","yes","5","10","null","stimuli/sounds/bleep.wav","null","","","","","","",""
"","","","","","html-keyboard-response","196","2.0.0","209449","pqobvqc3jat","mus","hamster","21","female","yes","yes","5","10","659","<div style=""font-size:30px;"">Press space to start the trial</div>"," ","","","","","","",""
"","","","","","html-keyboard-response","197","2.0.0","209708","pqobvqc3jat","mus","hamster","21","female","yes","yes","5","10","null","<div style=""font-size:60px;"">+</div>","null","","","","","","",""
"","","","","","audio-keyboard-response","198","2.0.0","210303","pqobvqc3jat","mus","hamster","21","female","yes","yes","5","10","null","stimuli/sounds/phone_label_B.wav","null","","","","","","",""
"","","","","","html-keyboard-response","199","2.0.0","211315","pqobvqc3jat","mus","hamster","21","female","yes","yes","5","10","null","","null","","","","","","",""
"","","","","","image-keyboard-response","200","2.0.0","212370","pqobvqc3jat","mus","hamster","21","female","yes","yes","5","10","1054","stimuli/pictures/phone_cell_2.jpg","1","1","","true","yes","sound","stimuli/sounds/phone_label_B.wav",""
"","","","","","audio-keyboard-response","201","2.0.0","213375","pqobvqc3jat","mus","hamster","21","female","yes","yes","5","10","null","stimuli/sounds/bleep.wav","null","","","","","","",""
"","","","","","html-keyboard-response","202","2.0.0","214259","pqobvqc3jat","mus","hamster","21","female","yes","yes","5","10","772","<div style=""font-size:30px;"">Press space to start the trial</div>"," ","","","","","","",""
"","","","","","html-keyboard-response","203","2.0.0","214515","pqobvqc3jat","mus","hamster","21","female","yes","yes","5","10","null","<div style=""font-size:60px;"">+</div>","null","","","","","","",""
"","","","","","audio-keyboard-response","204","2.0.0","215123","pqobvqc3jat","mus","hamster","21","female","yes","yes","5","10","null","stimuli/sounds/piano_sound_A.wav","null","","","","","","",""
"","","","","","html-keyboard-response","205","2.0.0","216138","pqobvqc3jat","mus","hamster","21","female","yes","yes","5","10","null","","null","","","","","","",""
"","","","","","image-keyboard-response","206","2.0.0","216920","pqobvqc3jat","mus","hamster","21","female","yes","yes","5","10","781","stimuli/pictures/drum_kit_1.jpg","0","0","","true","no","sound","stimuli/sounds/piano_sound_A.wav",""
"","","","","","audio-keyboard-response","207","2.0.0","217927","pqobvqc3jat","mus","hamster","21","female","yes","yes","5","10","null","stimuli/sounds/bleep.wav","null","","","","","","",""
"","","","","","html-keyboard-response","208","2.0.0","218600","pqobvqc3jat","mus","hamster","21","female","yes","yes","5","10","561","<div style=""font-size:30px;"">Press space to start the trial</div>"," ","","","","","","",""
"","","","","","html-keyboard-response","209","2.0.0","218855","pqobvqc3jat","mus","hamster","21","female","yes","yes","5","10","null","<div style=""font-size:60px;"">+</div>","null","","","","","","",""
"","","","","","audio-keyboard-response","210","2.0.0","219462","pqobvqc3jat","mus","hamster","21","female","yes","yes","5","10","null","stimuli/sounds/piano_label_B.wav","null","","","","","","",""
"","","","","","html-keyboard-response","211","2.0.0","220478","pqobvqc3jat","mus","hamster","21","female","yes","yes","5","10","null","","null","","","","","","",""
"","","","","","image-keyboard-response","212","2.0.0","221192","pqobvqc3jat","mus","hamster","21","female","yes","yes","5","10","711","stimuli/pictures/bird_hawk_1.jpg","0","0","","true","no","sound","stimuli/sounds/piano_label_B.wav",""
"","","","","","audio-keyboard-response","213","2.0.0","221920","pqobvqc3jat","mus","hamster","21","female","yes","yes","5","10","720","stimuli/sounds/bleep.wav"," ","","","","","","",""
"","","","","","html-keyboard-response","214","2.0.0","222620","pqobvqc3jat","mus","hamster","21","female","yes","yes","5","10","586","<div style=""font-size:30px;"">Press space to start the trial</div>"," ","","","","","","",""
"","","","","","html-keyboard-response","215","2.0.0","222886","pqobvqc3jat","mus","hamster","21","female","yes","yes","5","10","null","<div style=""font-size:60px;"">+</div>","null","","","","","","",""
"","","","","","audio-keyboard-response","216","2.0.0","223482","pqobvqc3jat","mus","hamster","21","female","yes","yes","5","10","null","stimuli/sounds/drum_sound_B.wav","null","","","","","","",""
"","","","","","html-keyboard-response","217","2.0.0","224496","pqobvqc3jat","mus","hamster","21","female","yes","yes","5","10","null","","null","","","","","","",""
"","","","","","image-keyboard-response","218","2.0.0","225100","pqobvqc3jat","mus","hamster","21","female","yes","yes","5","10","602","stimuli/pictures/phone_cell_2.jpg","0","0","","true","no","sound","stimuli/sounds/drum_sound_B.wav",""
"","","","","","audio-keyboard-response","219","2.0.0","225572","pqobvqc3jat","mus","hamster","21","female","yes","yes","5","10","469","stimuli/sounds/bleep.wav"," ","","","","","","",""
"","","","","","html-keyboard-response","220","2.0.0","225919","pqobvqc3jat","mus","hamster","21","female","yes","yes","5","10","237","<div style=""font-size:30px;"">Press space to start the trial</div>"," ","","","","","","",""
"","","","","","html-keyboard-response","221","2.0.0","226176","pqobvqc3jat","mus","hamster","21","female","yes","yes","5","10","null","<div style=""font-size:60px;"">+</div>","null","","","","","","",""
"","","","","","audio-keyboard-response","222","2.0.0","226773","pqobvqc3jat","mus","hamster","21","female","yes","yes","5","10","null","stimuli/sounds/bird_sound_A.wav","null","","","","","","",""
"","","","","","html-keyboard-response","223","2.0.0","227780","pqobvqc3jat","mus","hamster","21","female","yes","yes","5","10","null","","null","","","","","","",""
"","","","","","image-keyboard-response","224","2.0.0","228170","pqobvqc3jat","mus","hamster","21","female","yes","yes","5","10","389","stimuli/pictures/piano_electric_1.jpg","0","0","","true","no","sound","stimuli/sounds/bird_sound_A.wav",""
"","","","","","audio-keyboard-response","225","2.0.0","228340","pqobvqc3jat","mus","hamster","21","female","yes","yes","5","10","160","stimuli/sounds/bleep.wav"," ","","","","","","",""
"","","","","","html-keyboard-response","226","2.0.0","228619","pqobvqc3jat","mus","hamster","21","female","yes","yes","5","10","176","<div style=""font-size:30px;"">Press space to start the trial</div>"," ","","","","","","",""
"","","","","","html-keyboard-response","227","2.0.0","228875","pqobvqc3jat","mus","hamster","21","female","yes","yes","5","10","null","<div style=""font-size:60px;"">+</div>","null","","","","","","",""
"","","","","","audio-keyboard-response","228","2.0.0","229473","pqobvqc3jat","mus","hamster","21","female","yes","yes","5","10","null","stimuli/sounds/drum_label_A.wav","null","","","","","","",""
"","","","","","html-keyboard-response","229","2.0.0","230480","pqobvqc3jat","mus","hamster","21","female","yes","yes","5","10","null","","null","","","","","","",""
"","","","","","image-keyboard-response","230","2.0.0","230880","pqobvqc3jat","mus","hamster","21","female","yes","yes","5","10","397","stimuli/pictures/bird_hawk_1.jpg","0","0","","true","no","sound","stimuli/sounds/drum_label_A.wav",""
"","","","","","audio-keyboard-response","231","2.0.0","231049","pqobvqc3jat","mus","hamster","21","female","yes","yes","5","10","168","stimuli/sounds/bleep.wav","0","","","","","","",""
"","","","","","html-keyboard-response","232","2.0.0","231229","pqobvqc3jat","mus","hamster","21","female","yes","yes","5","10","73","<div style=""font-size:30px;"">Press space to start the trial</div>"," ","","","","","","",""
"","","","","","html-keyboard-response","233","2.0.0","231485","pqobvqc3jat","mus","hamster","21","female","yes","yes","5","10","null","<div style=""font-size:60px;"">+</div>","null","","","","","","",""
"","","","","","audio-keyboard-response","234","2.0.0","232092","pqobvqc3jat","mus","hamster","21","female","yes","yes","5","10","null","stimuli/sounds/piano_sound_A.wav","null","","","","","","",""
"","","","","","html-keyboard-response","235","2.0.0","233102","pqobvqc3jat","mus","hamster","21","female","yes","yes","5","10","null","","null","","","","","","",""
"","","","","","image-keyboard-response","236","2.0.0","233711","pqobvqc3jat","mus","hamster","21","female","yes","yes","5","10","607","stimuli/pictures/piano_electric_2.jpg","1","1","","true","no","sound","stimuli/sounds/piano_sound_A.wav",""
"","","","","","audio-keyboard-response","237","2.0.0","233910","pqobvqc3jat","mus","hamster","21","female","yes","yes","5","10","189","stimuli/sounds/bleep.wav"," ","","","","","","",""
"","","","","","html-keyboard-response","238","2.0.0","234239","pqobvqc3jat","mus","hamster","21","female","yes","yes","5","10","220","<div style=""font-size:30px;"">Press space to start the trial</div>"," ","","","","","","",""
"","","","","","html-keyboard-response","239","2.0.0","234497","pqobvqc3jat","mus","hamster","21","female","yes","yes","5","10","null","<div style=""font-size:60px;"">+</div>","null","","","","","","",""
"","","","","","audio-keyboard-response","240","2.0.0","235093","pqobvqc3jat","mus","hamster","21","female","yes","yes","5","10","null","stimuli/sounds/bird_label_B.wav","null","","","","","","",""
"","","","","","html-keyboard-response","241","2.0.0","236100","pqobvqc3jat","mus","hamster","21","female","yes","yes","5","10","null","","null","","","","","","",""
"","","","","","image-keyboard-response","242","2.0.0","236599","pqobvqc3jat","mus","hamster","21","female","yes","yes","5","10","497","stimuli/pictures/phone_rotary_1.jpg","0","0","","true","no","sound","stimuli/sounds/bird_label_B.wav",""
"","","","","","audio-keyboard-response","243","2.0.0","236789","pqobvqc3jat","mus","hamster","21","female","yes","yes","5","10","181","stimuli/sounds/bleep.wav","0","","","","","","",""
"","","","","","html-keyboard-response","244","2.0.0","237100","pqobvqc3jat","mus","hamster","21","female","yes","yes","5","10","208","<div style=""font-size:30px;"">Press space to start the trial</div>"," ","","","","","","",""
"","","","","","html-keyboard-response","245","2.0.0","237362","pqobvqc3jat","mus","hamster","21","female","yes","yes","5","10","null","<div style=""font-size:60px;"">+</div>","null","","","","","","",""
"","","","","","audio-keyboard-response","246","2.0.0","237963","pqobvqc3jat","mus","hamster","21","female","yes","yes","5","10","null","stimuli/sounds/phone_sound_B.wav","null","","","","","","",""
"","","","","","html-keyboard-response","247","2.0.0","238971","pqobvqc3jat","mus","hamster","21","female","yes","yes","5","10","null","","null","","","","","","",""
"","","","","","image-keyboard-response","248","2.0.0","239380","pqobvqc3jat","mus","hamster","21","female","yes","yes","5","10","408","stimuli/pictures/piano_grand_1.jpg","0","0","","true","no","sound","stimuli/sounds/phone_sound_B.wav",""
"","","","","","audio-keyboard-response","249","2.0.0","239569","pqobvqc3jat","mus","hamster","21","female","yes","yes","5","10","179","stimuli/sounds/bleep.wav","0","","","","","","",""
"","","","","","html-keyboard-response","250","2.0.0","239702","pqobvqc3jat","mus","hamster","21","female","yes","yes","5","10","18","<div style=""font-size:30px;"">Press space to start the trial</div>"," ","","","","","","",""
"","","","","","html-keyboard-response","251","2.0.0","239964","pqobvqc3jat","mus","hamster","21","female","yes","yes","5","10","null","<div style=""font-size:60px;"">+</div>","null","","","","","","",""
"","","","","","audio-keyboard-response","252","2.0.0","240563","pqobvqc3jat","mus","hamster","21","female","yes","yes","5","10","null","stimuli/sounds/bird_sound_B.wav","null","","","","","","",""
"","","","","","html-keyboard-response","253","2.0.0","241572","pqobvqc3jat","mus","hamster","21","female","yes","yes","5","10","null","","null","","","","","","",""
"","","","","","image-keyboard-response","254","2.0.0","242300","pqobvqc3jat","mus","hamster","21","female","yes","yes","5","10","726","stimuli/pictures/bird_song_2.jpg","1","1","","true","yes","sound","stimuli/sounds/bird_sound_B.wav",""
"","","","","","audio-keyboard-response","255","2.0.0","242550","pqobvqc3jat","mus","hamster","21","female","yes","yes","5","10","251","stimuli/sounds/bleep.wav"," ","","","","","","",""
"","","","","","html-keyboard-response","256","2.0.0","242849","pqobvqc3jat","mus","hamster","21","female","yes","yes","5","10","192","<div style=""font-size:30px;"">Press space to start the trial</div>"," ","","","","","","",""
"","","","","","html-keyboard-response","257","2.0.0","243114","pqobvqc3jat","mus","hamster","21","female","yes","yes","5","10","null","<div style=""font-size:60px;"">+</div>","null","","","","","","",""
"","","","","","audio-keyboard-response","258","2.0.0","243713","pqobvqc3jat","mus","hamster","21","female","yes","yes","5","10","null","stimuli/sounds/bird_label_B.wav","null","","","","","","",""
"","","","","","html-keyboard-response","259","2.0.0","244716","pqobvqc3jat","mus","hamster","21","female","yes","yes","5","10","null","","null","","","","","","",""
"","","","","","image-keyboard-response","260","2.0.0","245210","pqobvqc3jat","mus","hamster","21","female","yes","yes","5","10","493","stimuli/pictures/bird_hawk_1.jpg","0","1","","false","yes","sound","stimuli/sounds/bird_label_B.wav",""
"","","","","","audio-keyboard-response","261","2.0.0","245399","pqobvqc3jat","mus","hamster","21","female","yes","yes","5","10","181","stimuli/sounds/buzz.wav","0","","","","","","",""
"","","","","","html-keyboard-response","262","2.0.0","246390","pqobvqc3jat","mus","hamster","21","female","yes","yes","5","10","885","<div style=""font-size:30px;"">Press space to start the trial</div>"," ","","","","","","",""
"","","","","","html-keyboard-response","263","2.0.0","246652","pqobvqc3jat","mus","hamster","21","female","yes","yes","5","10","null","<div style=""font-size:60px;"">+</div>","null","","","","","","",""
"","","","","","audio-keyboard-response","264","2.0.0","247253","pqobvqc3jat","mus","hamster","21","female","yes","yes","5","10","null","stimuli/sounds/bird_label_B.wav","null","","","","","","",""
"","","","","","html-keyboard-response","265","2.0.0","248265","pqobvqc3jat","mus","hamster","21","female","yes","yes","5","10","null","","null","","","","","","",""
"","","","","","image-keyboard-response","266","2.0.0","248761","pqobvqc3jat","mus","hamster","21","female","yes","yes","5","10","492","stimuli/pictures/bird_hawk_1.jpg","1","1","","true","yes","sound","stimuli/sounds/bird_label_B.wav",""
"","","","","","audio-keyboard-response","267","2.0.0","249310","pqobvqc3jat","mus","hamster","21","female","yes","yes","5","10","541","stimuli/sounds/bleep.wav"," ","","","","","","",""
"","","","","","html-keyboard-response","268","2.0.0","250771","pqobvqc3jat","mus","hamster","21","female","yes","yes","5","10","1348","<p>You have completed a block. Press R when you are ready to continue</p>","R","","","","","","",""
"","","","","","html-keyboard-response","269","2.0.0","251431","pqobvqc3jat","mus","hamster","21","female","yes","yes","5","10","658","<div style=""font-size:30px;"">Press space to start the trial</div>"," ","","","","","","",""
"","","","","","html-keyboard-response","270","2.0.0","251694","pqobvqc3jat","mus","hamster","21","female","yes","yes","5","10","null","<div style=""font-size:60px;"">+</div>","null","","","","","","",""
"","","","","","audio-keyboard-response","271","2.0.0","252293","pqobvqc3jat","mus","hamster","21","female","yes","yes","5","10","null","stimuli/sounds/bird_sound_A.wav","null","","","","","","",""
"","","","","","html-keyboard-response","272","2.0.0","253297","pqobvqc3jat","mus","hamster","21","female","yes","yes","5","10","null","","null","","","","","","",""
"","","","","","image-keyboard-response","273","2.0.0","253803","pqobvqc3jat","mus","hamster","21","female","yes","yes","5","10","502","stimuli/pictures/piano_electric_2.jpg","1","0","","false","no","sound","stimuli/sounds/bird_sound_A.wav",""
"","","","","","audio-keyboard-response","274","2.0.0","254815","pqobvqc3jat","mus","hamster","21","female","yes","yes","5","10","null","stimuli/sounds/buzz.wav","null","","","","","","",""
"","","","","","html-keyboard-response","275","2.0.0","255370","pqobvqc3jat","mus","hamster","21","female","yes","yes","5","10","442","<div style=""font-size:30px;"">Press space to start the trial</div>"," ","","","","","","",""
"","","","","","html-keyboard-response","276","2.0.0","255628","pqobvqc3jat","mus","hamster","21","female","yes","yes","5","10","null","<div style=""font-size:60px;"">+</div>","null","","","","","","",""
"","","","","","audio-keyboard-response","277","2.0.0","256233","pqobvqc3jat","mus","hamster","21","female","yes","yes","5","10","null","stimuli/sounds/flute_label_A.wav","null","","","","","","",""
"","","","","","html-keyboard-response","278","2.0.0","257241","pqobvqc3jat","mus","hamster","21","female","yes","yes","5","10","null","","null","","","","","","",""
"","","","","","image-keyboard-response","279","2.0.0","257919","pqobvqc3jat","mus","hamster","21","female","yes","yes","5","10","676","stimuli/pictures/flute_wooden_1.jpg","0","1","","false","yes","sound","stimuli/sounds/flute_label_A.wav",""
"","","","","","audio-keyboard-response","280","2.0.0","258934","pqobvqc3jat","mus","hamster","21","female","yes","yes","5","10","null","stimuli/sounds/buzz.wav","null","","","","","","",""
"","","","","","html-keyboard-response","281","2.0.0","259473","pqobvqc3jat","mus","hamster","21","female","yes","yes","5","10","422","<div style=""font-size:30px;"">Press space to start the trial</div>"," ","","","","","","",""
"","","","","","html-keyboard-response","282","2.0.0","259726","pqobvqc3jat","mus","hamster","21","female","yes","yes","5","10","null","<div style=""font-size:60px;"">+</div>","null","","","","","","",""
"","","","","","audio-keyboard-response","283","2.0.0","260323","pqobvqc3jat","mus","hamster","21","female","yes","yes","5","10","null","stimuli/sounds/phone_sound_B.wav","null","","","","","","",""
"","","","","","html-keyboard-response","284","2.0.0","261325","pqobvqc3jat","mus","hamster","21","female","yes","yes","5","10","null","","null","","","","","","",""
"","","","","","image-keyboard-response","285","2.0.0","261843","pqobvqc3jat","mus","hamster","21","female","yes","yes","5","10","515","stimuli/pictures/piano_electric_2.jpg","0","0","","true","no","sound","stimuli/sounds/phone_sound_B.wav",""
"","","","","","audio-keyboard-response","286","2.0.0","262856","pqobvqc3jat","mus","hamster","21","female","yes","yes","5","10","null","stimuli/sounds/bleep.wav","null","","","","","","",""
"","","","","","html-keyboard-response","287","2.0.0","263311","pqobvqc3jat","mus","hamster","21","female","yes","yes","5","10","343","<div style=""font-size:30px;"">Press space to start the trial</div>"," ","","","","","","",""
"","","","","","html-keyboard-response","288","2.0.0","263567","pqobvqc3jat","mus","hamster","21","female","yes","yes","5","10","null","<div style=""font-size:60px;"">+</div>","null","","","","","","",""
"","","","","","audio-keyboard-response","289","2.0.0","264162","pqobvqc3jat","mus","hamster","21","female","yes","yes","5","10","null","stimuli/sounds/drum_sound_B.wav","null","","","","","","",""
"","","","","","html-keyboard-response","290","2.0.0","265172","pqobvqc3jat","mus","hamster","21","female","yes","yes","5","10","null","","null","","","","","","",""
"","","","","","image-keyboard-response","291","2.0.0","265710","pqobvqc3jat","mus","hamster","21","female","yes","yes","5","10","535","stimuli/pictures/drum_bongo_1.jpg","1","1","","true","yes","sound","stimuli/sounds/drum_sound_B.wav",""
"","","","","","audio-keyboard-response","292","2.0.0","266714","pqobvqc3jat","mus","hamster","21","female","yes","yes","5","10","null","stimuli/sounds/bleep.wav","null","","","","","","",""
"","","","","","html-keyboard-response","293","2.0.0","267242","pqobvqc3jat","mus","hamster","21","female","yes","yes","5","10","417","<div style=""font-size:30px;"">Press space to start the trial</div>"," ","","","","","","",""
"","","","","","html-keyboard-response","294","2.0.0","267494","pqobvqc3jat","mus","hamster","21","female","yes","yes","5","10","null","<div style=""font-size:60px;"">+</div>","null","","","","","","",""
"","","","","","audio-keyboard-response","295","2.0.0","268092","pqobvqc3jat","mus","hamster","21","female","yes","yes","5","10","null","stimuli/sounds/drum_sound_B.wav","null","","","","","","",""
"","","","","","html-keyboard-response","296","2.0.0","269094","pqobvqc3jat","mus","hamster","21","female","yes","yes","5","10","null","","null","","","","","","",""
"","","","","","image-keyboard-response","297","2.0.0","269490","pqobvqc3jat","mus","hamster","21","female","yes","yes","5","10","394","stimuli/pictures/drum_kit_2.jpg","0","1","","false","no","sound","stimuli/sounds/drum_sound_B.wav",""
"","","","","","audio-keyboard-response","298","2.0.0","269589","pqobvqc3jat","mus","hamster","21","female","yes","yes","5","10","93","stimuli/sounds/buzz.wav"," ","","","","","","",""
"","","","","","html-keyboard-response","299","2.0.0","270369","pqobvqc3jat","mus","hamster","21","female","yes","yes","5","10","664","<div style=""font-size:30px;"">Press space to start the trial</div>"," ","","","","","","",""
"","","","","","html-keyboard-response","300","2.0.0","270626","pqobvqc3jat","mus","hamster","21","female","yes","yes","5","10","null","<div style=""font-size:60px;"">+</div>","null","","","","","","",""
"","","","","","audio-keyboard-response","301","2.0.0","271222","pqobvqc3jat","mus","hamster","21","female","yes","yes","5","10","null","stimuli/sounds/drum_label_A.wav","null","","","","","","",""
"","","","","","html-keyboard-response","302","2.0.0","272229","pqobvqc3jat","mus","hamster","21","female","yes","yes","5","10","null","","null","","","","","","",""
"","","","","","image-keyboard-response","303","2.0.0","272780","pqobvqc3jat","mus","hamster","21","female","yes","yes","5","10","549","stimuli/pictures/bird_song_2.jpg","0","0","","true","no","sound","stimuli/sounds/drum_label_A.wav",""
"","","","","","audio-keyboard-response","304","2.0.0","273170","pqobvqc3jat","mus","hamster","21","female","yes","yes","5","10","379","stimuli/sounds/bleep.wav"," ","","","","","","",""
"","","","","","html-keyboard-response","305","2.0.0","273390","pqobvqc3jat","mus","hamster","21","female","yes","yes","5","10","111","<div style=""font-size:30px;"">Press space to start the trial</div>"," ","","","","","","",""
"","","","","","html-keyboard-response","306","2.0.0","273643","pqobvqc3jat","mus","hamster","21","female","yes","yes","5","10","null","<div style=""font-size:60px;"">+</div>","null","","","","","","",""
"","","","","","audio-keyboard-response","307","2.0.0","274243","pqobvqc3jat","mus","hamster","21","female","yes","yes","5","10","null","stimuli/sounds/drum_label_A.wav","null","","","","","","",""
"","","","","","html-keyboard-response","308","2.0.0","275259","pqobvqc3jat","mus","hamster","21","female","yes","yes","5","10","null","","null","","","","","","",""
"","","","","","image-keyboard-response","309","2.0.0","275982","pqobvqc3jat","mus","hamster","21","female","yes","yes","5","10","720","stimuli/pictures/drum_bongo_2.jpg","1","1","","true","yes","sound","stimuli/sounds/drum_label_A.wav",""
"","","","","","audio-keyboard-response","310","2.0.0","276209","pqobvqc3jat","mus","hamster","21","female","yes","yes","5","10","219","stimuli/sounds/bleep.wav"," ","","","","","","",""
"","","","","","html-keyboard-response","311","2.0.0","276410","pqobvqc3jat","mus","hamster","21","female","yes","yes","5","10","84","<div style=""font-size:30px;"">Press space to start the trial</div>"," ","","","","","","",""
"","","","","","html-keyboard-response","312","2.0.0","276673","pqobvqc3jat","mus","hamster","21","female","yes","yes","5","10","null","<div style=""font-size:60px;"">+</div>","null","","","","","","",""
"","","","","","audio-keyboard-response","313","2.0.0","277283","pqobvqc3jat","mus","hamster","21","female","yes","yes","5","10","null","stimuli/sounds/flute_label_A.wav","null","","","","","","",""
"","","","","","html-keyboard-response","314","2.0.0","278297","pqobvqc3jat","mus","hamster","21","female","yes","yes","5","10","null","","null","","","","","","",""
"","","","","","image-keyboard-response","315","2.0.0","280121","pqobvqc3jat","mus","hamster","21","female","yes","yes","5","10","1821","stimuli/pictures/piano_electric_1.jpg","0","0","","true","no","sound","stimuli/sounds/flute_label_A.wav",""
"","","","","","audio-keyboard-response","316","2.0.0","280601","pqobvqc3jat","mus","hamster","21","female","yes","yes","5","10","472","stimuli/sounds/bleep.wav","0","","","","","","",""
"","","","","","html-keyboard-response","317","2.0.0","280970","pqobvqc3jat","mus","hamster","21","female","yes","yes","5","10","263","<div style=""font-size:30px;"">Press space to start the trial</div>"," ","","","","","","",""
"","","","","","html-keyboard-response","318","2.0.0","281228","pqobvqc3jat","mus","hamster","21","female","yes","yes","5","10","null","<div style=""font-size:60px;"">+</div>","null","","","","","","",""
"","","","","","audio-keyboard-response","319","2.0.0","281822","pqobvqc3jat","mus","hamster","21","female","yes","yes","5","10","null","stimuli/sounds/bird_label_B.wav","null","","","","","","",""
"","","","","","html-keyboard-response","320","2.0.0","282839","pqobvqc3jat","mus","hamster","21","female","yes","yes","5","10","null","","null","","","","","","",""
"","","","","","image-keyboard-response","321","2.0.0","283390","pqobvqc3jat","mus","hamster","21","female","yes","yes","5","10","550","stimuli/pictures/bird_song_2.jpg","1","1","","true","yes","sound","stimuli/sounds/bird_label_B.wav",""
"","","","","","audio-keyboard-response","322","2.0.0","283640","pqobvqc3jat","mus","hamster","21","female","yes","yes","5","10","240","stimuli/sounds/bleep.wav"," ","","","","","","",""
"","","","","","html-keyboard-response","323","2.0.0","283851","pqobvqc3jat","mus","hamster","21","female","yes","yes","5","10","108","<div style=""font-size:30px;"">Press space to start the trial</div>"," ","","","","","","",""
"","","","","","html-keyboard-response","324","2.0.0","284118","pqobvqc3jat","mus","hamster","21","female","yes","yes","5","10","null","<div style=""font-size:60px;"">+</div>","null","","","","","","",""
"","","","","","audio-keyboard-response","325","2.0.0","284713","pqobvqc3jat","mus","hamster","21","female","yes","yes","5","10","null","stimuli/sounds/bird_label_A.wav","null","","","","","","",""
"","","","","","html-keyboard-response","326","2.0.0","285718","pqobvqc3jat","mus","hamster","21","female","yes","yes","5","10","null","","null","","","","","","",""
"","","","","","image-keyboard-response","327","2.0.0","286303","pqobvqc3jat","mus","hamster","21","female","yes","yes","5","10","581","stimuli/pictures/bird_hawk_1.jpg","0","1","","false","yes","sound","stimuli/sounds/bird_label_A.wav",""
"","","","","","audio-keyboard-response","328","2.0.0","286852","pqobvqc3jat","mus","hamster","21","female","yes","yes","5","10","539","stimuli/sounds/buzz.wav"," ","","","","","","",""
"","","","","","html-keyboard-response","329","2.0.0","287350","pqobvqc3jat","mus","hamster","21","female","yes","yes","5","10","389","<div style=""font-size:30px;"">Press space to start the trial</div>"," ","","","","","","",""
"","","","","","html-keyboard-response","330","2.0.0","287617","pqobvqc3jat","mus","hamster","21","female","yes","yes","5","10","null","<div style=""font-size:60px;"">+</div>","null","","","","","","",""
"","","","","","audio-keyboard-response","331","2.0.0","288223","pqobvqc3jat","mus","hamster","21","female","yes","yes","5","10","null","stimuli/sounds/piano_sound_A.wav","null","","","","","","",""
"","","","","","html-keyboard-response","332","2.0.0","289226","pqobvqc3jat","mus","hamster","21","female","yes","yes","5","10","null","","null","","","","","","",""
"","","","","","image-keyboard-response","333","2.0.0","289842","pqobvqc3jat","mus","hamster","21","female","yes","yes","5","10","614","stimuli/pictures/piano_grand_2.jpg","1","1","","true","yes","sound","stimuli/sounds/piano_sound_A.wav",""
"","","","","","audio-keyboard-response","334","2.0.0","290130","pqobvqc3jat","mus","hamster","21","female","yes","yes","5","10","280","stimuli/sounds/bleep.wav"," ","","","","","","",""
"","","","","","html-keyboard-response","335","2.0.0","290320","pqobvqc3jat","mus","hamster","21","female","yes","yes","5","10","79","<div style=""font-size:30px;"">Press space to start the trial</div>"," ","","","","","","",""
"","","","","","html-keyboard-response","336","2.0.0","290581","pqobvqc3jat","mus","hamster","21","female","yes","yes","5","10","null","<div style=""font-size:60px;"">+</div>","null","","","","","","",""
"","","","","","audio-keyboard-response","337","2.0.0","291183","pqobvqc3jat","mus","hamster","21","female","yes","yes","5","10","null","stimuli/sounds/flute_label_A.wav","null","","","","","","",""
"","","","","","html-keyboard-response","338","2.0.0","292193","pqobvqc3jat","mus","hamster","21","female","yes","yes","5","10","null","","null","","","","","","",""
"","","","","","image-keyboard-response","339","2.0.0","292863","pqobvqc3jat","mus","hamster","21","female","yes","yes","5","10","669","stimuli/pictures/flute_metal_2.jpg","1","1","","true","yes","sound","stimuli/sounds/flute_label_A.wav",""
"","","","","","audio-keyboard-response","340","2.0.0","293140","pqobvqc3jat","mus","hamster","21","female","yes","yes","5","10","269","stimuli/sounds/bleep.wav"," ","","","","","","",""
"","","","","","html-keyboard-response","341","2.0.0","293463","pqobvqc3jat","mus","hamster","21","female","yes","yes","5","10","217","<div style=""font-size:30px;"">Press space to start the trial</div>"," ","","","","","","",""
"","","","","","html-keyboard-response","342","2.0.0","293720","pqobvqc3jat","mus","hamster","21","female","yes","yes","5","10","null","<div style=""font-size:60px;"">+</div>","null","","","","","","",""
"","","","","","audio-keyboard-response","343","2.0.0","294313","pqobvqc3jat","mus","hamster","21","female","yes","yes","5","10","null","stimuli/sounds/bird_label_A.wav","null","","","","","","",""
"","","","","","html-keyboard-response","344","2.0.0","295319","pqobvqc3jat","mus","hamster","21","female","yes","yes","5","10","null","","null","","","","","","",""
"","","","","","image-keyboard-response","345","2.0.0","19394622","pqobvqc3jat","mus","hamster","21","female","yes","yes","5","10","19099301","stimuli/pictures/bird_song_2.jpg","0","1","","false","yes","sound","stimuli/sounds/bird_label_A.wav",""
"","","","","","audio-keyboard-response","346","2.0.0","19395644","pqobvqc3jat","mus","hamster","21","female","yes","yes","5","10","null","stimuli/sounds/buzz.wav","null","","","","","","",""
"","","","","","html-keyboard-response","347","2.0.0","19409802","pqobvqc3jat","mus","hamster","21","female","yes","yes","5","10","14050","<div style=""font-size:30px;"">Press space to start the trial</div>"," ","","","","","","",""
"","","","","","html-keyboard-response","348","2.0.0","19410065","pqobvqc3jat","mus","hamster","21","female","yes","yes","5","10","null","<div style=""font-size:60px;"">+</div>","null","","","","","","",""
"","","","","","audio-keyboard-response","349","2.0.0","19410669","pqobvqc3jat","mus","hamster","21","female","yes","yes","5","10","null","stimuli/sounds/flute_sound_A.wav","null","","","","","","",""
"","","","","","html-keyboard-response","350","2.0.0","19411685","pqobvqc3jat","mus","hamster","21","female","yes","yes","5","10","null","","null","","","","","","",""
"","","","","","image-keyboard-response","351","2.0.0","19413271","pqobvqc3jat","mus","hamster","21","female","yes","yes","5","10","1584","stimuli/pictures/phone_rotary_1.jpg","0","0","","true","no","sound","stimuli/sounds/flute_sound_A.wav",""
"","","","","","audio-keyboard-response","352","2.0.0","19413871","pqobvqc3jat","mus","hamster","21","female","yes","yes","5","10","600","stimuli/sounds/bleep.wav"," ","","","","","","",""
"","","","","","html-keyboard-response","353","2.0.0","19415040","pqobvqc3jat","mus","hamster","21","female","yes","yes","5","10","1061","<div style=""font-size:30px;"">Press space to start the trial</div>"," ","","","","","","",""
"","","","","","html-keyboard-response","354","2.0.0","19415294","pqobvqc3jat","mus","hamster","21","female","yes","yes","5","10","null","<div style=""font-size:60px;"">+</div>","null","","","","","","",""
"","","","","","audio-keyboard-response","355","2.0.0","19415899","pqobvqc3jat","mus","hamster","21","female","yes","yes","5","10","null","stimuli/sounds/flute_sound_B.wav","null","","","","","","",""
"","","","","","html-keyboard-response","356","2.0.0","19416908","pqobvqc3jat","mus","hamster","21","female","yes","yes","5","10","null","","null","","","","","","",""
"","","","","","image-keyboard-response","357","2.0.0","19418111","pqobvqc3jat","mus","hamster","21","female","yes","yes","5","10","1200","stimuli/pictures/flute_metal_2.jpg","1","1","","true","no","sound","stimuli/sounds/flute_sound_B.wav",""
"","","","","","audio-keyboard-response","358","2.0.0","19419129","pqobvqc3jat","mus","hamster","21","female","yes","yes","5","10","null","stimuli/sounds/bleep.wav","null","","","","","","",""
"","","","","","html-keyboard-response","359","2.0.0","19422452","pqobvqc3jat","mus","hamster","21","female","yes","yes","5","10","3211","<div style=""font-size:30px;"">Press space to start the trial</div>"," ","","","","","","",""
"","","","","","html-keyboard-response","360","2.0.0","19422713","pqobvqc3jat","mus","hamster","21","female","yes","yes","5","10","null","<div style=""font-size:60px;"">+</div>","null","","","","","","",""
"","","","","","audio-keyboard-response","361","2.0.0","19423309","pqobvqc3jat","mus","hamster","21","female","yes","yes","5","10","null","stimuli/sounds/phone_sound_B.wav","null","","","","","","",""
"","","","","","html-keyboard-response","362","2.0.0","19424314","pqobvqc3jat","mus","hamster","21","female","yes","yes","5","10","null","","null","","","","","","",""
"","","","","","image-keyboard-response","363","2.0.0","19425340","pqobvqc3jat","mus","hamster","21","female","yes","yes","5","10","1024","stimuli/pictures/phone_cell_2.jpg","0","1","","false","no","sound","stimuli/sounds/phone_sound_B.wav",""
"","","","","","audio-keyboard-response","364","2.0.0","19426344","pqobvqc3jat","mus","hamster","21","female","yes","yes","5","10","null","stimuli/sounds/buzz.wav","null","","","","","","",""
"","","","","","html-keyboard-response","365","2.0.0","19427101","pqobvqc3jat","mus","hamster","21","female","yes","yes","5","10","645","<div style=""font-size:30px;"">Press space to start the trial</div>"," ","","","","","","",""
"","","","","","html-keyboard-response","366","2.0.0","19427363","pqobvqc3jat","mus","hamster","21","female","yes","yes","5","10","null","<div style=""font-size:60px;"">+</div>","null","","","","","","",""
"","","","","","audio-keyboard-response","367","2.0.0","19427969","pqobvqc3jat","mus","hamster","21","female","yes","yes","5","10","null","stimuli/sounds/flute_label_B.wav","null","","","","","","",""
"","","","","","html-keyboard-response","368","2.0.0","19428973","pqobvqc3jat","mus","hamster","21","female","yes","yes","5","10","null","","null","","","","","","",""
"","","","","","image-keyboard-response","369","2.0.0","19429983","pqobvqc3jat","mus","hamster","21","female","yes","yes","5","10","1008","stimuli/pictures/drum_bongo_1.jpg","0","0","","true","no","sound","stimuli/sounds/flute_label_B.wav",""
"","","","","","audio-keyboard-response","370","2.0.0","19430994","pqobvqc3jat","mus","hamster","21","female","yes","yes","5","10","null","stimuli/sounds/bleep.wav","null","","","","","","",""
"","","","","","html-keyboard-response","371","2.0.0","19431332","pqobvqc3jat","mus","hamster","21","female","yes","yes","5","10","229","<div style=""font-size:30px;"">Press space to start the trial</div>"," ","","","","","","",""
"","","","","","html-keyboard-response","372","2.0.0","19431598","pqobvqc3jat","mus","hamster","21","female","yes","yes","5","10","null","<div style=""font-size:60px;"">+</div>","null","","","","","","",""
"","","","","","audio-keyboard-response","373","2.0.0","19432229","pqobvqc3jat","mus","hamster","21","female","yes","yes","5","10","null","stimuli/sounds/piano_label_A.wav","null","","","","","","",""
"","","","","","html-keyboard-response","374","2.0.0","19433241","pqobvqc3jat","mus","hamster","21","female","yes","yes","5","10","null","","null","","","","","","",""
"","","","","","image-keyboard-response","375","2.0.0","19434342","pqobvqc3jat","mus","hamster","21","female","yes","yes","5","10","1099","stimuli/pictures/piano_electric_1.jpg","1","1","","true","yes","sound","stimuli/sounds/piano_label_A.wav",""
"","","","","","audio-keyboard-response","376","2.0.0","19435349","pqobvqc3jat","mus","hamster","21","female","yes","yes","5","10","null","stimuli/sounds/bleep.wav","null","","","","","","",""
"","","","","","html-keyboard-response","377","2.0.0","19435952","pqobvqc3jat","mus","hamster","21","female","yes","yes","5","10","498","<div style=""font-size:30px;"">Press space to start the trial</div>"," ","","","","","","",""
"","","","","","html-keyboard-response","378","2.0.0","19436216","pqobvqc3jat","mus","hamster","21","female","yes","yes","5","10","null","<div style=""font-size:60px;"">+</div>","null","","","","","","",""
"","","","","","audio-keyboard-response","379","2.0.0","19436819","pqobvqc3jat","mus","hamster","21","female","yes","yes","5","10","null","stimuli/sounds/flute_sound_A.wav","null","","","","","","",""
"","","","","","html-keyboard-response","380","2.0.0","19437835","pqobvqc3jat","mus","hamster","21","female","yes","yes","5","10","null","","null","","","","","","",""
"","","","","","image-keyboard-response","381","2.0.0","19438711","pqobvqc3jat","mus","hamster","21","female","yes","yes","5","10","874","stimuli/pictures/phone_cell_2.jpg","0","0","","true","no","sound","stimuli/sounds/flute_sound_A.wav",""
"","","","","","audio-keyboard-response","382","2.0.0","19439717","pqobvqc3jat","mus","hamster","21","female","yes","yes","5","10","null","stimuli/sounds/bleep.wav","null","","","","","","",""
"","","","","","html-keyboard-response","383","2.0.0","19440231","pqobvqc3jat","mus","hamster","21","female","yes","yes","5","10","402","<div style=""font-size:30px;"">Press space to start the trial</div>"," ","","","","","","",""
"","","","","","html-keyboard-response","384","2.0.0","19440494","pqobvqc3jat","mus","hamster","21","female","yes","yes","5","10","null","<div style=""font-size:60px;"">+</div>","null","","","","","","",""
"","","","","","audio-keyboard-response","385","2.0.0","19441102","pqobvqc3jat","mus","hamster","21","female","yes","yes","5","10","null","stimuli/sounds/flute_sound_A.wav","null","","","","","","",""
"","","","","","html-keyboard-response","386","2.0.0","19442119","pqobvqc3jat","mus","hamster","21","female","yes","yes","5","10","null","","null","","","","","","",""
"","","","","","image-keyboard-response","387","2.0.0","19443122","pqobvqc3jat","mus","hamster","21","female","yes","yes","5","10","1001","stimuli/pictures/flute_wooden_2.jpg","1","1","","true","no","sound","stimuli/sounds/flute_sound_A.wav",""
"","","","","","audio-keyboard-response","388","2.0.0","19444132","pqobvqc3jat","mus","hamster","21","female","yes","yes","5","10","null","stimuli/sounds/bleep.wav","null","","","","","","",""
"","","","","","html-keyboard-response","389","2.0.0","19447451","pqobvqc3jat","mus","hamster","21","female","yes","yes","5","10","3206","<p>You have completed a block. Press R when you are ready to continue</p>","R","","","","","","",""
"","","","","","html-keyboard-response","390","2.0.0","19448262","pqobvqc3jat","mus","hamster","21","female","yes","yes","5","10","810","<div style=""font-size:30px;"">Press space to start the trial</div>"," ","","","","","","",""
"","","","","","html-keyboard-response","391","2.0.0","19448514","pqobvqc3jat","mus","hamster","21","female","yes","yes","5","10","null","<div style=""font-size:60px;"">+</div>","null","","","","","","",""
"","","","","","audio-keyboard-response","392","2.0.0","19449109","pqobvqc3jat","mus","hamster","21","female","yes","yes","5","10","null","stimuli/sounds/drum_label_A.wav","null","","","","","","",""
"","","","","","html-keyboard-response","393","2.0.0","19450113","pqobvqc3jat","mus","hamster","21","female","yes","yes","5","10","null","","null","","","","","","",""
"","","","","","image-keyboard-response","394","2.0.0","19450971","pqobvqc3jat","mus","hamster","21","female","yes","yes","5","10","855","stimuli/pictures/drum_bongo_1.jpg","1","1","","true","yes","sound","stimuli/sounds/drum_label_A.wav",""
"","","","","","audio-keyboard-response","395","2.0.0","19451980","pqobvqc3jat","mus","hamster","21","female","yes","yes","5","10","null","stimuli/sounds/bleep.wav","null","","","","","","",""
"","","","","","html-keyboard-response","396","2.0.0","19452271","pqobvqc3jat","mus","hamster","21","female","yes","yes","5","10","179","<div style=""font-size:30px;"">Press space to start the trial</div>"," ","","","","","","",""
"","","","","","html-keyboard-response","397","2.0.0","19452534","pqobvqc3jat","mus","hamster","21","female","yes","yes","5","10","null","<div style=""font-size:60px;"">+</div>","null","","","","","","",""
"","","","","","audio-keyboard-response","398","2.0.0","19453129","pqobvqc3jat","mus","hamster","21","female","yes","yes","5","10","null","stimuli/sounds/bird_sound_B.wav","null","","","","","","",""
"","","","","","html-keyboard-response","399","2.0.0","19454133","pqobvqc3jat","mus","hamster","21","female","yes","yes","5","10","null","","null","","","","","","",""
"","","","","","image-keyboard-response","400","2.0.0","19454891","pqobvqc3jat","mus","hamster","21","female","yes","yes","5","10","757","stimuli/pictures/bird_song_1.jpg","1","1","","true","yes","sound","stimuli/sounds/bird_sound_B.wav",""
"","","","","","audio-keyboard-response","401","2.0.0","19455902","pqobvqc3jat","mus","hamster","21","female","yes","yes","5","10","null","stimuli/sounds/bleep.wav","null","","","","","","",""
"","","","","","html-keyboard-response","402","2.0.0","19456181","pqobvqc3jat","mus","hamster","21","female","yes","yes","5","10","168","<div style=""font-size:30px;"">Press space to start the trial</div>"," ","","","","","","",""
"","","","","","html-keyboard-response","403","2.0.0","19456444","pqobvqc3jat","mus","hamster","21","female","yes","yes","5","10","null","<div style=""font-size:60px;"">+</div>","null","","","","","","",""
"","","","","","audio-keyboard-response","404","2.0.0","19457049","pqobvqc3jat","mus","hamster","21","female","yes","yes","5","10","null","stimuli/sounds/flute_label_A.wav","null","","","","","","",""
"","","","","","html-keyboard-response","405","2.0.0","19458052","pqobvqc3jat","mus","hamster","21","female","yes","yes","5","10","null","","null","","","","","","",""
"","","","","","image-keyboard-response","406","2.0.0","19458932","pqobvqc3jat","mus","hamster","21","female","yes","yes","5","10","877","stimuli/pictures/piano_grand_1.jpg","0","0","","true","no","sound","stimuli/sounds/flute_label_A.wav",""
"","","","","","audio-keyboard-response","407","2.0.0","19459011","pqobvqc3jat","mus","hamster","21","female","yes","yes","5","10","80","stimuli/sounds/bleep.wav"," ","","","","","","",""
"","","","","","html-keyboard-response","408","2.0.0","19459521","pqobvqc3jat","mus","hamster","21","female","yes","yes","5","10","400","<div style=""font-size:30px;"">Press space to start the trial</div>"," ","","","","","","",""
"","","","","","html-keyboard-response","409","2.0.0","19459773","pqobvqc3jat","mus","hamster","21","female","yes","yes","5","10","null","<div style=""font-size:60px;"">+</div>","null","","","","","","",""
"","","","","","audio-keyboard-response","410","2.0.0","19460379","pqobvqc3jat","mus","hamster","21","female","yes","yes","5","10","null","stimuli/sounds/flute_sound_B.wav","null","","","","","","",""
"","","","","","html-keyboard-response","411","2.0.0","19461391","pqobvqc3jat","mus","hamster","21","female","yes","yes","5","10","null","","null","","","","","","",""
"","","","","","image-keyboard-response","412","2.0.0","19462071","pqobvqc3jat","mus","hamster","21","female","yes","yes","5","10","679","stimuli/pictures/flute_wooden_1.jpg","1","1","","true","yes","sound","stimuli/sounds/flute_sound_B.wav",""
"","","","","","audio-keyboard-response","413","2.0.0","19462632","pqobvqc3jat","mus","hamster","21","female","yes","yes","5","10","560","stimuli/sounds/bleep.wav"," ","","","","","","",""
"","","","","","html-keyboard-response","414","2.0.0","19462990","pqobvqc3jat","mus","hamster","21","female","yes","yes","5","10","250","<div style=""font-size:30px;"">Press space to start the trial</div>"," ","","","","","","",""
"","","","","","html-keyboard-response","415","2.0.0","19463259","pqobvqc3jat","mus","hamster","21","female","yes","yes","5","10","null","<div style=""font-size:60px;"">+</div>","null","","","","","","",""
"","","","","","audio-keyboard-response","416","2.0.0","19463859","pqobvqc3jat","mus","hamster","21","female","yes","yes","5","10","null","stimuli/sounds/drum_label_B.wav","null","","","","","","",""
"","","","","","html-keyboard-response","417","2.0.0","19464867","pqobvqc3jat","mus","hamster","21","female","yes","yes","5","10","null","","null","","","","","","",""
"","","","","","image-keyboard-response","418","2.0.0","19465771","pqobvqc3jat","mus","hamster","21","female","yes","yes","5","10","904","stimuli/pictures/piano_electric_2.jpg","0","0","","true","no","sound","stimuli/sounds/drum_label_B.wav",""
"","","","","","audio-keyboard-response","419","2.0.0","19465871","pqobvqc3jat","mus","hamster","21","female","yes","yes","5","10","99","stimuli/sounds/bleep.wav"," ","","","","","","",""
"","","","","","html-keyboard-response","420","2.0.0","19466240","pqobvqc3jat","mus","hamster","21","female","yes","yes","5","10","259","<div style=""font-size:30px;"">Press space to start the trial</div>"," ","","","","","","",""
"","","","","","html-keyboard-response","421","2.0.0","19466493","pqobvqc3jat","mus","hamster","21","female","yes","yes","5","10","null","<div style=""font-size:60px;"">+</div>","null","","","","","","",""
"","","","","","audio-keyboard-response","422","2.0.0","19467089","pqobvqc3jat","mus","hamster","21","female","yes","yes","5","10","null","stimuli/sounds/drum_sound_B.wav","null","","","","","","",""
"","","","","","html-keyboard-response","423","2.0.0","19468094","pqobvqc3jat","mus","hamster","21","female","yes","yes","5","10","null","","null","","","","","","",""
"","","","","","image-keyboard-response","424","2.0.0","19468762","pqobvqc3jat","mus","hamster","21","female","yes","yes","5","10","667","stimuli/pictures/drum_bongo_2.jpg","1","1","","true","yes","sound","stimuli/sounds/drum_sound_B.wav",""
"","","","","","audio-keyboard-response","425","2.0.0","19468930","pqobvqc3jat","mus","hamster","21","female","yes","yes","5","10","171","stimuli/sounds/bleep.wav","1","","","","","","",""
"","","","","","html-keyboard-response","426","2.0.0","19469391","pqobvqc3jat","mus","hamster","21","female","yes","yes","5","10","345","<div style=""font-size:30px;"">Press space to start the trial</div>"," ","","","","","","",""
"","","","","","html-keyboard-response","427","2.0.0","19469654","pqobvqc3jat","mus","hamster","21","female","yes","yes","5","10","null","<div style=""font-size:60px;"">+</div>","null","","","","","","",""
"","","","","","audio-keyboard-response","428","2.0.0","19470259","pqobvqc3jat","mus","hamster","21","female","yes","yes","5","10","null","stimuli/sounds/piano_sound_B.wav","null","","","","","","",""
"","","","","","html-keyboard-response","429","2.0.0","19471271","pqobvqc3jat","mus","hamster","21","female","yes","yes","5","10","null","","null","","","","","","",""
"","","","","","image-keyboard-response","430","2.0.0","19473671","pqobvqc3jat","mus","hamster","21","female","yes","yes","5","10","2397","stimuli/pictures/piano_electric_2.jpg","0","1","","false","yes","sound","stimuli/sounds/piano_sound_B.wav",""
"","","","","","audio-keyboard-response","431","2.0.0","19473931","pqobvqc3jat","mus","hamster","21","female","yes","yes","5","10","261","stimuli/sounds/buzz.wav"," ","","","","","","",""
"","","","","","html-keyboard-response","432","2.0.0","19474101","pqobvqc3jat","mus","hamster","21","female","yes","yes","5","10","62","<div style=""font-size:30px;"">Press space to start the trial</div>"," ","","","","","","",""
"","","","","","html-keyboard-response","433","2.0.0","19474360","pqobvqc3jat","mus","hamster","21","female","yes","yes","5","10","null","<div style=""font-size:60px;"">+</div>","null","","","","","","",""
"","","","","","audio-keyboard-response","434","2.0.0","19474969","pqobvqc3jat","mus","hamster","21","female","yes","yes","5","10","null","stimuli/sounds/flute_label_B.wav","null","","","","","","",""
"","","","","","html-keyboard-response","435","2.0.0","19475979","pqobvqc3jat","mus","hamster","21","female","yes","yes","5","10","null","","null","","","","","","",""
"","","","","","image-keyboard-response","436","2.0.0","19477172","pqobvqc3jat","mus","hamster","21","female","yes","yes","5","10","1192","stimuli/pictures/flute_wooden_2.jpg","1","1","","true","yes","sound","stimuli/sounds/flute_label_B.wav",""
"","","","","","audio-keyboard-response","437","2.0.0","19477471","pqobvqc3jat","mus","hamster","21","female","yes","yes","5","10","299","stimuli/sounds/bleep.wav","1","","","","","","",""
"","","","","","html-keyboard-response","438","2.0.0","19477941","pqobvqc3jat","mus","hamster","21","female","yes","yes","5","10","353","<div style=""font-size:30px;"">Press space to start the trial</div>"," ","","","","","","",""
"","","","","","html-keyboard-response","439","2.0.0","19478204","pqobvqc3jat","mus","hamster","21","female","yes","yes","5","10","null","<div style=""font-size:60px;"">+</div>","null","","","","","","",""
"","","","","","audio-keyboard-response","440","2.0.0","19478829","pqobvqc3jat","mus","hamster","21","female","yes","yes","5","10","null","stimuli/sounds/piano_label_A.wav","null","","","","","","",""
"","","","","","html-keyboard-response","441","2.0.0","19479831","pqobvqc3jat","mus","hamster","21","female","yes","yes","5","10","null","","null","","","","","","",""
"","","","","","image-keyboard-response","442","2.0.0","19481211","pqobvqc3jat","mus","hamster","21","female","yes","yes","5","10","1379","stimuli/pictures/phone_cell_1.jpg","0","0","","true","no","sound","stimuli/sounds/piano_label_A.wav",""
"","","","","","audio-keyboard-response","443","2.0.0","19481352","pqobvqc3jat","mus","hamster","21","female","yes","yes","5","10","139","stimuli/sounds/bleep.wav","0","","","","","","",""
"","","","","","html-keyboard-response","444","2.0.0","19481801","pqobvqc3jat","mus","hamster","21","female","yes","yes","5","10","336","<div style=""font-size:30px;"">Press space to start the trial</div>"," ","","","","","","",""
"","","","","","html-keyboard-response","445","2.0.0","19482064","pqobvqc3jat","mus","hamster","21","female","yes","yes","5","10","null","<div style=""font-size:60px;"">+</div>","null","","","","","","",""
"","","","","","audio-keyboard-response","446","2.0.0","19482660","pqobvqc3jat","mus","hamster","21","female","yes","yes","5","10","null","stimuli/sounds/phone_sound_A.wav","null","","","","","","",""
"","","","","","html-keyboard-response","447","2.0.0","19483669","pqobvqc3jat","mus","hamster","21","female","yes","yes","5","10","null","","null","","","","","","",""
"","","","","","image-keyboard-response","448","2.0.0","19484852","pqobvqc3jat","mus","hamster","21","female","yes","yes","5","10","1182","stimuli/pictures/phone_rotary_1.jpg","1","1","","true","no","sound","stimuli/sounds/phone_sound_A.wav",""
"","","","","","audio-keyboard-response","449","2.0.0","19485721","pqobvqc3jat","mus","hamster","21","female","yes","yes","5","10","869","stimuli/sounds/bleep.wav"," ","","","","","","",""
"","","","","","html-keyboard-response","450","2.0.0","19485931","pqobvqc3jat","mus","hamster","21","female","yes","yes","5","10","99","<div style=""font-size:30px;"">Press space to start the trial</div>"," ","","","","","","",""
"","","","","","html-keyboard-response","451","2.0.0","19486193","pqobvqc3jat","mus","hamster","21","female","yes","yes","5","10","null","<div style=""font-size:60px;"">+</div>","null","","","","","","",""
"","","","","","audio-keyboard-response","452","2.0.0","19486789","pqobvqc3jat","mus","hamster","21","female","yes","yes","5","10","null","stimuli/sounds/bird_label_A.wav","null","","","","","","",""
"","","","","","html-keyboard-response","453","2.0.0","19487795","pqobvqc3jat","mus","hamster","21","female","yes","yes","5","10","null","","null","","","","","","",""
"","","","","","image-keyboard-response","454","2.0.0","19489111","pqobvqc3jat","mus","hamster","21","female","yes","yes","5","10","1314","stimuli/pictures/flute_wooden_1.jpg","0","0","","true","no","sound","stimuli/sounds/bird_label_A.wav",""
"","","","","","audio-keyboard-response","455","2.0.0","19490117","pqobvqc3jat","mus","hamster","21","female","yes","yes","5","10","null","stimuli/sounds/bleep.wav","null","","","","","","",""
"","","","","","html-keyboard-response","456","2.0.0","19490842","pqobvqc3jat","mus","hamster","21","female","yes","yes","5","10","614","<div style=""font-size:30px;"">Press space to start the trial</div>"," ","","","","","","",""
"","","","","","html-keyboard-response","457","2.0.0","19491099","pqobvqc3jat","mus","hamster","21","female","yes","yes","5","10","null","<div style=""font-size:60px;"">+</div>","null","","","","","","",""
"","","","","","audio-keyboard-response","458","2.0.0","19491699","pqobvqc3jat","mus","hamster","21","female","yes","yes","5","10","null","stimuli/sounds/phone_label_B.wav","null","","","","","","",""
"","","","","","html-keyboard-response","459","2.0.0","19492712","pqobvqc3jat","mus","hamster","21","female","yes","yes","5","10","null","","null","","","","","","",""
"","","","","","image-keyboard-response","460","2.0.0","19494201","pqobvqc3jat","mus","hamster","21","female","yes","yes","5","10","1488","stimuli/pictures/flute_metal_1.jpg","0","0","","true","no","sound","stimuli/sounds/phone_label_B.wav",""
"","","","","","audio-keyboard-response","461","2.0.0","19494352","pqobvqc3jat","mus","hamster","21","female","yes","yes","5","10","149","stimuli/sounds/bleep.wav","0","","","","","","",""
"","","","","","html-keyboard-response","462","2.0.0","19494540","pqobvqc3jat","mus","hamster","21","female","yes","yes","5","10","86","<div style=""font-size:30px;"">Press space to start the trial</div>"," ","","","","","","",""
"","","","","","html-keyboard-response","463","2.0.0","19494802","pqobvqc3jat","mus","hamster","21","female","yes","yes","5","10","null","<div style=""font-size:60px;"">+</div>","null","","","","","","",""
"","","","","","audio-keyboard-response","464","2.0.0","19495399","pqobvqc3jat","mus","hamster","21","female","yes","yes","5","10","null","stimuli/sounds/drum_label_B.wav","null","","","","","","",""
"","","","","","html-keyboard-response","465","2.0.0","19496414","pqobvqc3jat","mus","hamster","21","female","yes","yes","5","10","null","","null","","","","","","",""
"","","","","","image-keyboard-response","466","2.0.0","19497661","pqobvqc3jat","mus","hamster","21","female","yes","yes","5","10","1246","stimuli/pictures/drum_kit_2.jpg","1","1","","true","yes","sound","stimuli/sounds/drum_label_B.wav",""
"","","","","","audio-keyboard-response","467","2.0.0","19498021","pqobvqc3jat","mus","hamster","21","female","yes","yes","5","10","360","stimuli/sounds/bleep.wav"," ","","","","","","",""
"","","","","","html-keyboard-response","468","2.0.0","19498213","pqobvqc3jat","mus","hamster","21","female","yes","yes","5","10","86","<div style=""font-size:30px;"">Press space to start the trial</div>"," ","","","","","","",""
"","","","","","html-keyboard-response","469","2.0.0","19498473","pqobvqc3jat","mus","hamster","21","female","yes","yes","5","10","null","<div style=""font-size:60px;"">+</div>","null","","","","","","",""
"","","","","","audio-keyboard-response","470","2.0.0","19499069","pqobvqc3jat","mus","hamster","21","female","yes","yes","5","10","null","stimuli/sounds/bird_sound_B.wav","null","","","","","","",""
"","","","","","html-keyboard-response","471","2.0.0","19500077","pqobvqc3jat","mus","hamster","21","female","yes","yes","5","10","null","","null","","","","","","",""
"","","","","","image-keyboard-response","472","2.0.0","19501022","pqobvqc3jat","mus","hamster","21","female","yes","yes","5","10","943","stimuli/pictures/bird_hawk_1.jpg","1","1","","true","no","sound","stimuli/sounds/bird_sound_B.wav",""
"","","","","","audio-keyboard-response","473","2.0.0","19502039","pqobvqc3jat","mus","hamster","21","female","yes","yes","5","10","null","stimuli/sounds/bleep.wav","null","","","","","","",""
"","","","","","html-keyboard-response","474","2.0.0","19502514","pqobvqc3jat","mus","hamster","21","female","yes","yes","5","10","363","<div style=""font-size:30px;"">Press space to start the trial</div>"," ","","","","","","",""
"","","","","","html-keyboard-response","475","2.0.0","19502775","pqobvqc3jat","mus","hamster","21","female","yes","yes","5","10","null","<div style=""font-size:60px;"">+</div>","null","","","","","","",""
"","","","","","audio-keyboard-response","476","2.0.0","19503380","pqobvqc3jat","mus","hamster","21","female","yes","yes","5","10","null","stimuli/sounds/flute_label_B.wav","null","","","","","","",""
"","","","","","html-keyboard-response","477","2.0.0","19504389","pqobvqc3jat","mus","hamster","21","female","yes","yes","5","10","null","","null","","","","","","",""
"","","","","","image-keyboard-response","478","2.0.0","19504972","pqobvqc3jat","mus","hamster","21","female","yes","yes","5","10","582","stimuli/pictures/flute_metal_2.jpg","1","1","","true","yes","sound","stimuli/sounds/flute_label_B.wav",""
"","","","","","audio-keyboard-response","479","2.0.0","19505311","pqobvqc3jat","mus","hamster","21","female","yes","yes","5","10","339","stimuli/sounds/bleep.wav"," ","","","","","","",""
"","","","","","html-keyboard-response","480","2.0.0","19505502","pqobvqc3jat","mus","hamster","21","female","yes","yes","5","10","84","<div style=""font-size:30px;"">Press space to start the trial</div>"," ","","","","","","",""
