"success","timeout","failed_images","failed_audio","failed_video","trial_type","trial_index","plugin_version","time_elapsed","random_id","condition","participant","age","gender_id","mus_exp","inst_exp","years_exp","mus_listening","rt","stimulus","response","correct_response","practice","correct","congruent","sound_type","audio","question_order"
"true","false","[]","[]","[]","preload","0","2.0.0","201","pr53p8bf9od","ono","gecko","22","female","no","no","0","2 hrs","","","","","","","","","",""
"","","","","","html-keyboard-response","1","2.0.0","1761","pr53p8bf9od","ono","gecko","22","female","no","no","0","2 hrs","1558","Welcome to the experiment! Press any key to begin."," ","","","","","","",""
"true","","","","","fullscreen","2","null","8015","pr53p8bf9od","ono","gecko","22","female","no","no","0","2 hrs","5241","","","","","","","","",""
"","","","","","survey-text","3","2.0.0","11584","pr53p8bf9od","ono","gecko","22","female","no","no","0","2 hrs","3557","","{""participant_id"":""gecko""}","","","","","","",""
"","","","","","html-keyboard-response","4","2.0.0","17527","pr53p8bf9od","ono","gecko","22","female","no","no","0","2 hrs","5941","
    <p> Please use headphones for the duration of the study.</p>
    <p> Within each trial, you will hear a sound and then be presented with an image in the center of your screen.</p>
    <p>Press the <b>'1'</b> key if what you hear <u>matches</u> what you see.</p>
    <p>Press the <b>'0'</b> key if what you hear <u>does not match</u> what you see.</p>
    <p>Try to respond as quickly and accurately as you can.</p>
    <p> Press any key to begin.</p>
    ","AudioVolumeUp","","","","","","",""
"","","","","","html-keyboard-response","5","2.0.0","17743","pr53p8bf9od","ono","gecko","22","female","no","no","0","2 hrs","213","
    <div style=""font-size:28px;"">
      <p>You will now complete 4 short practice trials.</p>
      <p>This is just to help you get familiar with the task.</p>
      <p>Press any key to begin.</p>
    </div>
  ","AudioVolumeUp","","","","","","",""
"","","","","","html-keyboard-response","6","2.0.0","18250","pr53p8bf9od","ono","gecko","22","female","no","no","0","2 hrs","null","<div style=""font-size:60px;"">+</div>","null","","","","","","",""
"","","","","","audio-keyboard-response","7","2.0.0","18965","pr53p8bf9od","ono","gecko","22","female","no","no","0","2 hrs","null","stimuli/sounds/guitar_label_A.wav","null","","","","","","",""
"","","","","","image-keyboard-response","8","2.0.0","20606","pr53p8bf9od","ono","gecko","22","female","no","no","0","2 hrs","1635","stimuli/pictures/guitar_acoustic_1.jpg","1","1","true","true","","","",""
"","","","","","audio-keyboard-response","9","2.0.0","21415","pr53p8bf9od","ono","gecko","22","female","no","no","0","2 hrs","null","stimuli/sounds/bleep.wav","null","","","","","","",""
"","","","","","html-keyboard-response","10","2.0.0","22128","pr53p8bf9od","ono","gecko","22","female","no","no","0","2 hrs","null","<p style='color:green; font-size:30px;'>Correct!</p>","null","","","","","","",""
"","","","","","html-keyboard-response","11","2.0.0","22635","pr53p8bf9od","ono","gecko","22","female","no","no","0","2 hrs","null","<div style=""font-size:60px;"">+</div>","null","","","","","","",""
"","","","","","audio-keyboard-response","12","2.0.0","23235","pr53p8bf9od","ono","gecko","22","female","no","no","0","2 hrs","null","stimuli/sounds/guitar_sound_B.wav","null","","","","","","",""
"","","","","","image-keyboard-response","13","2.0.0","25329","pr53p8bf9od","ono","gecko","22","female","no","no","0","2 hrs","2092","stimuli/pictures/guitar_acoustic_2.jpg","1","1","true","true","","","",""
"","","","","","audio-keyboard-response","14","2.0.0","26140","pr53p8bf9od","ono","gecko","22","female","no","no","0","2 hrs","null","stimuli/sounds/bleep.wav","null","","","","","","",""
"","","","","","html-keyboard-response","15","2.0.0","26850","pr53p8bf9od","ono","gecko","22","female","no","no","0","2 hrs","null","<p style='color:green; font-size:30px;'>Correct!</p>","null","","","","","","",""
"","","","","","html-keyboard-response","16","2.0.0","27365","pr53p8bf9od","ono","gecko","22","female","no","no","0","2 hrs","null","<div style=""font-size:60px;"">+</div>","null","","","","","","",""
"","","","","","audio-keyboard-response","17","2.0.0","27975","pr53p8bf9od","ono","gecko","22","female","no","no","0","2 hrs","null","stimuli/sounds/flute_sound_A.wav","null","","","","","","",""
"","","","","","image-keyboard-response","18","2.0.0","29028","pr53p8bf9od","ono","gecko","22","female","no","no","0","2 hrs","1050","stimuli/pictures/guitar_electric_1.jpg","0","0","true","true","","","",""
"","","","","","audio-keyboard-response","19","2.0.0","29839","pr53p8bf9od","ono","gecko","22","female","no","no","0","2 hrs","null","stimuli/sounds/bleep.wav","null","","","","","","",""
"","","","","","html-keyboard-response","20","2.0.0","30545","pr53p8bf9od","ono","gecko","22","female","no","no","0","2 hrs","null","<p style='color:green; font-size:30px;'>Correct!</p>","null","","","","","","",""
"","","","","","html-keyboard-response","21","2.0.0","31055","pr53p8bf9od","ono","gecko","22","female","no","no","0","2 hrs","null","<div style=""font-size:60px;"">+</div>","null","","","","","","",""
"","","","","","audio-keyboard-response","22","2.0.0","31655","pr53p8bf9od","ono","gecko","22","female","no","no","0","2 hrs","null","stimuli/sounds/guitar_sound_A.wav","null","","","","","","",""
"","","","","","image-keyboard-response","23","2.0.0","32872","pr53p8bf9od","ono","gecko","22","female","no","no","0","2 hrs","1214","stimuli/pictures/guitar_acoustic_1.jpg","0","1","true","false","","","",""
"","","","","","audio-keyboard-response","24","2.0.0","33674","pr53p8bf9od","ono","gecko","22","female","no","no","0","2 hrs","null","stimuli/sounds/buzz.wav","null","","","","","","",""
"","","","","","html-keyboard-response","25","2.0.0","34388","pr53p8bf9od","ono","gecko","22","female","no","no","0","2 hrs","null","<p style='color:red; font-size:30px;'>Incorrect</p>","null","","","","","","",""
"","","","","","html-keyboard-response","26","2.0.0","38932","pr53p8bf9od","ono","gecko","22","female","no","no","0","2 hrs","4542","<p>Practice complete. Press any key to begin the real experiment.</p>","AudioVolumeUp","","","","","","",""
"","","","","","html-keyboard-response","27","2.0.0","50009","pr53p8bf9od","ono","gecko","22","female","no","no","0","2 hrs","11076","<div style=""font-size:30px;"">Press space to start the trial</div>"," ","","","","","","",""
"","","","","","html-keyboard-response","28","2.0.0","50266","pr53p8bf9od","ono","gecko","22","female","no","no","0","2 hrs","null","<div style=""font-size:60px;"">+</div>","null","","","","","","",""
"","","","","","audio-keyboard-response","29","2.0.0","50875","pr53p8bf9od","ono","gecko","22","female","no","no","0","2 hrs","null","stimuli/sounds/hiccup_label_B.wav","null","","","","","","",""
"","","","","","html-keyboard-response","30","2.0.0","51887","pr53p8bf9od","ono","gecko","22","female","no","no","0","2 hrs","null","","null","","","","","","",""
"","","","","","image-keyboard-response","31","2.0.0","55940","pr53p8bf9od","ono","gecko","22","female","no","no","0","2 hrs","4050","stimuli/pictures/hiccup_man_2.jpg","1","1","","true","yes","sound","stimuli/sounds/hiccup_label_B.wav",""
"","","","","","audio-keyboard-response","32","2.0.0","56953","pr53p8bf9od","ono","gecko","22","female","no","no","0","2 hrs","null","stimuli/sounds/bleep.wav","null","","","","","","",""
"","","","","","html-keyboard-response","33","2.0.0","61691","pr53p8bf9od","ono","gecko","22","female","no","no","0","2 hrs","4624","<div style=""font-size:30px;"">Press space to start the trial</div>"," ","","","","","","",""
"","","","","","html-keyboard-response","34","2.0.0","61952","pr53p8bf9od","ono","gecko","22","female","no","no","0","2 hrs","null","<div style=""font-size:60px;"">+</div>","null","","","","","","",""
"","","","","","audio-keyboard-response","35","2.0.0","62495","pr53p8bf9od","ono","gecko","22","female","no","no","0","2 hrs","null","stimuli/sounds/drop_label_A.wav","null","","","","","","",""
"","","","","","html-keyboard-response","36","2.0.0","63509","pr53p8bf9od","ono","gecko","22","female","no","no","0","2 hrs","null","","null","","","","","","",""
"","","","","","image-keyboard-response","37","2.0.0","64958","pr53p8bf9od","ono","gecko","22","female","no","no","0","2 hrs","1446","stimuli/pictures/hiccup_wom_2.jpg","0","0","","true","no","sound","stimuli/sounds/drop_label_A.wav",""
"","","","","","audio-keyboard-response","38","2.0.0","65972","pr53p8bf9od","ono","gecko","22","female","no","no","0","2 hrs","null","stimuli/sounds/bleep.wav","null","","","","","","",""
"","","","","","html-keyboard-response","39","2.0.0","68789","pr53p8bf9od","ono","gecko","22","female","no","no","0","2 hrs","2712","<div style=""font-size:30px;"">Press space to start the trial</div>"," ","","","","","","",""
"","","","","","html-keyboard-response","40","2.0.0","69051","pr53p8bf9od","ono","gecko","22","female","no","no","0","2 hrs","null","<div style=""font-size:60px;"">+</div>","null","","","","","","",""
"","","","","","audio-keyboard-response","41","2.0.0","69645","pr53p8bf9od","ono","gecko","22","female","no","no","0","2 hrs","null","stimuli/sounds/motor_label_A.wav","null","","","","","","",""
"","","","","","html-keyboard-response","42","2.0.0","70651","pr53p8bf9od","ono","gecko","22","female","no","no","0","2 hrs","null","","null","","","","","","",""
"","","","","","image-keyboard-response","43","2.0.0","71733","pr53p8bf9od","ono","gecko","22","female","no","no","0","2 hrs","1080","stimuli/pictures/dog_york_1.jpg","0","0","","true","no","sound","stimuli/sounds/motor_label_A.wav",""
"","","","","","audio-keyboard-response","44","2.0.0","72749","pr53p8bf9od","ono","gecko","22","female","no","no","0","2 hrs","null","stimuli/sounds/bleep.wav","null","","","","","","",""
"","","","","","html-keyboard-response","45","2.0.0","74653","pr53p8bf9od","ono","gecko","22","female","no","no","0","2 hrs","1792","<div style=""font-size:30px;"">Press space to start the trial</div>"," ","","","","","","",""
"","","","","","html-keyboard-response","46","2.0.0","74917","pr53p8bf9od","ono","gecko","22","female","no","no","0","2 hrs","null","<div style=""font-size:60px;"">+</div>","null","","","","","","",""
"","","","","","audio-keyboard-response","47","2.0.0","75525","pr53p8bf9od","ono","gecko","22","female","no","no","0","2 hrs","null","stimuli/sounds/hiccup_sound_B.wav","null","","","","","","",""
"","","","","","html-keyboard-response","48","2.0.0","76536","pr53p8bf9od","ono","gecko","22","female","no","no","0","2 hrs","null","","null","","","","","","",""
"","","","","","image-keyboard-response","49","2.0.0","77503","pr53p8bf9od","ono","gecko","22","female","no","no","0","2 hrs","964","stimuli/pictures/drop_single_2.jpg","0","0","","true","no","sound","stimuli/sounds/hiccup_sound_B.wav",""
"","","","","","audio-keyboard-response","50","2.0.0","78518","pr53p8bf9od","ono","gecko","22","female","no","no","0","2 hrs","null","stimuli/sounds/bleep.wav","null","","","","","","",""
"","","","","","html-keyboard-response","51","2.0.0","80551","pr53p8bf9od","ono","gecko","22","female","no","no","0","2 hrs","1921","<div style=""font-size:30px;"">Press space to start the trial</div>"," ","","","","","","",""
"","","","","","html-keyboard-response","52","2.0.0","80804","pr53p8bf9od","ono","gecko","22","female","no","no","0","2 hrs","null","<div style=""font-size:60px;"">+</div>","null","","","","","","",""
"","","","","","audio-keyboard-response","53","2.0.0","81475","pr53p8bf9od","ono","gecko","22","female","no","no","0","2 hrs","null","stimuli/sounds/cough_sound_A.wav","null","","","","","","",""
"","","","","","html-keyboard-response","54","2.0.0","82483","pr53p8bf9od","ono","gecko","22","female","no","no","0","2 hrs","null","","null","","","","","","",""
"","","","","","image-keyboard-response","55","2.0.0","83492","pr53p8bf9od","ono","gecko","22","female","no","no","0","2 hrs","1006","stimuli/pictures/dog_rott_1.jpg","0","0","","true","no","sound","stimuli/sounds/cough_sound_A.wav",""
"","","","","","audio-keyboard-response","56","2.0.0","84505","pr53p8bf9od","ono","gecko","22","female","no","no","0","2 hrs","null","stimuli/sounds/bleep.wav","null","","","","","","",""
"","","","","","html-keyboard-response","57","2.0.0","86082","pr53p8bf9od","ono","gecko","22","female","no","no","0","2 hrs","1469","<div style=""font-size:30px;"">Press space to start the trial</div>"," ","","","","","","",""
"","","","","","html-keyboard-response","58","2.0.0","86348","pr53p8bf9od","ono","gecko","22","female","no","no","0","2 hrs","null","<div style=""font-size:60px;"">+</div>","null","","","","","","",""
"","","","","","audio-keyboard-response","59","2.0.0","86935","pr53p8bf9od","ono","gecko","22","female","no","no","0","2 hrs","null","stimuli/sounds/drop_sound_A.wav","null","","","","","","",""
"","","","","","html-keyboard-response","60","2.0.0","87936","pr53p8bf9od","ono","gecko","22","female","no","no","0","2 hrs","null","","null","","","","","","",""
"","","","","","image-keyboard-response","61","2.0.0","88527","pr53p8bf9od","ono","gecko","22","female","no","no","0","2 hrs","589","stimuli/pictures/cough_wom_2.jpg","0","0","","true","no","sound","stimuli/sounds/drop_sound_A.wav",""
"","","","","","audio-keyboard-response","62","2.0.0","89537","pr53p8bf9od","ono","gecko","22","female","no","no","0","2 hrs","null","stimuli/sounds/bleep.wav","null","","","","","","",""
"","","","","","html-keyboard-response","63","2.0.0","91281","pr53p8bf9od","ono","gecko","22","female","no","no","0","2 hrs","1630","<div style=""font-size:30px;"">Press space to start the trial</div>"," ","","","","","","",""
"","","","","","html-keyboard-response","64","2.0.0","91544","pr53p8bf9od","ono","gecko","22","female","no","no","0","2 hrs","null","<div style=""font-size:60px;"">+</div>","null","","","","","","",""
"","","","","","audio-keyboard-response","65","2.0.0","92145","pr53p8bf9od","ono","gecko","22","female","no","no","0","2 hrs","null","stimuli/sounds/motor_label_B.wav","null","","","","","","",""
"","","","","","html-keyboard-response","66","2.0.0","93155","pr53p8bf9od","ono","gecko","22","female","no","no","0","2 hrs","null","","null","","","","","","",""
"","","","","","image-keyboard-response","67","2.0.0","93859","pr53p8bf9od","ono","gecko","22","female","no","no","0","2 hrs","701","stimuli/pictures/motor_harley_1.jpg","1","1","","true","yes","sound","stimuli/sounds/motor_label_B.wav",""
"","","","","","audio-keyboard-response","68","2.0.0","94865","pr53p8bf9od","ono","gecko","22","female","no","no","0","2 hrs","null","stimuli/sounds/bleep.wav","null","","","","","","",""
"","","","","","html-keyboard-response","69","2.0.0","95694","pr53p8bf9od","ono","gecko","22","female","no","no","0","2 hrs","724","<div style=""font-size:30px;"">Press space to start the trial</div>"," ","","","","","","",""
"","","","","","html-keyboard-response","70","2.0.0","95958","pr53p8bf9od","ono","gecko","22","female","no","no","0","2 hrs","null","<div style=""font-size:60px;"">+</div>","null","","","","","","",""
"","","","","","audio-keyboard-response","71","2.0.0","96555","pr53p8bf9od","ono","gecko","22","female","no","no","0","2 hrs","null","stimuli/sounds/motor_label_B.wav","null","","","","","","",""
"","","","","","html-keyboard-response","72","2.0.0","97571","pr53p8bf9od","ono","gecko","22","female","no","no","0","2 hrs","null","","null","","","","","","",""
"","","","","","image-keyboard-response","73","2.0.0","98104","pr53p8bf9od","ono","gecko","22","female","no","no","0","2 hrs","530","stimuli/pictures/hiccup_man_2.jpg","0","0","","true","no","sound","stimuli/sounds/motor_label_B.wav",""
"","","","","","audio-keyboard-response","74","2.0.0","99123","pr53p8bf9od","ono","gecko","22","female","no","no","0","2 hrs","null","stimuli/sounds/bleep.wav","null","","","","","","",""
"","","","","","html-keyboard-response","75","2.0.0","99824","pr53p8bf9od","ono","gecko","22","female","no","no","0","2 hrs","588","<div style=""font-size:30px;"">Press space to start the trial</div>"," ","","","","","","",""
"","","","","","html-keyboard-response","76","2.0.0","100090","pr53p8bf9od","ono","gecko","22","female","no","no","0","2 hrs","null","<div style=""font-size:60px;"">+</div>","null","","","","","","",""
"","","","","","audio-keyboard-response","77","2.0.0","100675","pr53p8bf9od","ono","gecko","22","female","no","no","0","2 hrs","null","stimuli/sounds/drop_sound_A.wav","null","","","","","","",""
"","","","","","html-keyboard-response","78","2.0.0","101687","pr53p8bf9od","ono","gecko","22","female","no","no","0","2 hrs","null","","null","","","","","","",""
"","","","","","image-keyboard-response","79","2.0.0","102671","pr53p8bf9od","ono","gecko","22","female","no","no","0","2 hrs","982","stimuli/pictures/drop_multi_2.jpg","0","1","","false","no","sound","stimuli/sounds/drop_sound_A.wav",""
"","","","","","audio-keyboard-response","80","2.0.0","103676","pr53p8bf9od","ono","gecko","22","female","no","no","0","2 hrs","null","stimuli/sounds/buzz.wav","null","","","","","","",""
"","","","","","html-keyboard-response","81","2.0.0","104628","pr53p8bf9od","ono","gecko","22","female","no","no","0","2 hrs","839","<div style=""font-size:30px;"">Press space to start the trial</div>"," ","","","","","","",""
"","","","","","html-keyboard-response","82","2.0.0","104892","pr53p8bf9od","ono","gecko","22","female","no","no","0","2 hrs","null","<div style=""font-size:60px;"">+</div>","null","","","","","","",""
"","","","","","audio-keyboard-response","83","2.0.0","105495","pr53p8bf9od","ono","gecko","22","female","no","no","0","2 hrs","null","stimuli/sounds/dog_sound_B.wav","null","","","","","","",""
"","","","","","html-keyboard-response","84","2.0.0","106503","pr53p8bf9od","ono","gecko","22","female","no","no","0","2 hrs","null","","null","","","","","","",""
"","","","","","image-keyboard-response","85","2.0.0","107129","pr53p8bf9od","ono","gecko","22","female","no","no","0","2 hrs","622","stimuli/pictures/dog_york_1.jpg","1","1","","true","yes","sound","stimuli/sounds/dog_sound_B.wav",""
"","","","","","audio-keyboard-response","86","2.0.0","108136","pr53p8bf9od","ono","gecko","22","female","no","no","0","2 hrs","null","stimuli/sounds/bleep.wav","null","","","","","","",""
"","","","","","html-keyboard-response","87","2.0.0","109025","pr53p8bf9od","ono","gecko","22","female","no","no","0","2 hrs","776","<div style=""font-size:30px;"">Press space to start the trial</div>"," ","","","","","","",""
"","","","","","html-keyboard-response","88","2.0.0","109284","pr53p8bf9od","ono","gecko","22","female","no","no","0","2 hrs","null","<div style=""font-size:60px;"">+</div>","null","","","","","","",""
"","","","","","audio-keyboard-response","89","2.0.0","109895","pr53p8bf9od","ono","gecko","22","female","no","no","0","2 hrs","null","stimuli/sounds/hiccup_sound_A.wav","null","","","","","","",""
"","","","","","html-keyboard-response","90","2.0.0","110908","pr53p8bf9od","ono","gecko","22","female","no","no","0","2 hrs","null","","null","","","","","","",""
"","","","","","image-keyboard-response","91","2.0.0","113260","pr53p8bf9od","ono","gecko","22","female","no","no","0","2 hrs","2349","stimuli/pictures/hiccup_man_1.jpg","0","1","","false","no","sound","stimuli/sounds/hiccup_sound_A.wav",""
"","","","","","audio-keyboard-response","92","2.0.0","114274","pr53p8bf9od","ono","gecko","22","female","no","no","0","2 hrs","null","stimuli/sounds/buzz.wav","null","","","","","","",""
"","","","","","html-keyboard-response","93","2.0.0","115061","pr53p8bf9od","ono","gecko","22","female","no","no","0","2 hrs","674","<div style=""font-size:30px;"">Press space to start the trial</div>"," ","","","","","","",""
"","","","","","html-keyboard-response","94","2.0.0","115316","pr53p8bf9od","ono","gecko","22","female","no","no","0","2 hrs","null","<div style=""font-size:60px;"">+</div>","null","","","","","","",""
"","","","","","audio-keyboard-response","95","2.0.0","115915","pr53p8bf9od","ono","gecko","22","female","no","no","0","2 hrs","null","stimuli/sounds/motor_sound_B.wav","null","","","","","","",""
"","","","","","html-keyboard-response","96","2.0.0","116925","pr53p8bf9od","ono","gecko","22","female","no","no","0","2 hrs","null","","null","","","","","","",""
"","","","","","image-keyboard-response","97","2.0.0","117703","pr53p8bf9od","ono","gecko","22","female","no","no","0","2 hrs","775","stimuli/pictures/cough_man_1.jpg","0","0","","true","no","sound","stimuli/sounds/motor_sound_B.wav",""
"","","","","","audio-keyboard-response","98","2.0.0","118715","pr53p8bf9od","ono","gecko","22","female","no","no","0","2 hrs","null","stimuli/sounds/bleep.wav","null","","","","","","",""
"","","","","","html-keyboard-response","99","2.0.0","119442","pr53p8bf9od","ono","gecko","22","female","no","no","0","2 hrs","615","<div style=""font-size:30px;"">Press space to start the trial</div>"," ","","","","","","",""
"","","","","","html-keyboard-response","100","2.0.0","119695","pr53p8bf9od","ono","gecko","22","female","no","no","0","2 hrs","null","<div style=""font-size:60px;"">+</div>","null","","","","","","",""
"","","","","","audio-keyboard-response","101","2.0.0","120235","pr53p8bf9od","ono","gecko","22","female","no","no","0","2 hrs","null","stimuli/sounds/hiccup_label_A.wav","null","","","","","","",""
"","","","","","html-keyboard-response","102","2.0.0","121237","pr53p8bf9od","ono","gecko","22","female","no","no","0","2 hrs","null","","null","","","","","","",""
"","","","","","image-keyboard-response","103","2.0.0","123679","pr53p8bf9od","ono","gecko","22","female","no","no","0","2 hrs","2440","stimuli/pictures/hiccup_wom_2.jpg","1","1","","true","yes","sound","stimuli/sounds/hiccup_label_A.wav",""
"","","","","","audio-keyboard-response","104","2.0.0","124686","pr53p8bf9od","ono","gecko","22","female","no","no","0","2 hrs","null","stimuli/sounds/bleep.wav","null","","","","","","",""
"","","","","","html-keyboard-response","105","2.0.0","125465","pr53p8bf9od","ono","gecko","22","female","no","no","0","2 hrs","669","<div style=""font-size:30px;"">Press space to start the trial</div>"," ","","","","","","",""
"","","","","","html-keyboard-response","106","2.0.0","125729","pr53p8bf9od","ono","gecko","22","female","no","no","0","2 hrs","null","<div style=""font-size:60px;"">+</div>","null","","","","","","",""
"","","","","","audio-keyboard-response","107","2.0.0","126325","pr53p8bf9od","ono","gecko","22","female","no","no","0","2 hrs","null","stimuli/sounds/motor_label_A.wav","null","","","","","","",""
"","","","","","html-keyboard-response","108","2.0.0","127334","pr53p8bf9od","ono","gecko","22","female","no","no","0","2 hrs","null","","null","","","","","","",""
"","","","","","image-keyboard-response","109","2.0.0","128175","pr53p8bf9od","ono","gecko","22","female","no","no","0","2 hrs","838","stimuli/pictures/motor_dirt_2.jpg","1","1","","true","yes","sound","stimuli/sounds/motor_label_A.wav",""
"","","","","","audio-keyboard-response","110","2.0.0","129183","pr53p8bf9od","ono","gecko","22","female","no","no","0","2 hrs","null","stimuli/sounds/bleep.wav","null","","","","","","",""
"","","","","","html-keyboard-response","111","2.0.0","130265","pr53p8bf9od","ono","gecko","22","female","no","no","0","2 hrs","967","<div style=""font-size:30px;"">Press space to start the trial</div>"," ","","","","","","",""
"","","","","","html-keyboard-response","112","2.0.0","130519","pr53p8bf9od","ono","gecko","22","female","no","no","0","2 hrs","null","<div style=""font-size:60px;"">+</div>","null","","","","","","",""
"","","","","","audio-keyboard-response","113","2.0.0","131125","pr53p8bf9od","ono","gecko","22","female","no","no","0","2 hrs","null","stimuli/sounds/dog_sound_A.wav","null","","","","","","",""
"","","","","","html-keyboard-response","114","2.0.0","132139","pr53p8bf9od","ono","gecko","22","female","no","no","0","2 hrs","null","","null","","","","","","",""
"","","","","","image-keyboard-response","115","2.0.0","133224","pr53p8bf9od","ono","gecko","22","female","no","no","0","2 hrs","1083","stimuli/pictures/hiccup_wom_1.jpg","0","0","","true","no","sound","stimuli/sounds/dog_sound_A.wav",""
"","","","","","audio-keyboard-response","116","2.0.0","134232","pr53p8bf9od","ono","gecko","22","female","no","no","0","2 hrs","null","stimuli/sounds/bleep.wav","null","","","","","","",""
"","","","","","html-keyboard-response","117","2.0.0","135013","pr53p8bf9od","ono","gecko","22","female","no","no","0","2 hrs","671","<div style=""font-size:30px;"">Press space to start the trial</div>"," ","","","","","","",""
"","","","","","html-keyboard-response","118","2.0.0","135268","pr53p8bf9od","ono","gecko","22","female","no","no","0","2 hrs","null","<div style=""font-size:60px;"">+</div>","null","","","","","","",""
"","","","","","audio-keyboard-response","119","2.0.0","135875","pr53p8bf9od","ono","gecko","22","female","no","no","0","2 hrs","null","stimuli/sounds/drop_label_B.wav","null","","","","","","",""
"","","","","","html-keyboard-response","120","2.0.0","136878","pr53p8bf9od","ono","gecko","22","female","no","no","0","2 hrs","null","","null","","","","","","",""
"","","","","","image-keyboard-response","121","2.0.0","137702","pr53p8bf9od","ono","gecko","22","female","no","no","0","2 hrs","821","stimuli/pictures/drop_multi_2.jpg","0","1","","false","yes","sound","stimuli/sounds/drop_label_B.wav",""
"","","","","","audio-keyboard-response","122","2.0.0","138712","pr53p8bf9od","ono","gecko","22","female","no","no","0","2 hrs","null","stimuli/sounds/buzz.wav","null","","","","","","",""
"","","","","","html-keyboard-response","123","2.0.0","139459","pr53p8bf9od","ono","gecko","22","female","no","no","0","2 hrs","636","<div style=""font-size:30px;"">Press space to start the trial</div>"," ","","","","","","",""
"","","","","","html-keyboard-response","124","2.0.0","139716","pr53p8bf9od","ono","gecko","22","female","no","no","0","2 hrs","null","<div style=""font-size:60px;"">+</div>","null","","","","","","",""
"","","","","","audio-keyboard-response","125","2.0.0","140325","pr53p8bf9od","ono","gecko","22","female","no","no","0","2 hrs","null","stimuli/sounds/dog_sound_B.wav","null","","","","","","",""
"","","","","","html-keyboard-response","126","2.0.0","141327","pr53p8bf9od","ono","gecko","22","female","no","no","0","2 hrs","null","","null","","","","","","",""
"","","","","","image-keyboard-response","127","2.0.0","142153","pr53p8bf9od","ono","gecko","22","female","no","no","0","2 hrs","824","stimuli/pictures/motor_dirt_2.jpg","0","0","","true","no","sound","stimuli/sounds/dog_sound_B.wav",""
"","","","","","audio-keyboard-response","128","2.0.0","143166","pr53p8bf9od","ono","gecko","22","female","no","no","0","2 hrs","null","stimuli/sounds/bleep.wav","null","","","","","","",""
"","","","","","html-keyboard-response","129","2.0.0","144208","pr53p8bf9od","ono","gecko","22","female","no","no","0","2 hrs","930","<div style=""font-size:30px;"">Press space to start the trial</div>"," ","","","","","","",""
"","","","","","html-keyboard-response","130","2.0.0","144474","pr53p8bf9od","ono","gecko","22","female","no","no","0","2 hrs","null","<div style=""font-size:60px;"">+</div>","null","","","","","","",""
"","","","","","audio-keyboard-response","131","2.0.0","145075","pr53p8bf9od","ono","gecko","22","female","no","no","0","2 hrs","null","stimuli/sounds/motor_label_A.wav","null","","","","","","",""
"","","","","","html-keyboard-response","132","2.0.0","146092","pr53p8bf9od","ono","gecko","22","female","no","no","0","2 hrs","null","","null","","","","","","",""
"","","","","","image-keyboard-response","133","2.0.0","147039","pr53p8bf9od","ono","gecko","22","female","no","no","0","2 hrs","945","stimuli/pictures/motor_harley_2.jpg","1","1","","true","yes","sound","stimuli/sounds/motor_label_A.wav",""
"","","","","","audio-keyboard-response","134","2.0.0","148046","pr53p8bf9od","ono","gecko","22","female","no","no","0","2 hrs","null","stimuli/sounds/bleep.wav","null","","","","","","",""
"","","","","","html-keyboard-response","135","2.0.0","148567","pr53p8bf9od","ono","gecko","22","female","no","no","0","2 hrs","418","<div style=""font-size:30px;"">Press space to start the trial</div>"," ","","","","","","",""
"","","","","","html-keyboard-response","136","2.0.0","148820","pr53p8bf9od","ono","gecko","22","female","no","no","0","2 hrs","null","<div style=""font-size:60px;"">+</div>","null","","","","","","",""
"","","","","","audio-keyboard-response","137","2.0.0","149425","pr53p8bf9od","ono","gecko","22","female","no","no","0","2 hrs","null","stimuli/sounds/drop_label_B.wav","null","","","","","","",""
"","","","","","html-keyboard-response","138","2.0.0","150440","pr53p8bf9od","ono","gecko","22","female","no","no","0","2 hrs","null","","null","","","","","","",""
"","","","","","image-keyboard-response","139","2.0.0","151682","pr53p8bf9od","ono","gecko","22","female","no","no","0","2 hrs","1236","stimuli/pictures/motor_dirt_2.jpg","0","0","","true","no","sound","stimuli/sounds/drop_label_B.wav",""
"","","","","","audio-keyboard-response","140","2.0.0","152690","pr53p8bf9od","ono","gecko","22","female","no","no","0","2 hrs","null","stimuli/sounds/bleep.wav","null","","","","","","",""
"","","","","","html-keyboard-response","141","2.0.0","153390","pr53p8bf9od","ono","gecko","22","female","no","no","0","2 hrs","586","<div style=""font-size:30px;"">Press space to start the trial</div>"," ","","","","","","",""
"","","","","","html-keyboard-response","142","2.0.0","153646","pr53p8bf9od","ono","gecko","22","female","no","no","0","2 hrs","null","<div style=""font-size:60px;"">+</div>","null","","","","","","",""
"","","","","","audio-keyboard-response","143","2.0.0","154255","pr53p8bf9od","ono","gecko","22","female","no","no","0","2 hrs","null","stimuli/sounds/drop_sound_B.wav","null","","","","","","",""
"","","","","","html-keyboard-response","144","2.0.0","155266","pr53p8bf9od","ono","gecko","22","female","no","no","0","2 hrs","null","","null","","","","","","",""
"","","","","","image-keyboard-response","145","2.0.0","156355","pr53p8bf9od","ono","gecko","22","female","no","no","0","2 hrs","1086","stimuli/pictures/dog_rott_1.jpg","0","0","","true","no","sound","stimuli/sounds/drop_sound_B.wav",""
"","","","","","audio-keyboard-response","146","2.0.0","157366","pr53p8bf9od","ono","gecko","22","female","no","no","0","2 hrs","null","stimuli/sounds/bleep.wav","null","","","","","","",""
"","","","","","html-keyboard-response","147","2.0.0","167890","pr53p8bf9od","ono","gecko","22","female","no","no","0","2 hrs","10412","<p>You have completed a block. Press R when you are ready to continue</p>","r","","","","","","",""
"","","","","","html-keyboard-response","148","2.0.0","172707","pr53p8bf9od","ono","gecko","22","female","no","no","0","2 hrs","4815","<div style=""font-size:30px;"">Press space to start the trial</div>"," ","","","","","","",""
"","","","","","html-keyboard-response","149","2.0.0","172960","pr53p8bf9od","ono","gecko","22","female","no","no","0","2 hrs","null","<div style=""font-size:60px;"">+</div>","null","","","","","","",""
"","","","","","audio-keyboard-response","150","2.0.0","173545","pr53p8bf9od","ono","gecko","22","female","no","no","0","2 hrs","null","stimuli/sounds/drop_sound_A.wav","null","","","","","","",""
"","","","","","html-keyboard-response","151","2.0.0","174548","pr53p8bf9od","ono","gecko","22","female","no","no","0","2 hrs","null","","null","","","","","","",""
"","","","","","image-keyboard-response","152","2.0.0","175692","pr53p8bf9od","ono","gecko","22","female","no","no","0","2 hrs","1141","stimuli/pictures/cough_man_2.jpg","0","0","","true","no","sound","stimuli/sounds/drop_sound_A.wav",""
"","","","","","audio-keyboard-response","153","2.0.0","176706","pr53p8bf9od","ono","gecko","22","female","no","no","0","2 hrs","null","stimuli/sounds/bleep.wav","null","","","","","","",""
"","","","","","html-keyboard-response","154","2.0.0","177188","pr53p8bf9od","ono","gecko","22","female","no","no","0","2 hrs","371","<div style=""font-size:30px;"">Press space to start the trial</div>"," ","","","","","","",""
"","","","","","html-keyboard-response","155","2.0.0","177442","pr53p8bf9od","ono","gecko","22","female","no","no","0","2 hrs","null","<div style=""font-size:60px;"">+</div>","null","","","","","","",""
"","","","","","audio-keyboard-response","156","2.0.0","178035","pr53p8bf9od","ono","gecko","22","female","no","no","0","2 hrs","null","stimuli/sounds/dog_label_A.wav","null","","","","","","",""
"","","","","","html-keyboard-response","157","2.0.0","179038","pr53p8bf9od","ono","gecko","22","female","no","no","0","2 hrs","null","","null","","","","","","",""
"","","","","","image-keyboard-response","158","2.0.0","179908","pr53p8bf9od","ono","gecko","22","female","no","no","0","2 hrs","867","stimuli/pictures/dog_rott_1.jpg","1","1","","true","yes","sound","stimuli/sounds/dog_label_A.wav",""
"","","","","","audio-keyboard-response","159","2.0.0","180924","pr53p8bf9od","ono","gecko","22","female","no","no","0","2 hrs","null","stimuli/sounds/bleep.wav","null","","","","","","",""
"","","","","","html-keyboard-response","160","2.0.0","181722","pr53p8bf9od","ono","gecko","22","female","no","no","0","2 hrs","692","<div style=""font-size:30px;"">Press space to start the trial</div>"," ","","","","","","",""
"","","","","","html-keyboard-response","161","2.0.0","181979","pr53p8bf9od","ono","gecko","22","female","no","no","0","2 hrs","null","<div style=""font-size:60px;"">+</div>","null","","","","","","",""
"","","","","","audio-keyboard-response","162","2.0.0","182585","pr53p8bf9od","ono","gecko","22","female","no","no","0","2 hrs","null","stimuli/sounds/hiccup_sound_B.wav","null","","","","","","",""
"","","","","","html-keyboard-response","163","2.0.0","183589","pr53p8bf9od","ono","gecko","22","female","no","no","0","2 hrs","null","","null","","","","","","",""
"","","","","","image-keyboard-response","164","2.0.0","184495","pr53p8bf9od","ono","gecko","22","female","no","no","0","2 hrs","904","stimuli/pictures/drop_multi_2.jpg","0","0","","true","no","sound","stimuli/sounds/hiccup_sound_B.wav",""
"","","","","","audio-keyboard-response","165","2.0.0","185512","pr53p8bf9od","ono","gecko","22","female","no","no","0","2 hrs","null","stimuli/sounds/bleep.wav","null","","","","","","",""
"","","","","","html-keyboard-response","166","2.0.0","185960","pr53p8bf9od","ono","gecko","22","female","no","no","0","2 hrs","336","<div style=""font-size:30px;"">Press space to start the trial</div>"," ","","","","","","",""
"","","","","","html-keyboard-response","167","2.0.0","186219","pr53p8bf9od","ono","gecko","22","female","no","no","0","2 hrs","null","<div style=""font-size:60px;"">+</div>","null","","","","","","",""
"","","","","","audio-keyboard-response","168","2.0.0","186825","pr53p8bf9od","ono","gecko","22","female","no","no","0","2 hrs","null","stimuli/sounds/cough_label_B.wav","null","","","","","","",""
"","","","","","html-keyboard-response","169","2.0.0","187834","pr53p8bf9od","ono","gecko","22","female","no","no","0","2 hrs","null","","null","","","","","","",""
"","","","","","image-keyboard-response","170","2.0.0","188748","pr53p8bf9od","ono","gecko","22","female","no","no","0","2 hrs","911","stimuli/pictures/cough_man_1.jpg","1","1","","true","yes","sound","stimuli/sounds/cough_label_B.wav",""
"","","","","","audio-keyboard-response","171","2.0.0","189752","pr53p8bf9od","ono","gecko","22","female","no","no","0","2 hrs","null","stimuli/sounds/bleep.wav","null","","","","","","",""
"","","","","","html-keyboard-response","172","2.0.0","190142","pr53p8bf9od","ono","gecko","22","female","no","no","0","2 hrs","278","<div style=""font-size:30px;"">Press space to start the trial</div>"," ","","","","","","",""
"","","","","","html-keyboard-response","173","2.0.0","190395","pr53p8bf9od","ono","gecko","22","female","no","no","0","2 hrs","null","<div style=""font-size:60px;"">+</div>","null","","","","","","",""
"","","","","","audio-keyboard-response","174","2.0.0","190985","pr53p8bf9od","ono","gecko","22","female","no","no","0","2 hrs","null","stimuli/sounds/drop_sound_A.wav","null","","","","","","",""
"","","","","","html-keyboard-response","175","2.0.0","192001","pr53p8bf9od","ono","gecko","22","female","no","no","0","2 hrs","null","","null","","","","","","",""
"","","","","","image-keyboard-response","176","2.0.0","193153","pr53p8bf9od","ono","gecko","22","female","no","no","0","2 hrs","1149","stimuli/pictures/drop_single_1.jpg","0","1","","false","yes","sound","stimuli/sounds/drop_sound_A.wav",""
"","","","","","audio-keyboard-response","177","2.0.0","194171","pr53p8bf9od","ono","gecko","22","female","no","no","0","2 hrs","null","stimuli/sounds/buzz.wav","null","","","","","","",""
"","","","","","html-keyboard-response","178","2.0.0","194652","pr53p8bf9od","ono","gecko","22","female","no","no","0","2 hrs","367","<div style=""font-size:30px;"">Press space to start the trial</div>"," ","","","","","","",""
"","","","","","html-keyboard-response","179","2.0.0","194907","pr53p8bf9od","ono","gecko","22","female","no","no","0","2 hrs","null","<div style=""font-size:60px;"">+</div>","null","","","","","","",""
"","","","","","audio-keyboard-response","180","2.0.0","195515","pr53p8bf9od","ono","gecko","22","female","no","no","0","2 hrs","null","stimuli/sounds/hiccup_label_B.wav","null","","","","","","",""
"","","","","","html-keyboard-response","181","2.0.0","196527","pr53p8bf9od","ono","gecko","22","female","no","no","0","2 hrs","null","","null","","","","","","",""
"","","","","","image-keyboard-response","182","2.0.0","199987","pr53p8bf9od","ono","gecko","22","female","no","no","0","2 hrs","3458","stimuli/pictures/hiccup_man_1.jpg","1","1","","true","yes","sound","stimuli/sounds/hiccup_label_B.wav",""
"","","","","","audio-keyboard-response","183","2.0.0","201005","pr53p8bf9od","ono","gecko","22","female","no","no","0","2 hrs","null","stimuli/sounds/bleep.wav","null","","","","","","",""
"","","","","","html-keyboard-response","184","2.0.0","201479","pr53p8bf9od","ono","gecko","22","female","no","no","0","2 hrs","355","<div style=""font-size:30px;"">Press space to start the trial</div>"," ","","","","","","",""
"","","","","","html-keyboard-response","185","2.0.0","201737","pr53p8bf9od","ono","gecko","22","female","no","no","0","2 hrs","null","<div style=""font-size:60px;"">+</div>","null","","","","","","",""
"","","","","","audio-keyboard-response","186","2.0.0","202405","pr53p8bf9od","ono","gecko","22","female","no","no","0","2 hrs","null","stimuli/sounds/cough_sound_A.wav","null","","","","","","",""
"","","","","","html-keyboard-response","187","2.0.0","203419","pr53p8bf9od","ono","gecko","22","female","no","no","0","2 hrs","null","","null","","","","","","",""
"","","","","","image-keyboard-response","188","2.0.0","204440","pr53p8bf9od","ono","gecko","22","female","no","no","0","2 hrs","1018","stimuli/pictures/cough_wom_2.jpg","1","1","","true","yes","sound","stimuli/sounds/cough_sound_A.wav",""
"","","","","","audio-keyboard-response","189","2.0.0","205458","pr53p8bf9od","ono","gecko","22","female","no","no","0","2 hrs","null","stimuli/sounds/bleep.wav","null","","","","","","",""
"","","","","","html-keyboard-response","190","2.0.0","205846","pr53p8bf9od","ono","gecko","22","female","no","no","0","2 hrs","272","<div style=""font-size:30px;"">Press space to start the trial</div>"," ","","","","","","",""
"","","","","","html-keyboard-response","191","2.0.0","206108","pr53p8bf9od","ono","gecko","22","female","no","no","0","2 hrs","null","<div style=""font-size:60px;"">+</div>","null","","","","","","",""
"","","","","","audio-keyboard-response","192","2.0.0","206705","pr53p8bf9od","ono","gecko","22","female","no","no","0","2 hrs","null","stimuli/sounds/motor_sound_A.wav","null","","","","","","",""
"","","","","","html-keyboard-response","193","2.0.0","207708","pr53p8bf9od","ono","gecko","22","female","no","no","0","2 hrs","null","","null","","","","","","",""
"","","","","","image-keyboard-response","194","2.0.0","208488","pr53p8bf9od","ono","gecko","22","female","no","no","0","2 hrs","778","stimuli/pictures/drop_multi_1.jpg","0","0","","true","no","sound","stimuli/sounds/motor_sound_A.wav",""
"","","","","","audio-keyboard-response","195","2.0.0","209499","pr53p8bf9od","ono","gecko","22","female","no","no","0","2 hrs","null","stimuli/sounds/bleep.wav","null","","","","","","",""
"","","","","","html-keyboard-response","196","2.0.0","210449","pr53p8bf9od","ono","gecko","22","female","no","no","0","2 hrs","835","<div style=""font-size:30px;"">Press space to start the trial</div>"," ","","","","","","",""
"","","","","","html-keyboard-response","197","2.0.0","210702","pr53p8bf9od","ono","gecko","22","female","no","no","0","2 hrs","null","<div style=""font-size:60px;"">+</div>","null","","","","","","",""
"","","","","","audio-keyboard-response","198","2.0.0","211335","pr53p8bf9od","ono","gecko","22","female","no","no","0","2 hrs","null","stimuli/sounds/cough_label_A.wav","null","","","","","","",""
"","","","","","html-keyboard-response","199","2.0.0","212352","pr53p8bf9od","ono","gecko","22","female","no","no","0","2 hrs","null","","null","","","","","","",""
"","","","","","image-keyboard-response","200","2.0.0","213146","pr53p8bf9od","ono","gecko","22","female","no","no","0","2 hrs","791","stimuli/pictures/cough_man_1.jpg","1","1","","true","yes","sound","stimuli/sounds/cough_label_A.wav",""
"","","","","","audio-keyboard-response","201","2.0.0","214162","pr53p8bf9od","ono","gecko","22","female","no","no","0","2 hrs","null","stimuli/sounds/bleep.wav","null","","","","","","",""
"","","","","","html-keyboard-response","202","2.0.0","214563","pr53p8bf9od","ono","gecko","22","female","no","no","0","2 hrs","288","<div style=""font-size:30px;"">Press space to start the trial</div>"," ","","","","","","",""
"","","","","","html-keyboard-response","203","2.0.0","214816","pr53p8bf9od","ono","gecko","22","female","no","no","0","2 hrs","null","<div style=""font-size:60px;"">+</div>","null","","","","","","",""
"","","","","","audio-keyboard-response","204","2.0.0","215425","pr53p8bf9od","ono","gecko","22","female","no","no","0","2 hrs","null","stimuli/sounds/cough_label_B.wav","null","","","","","","",""
"","","","","","html-keyboard-response","205","2.0.0","216430","pr53p8bf9od","ono","gecko","22","female","no","no","0","2 hrs","null","","null","","","","","","",""
"","","","","","image-keyboard-response","206","2.0.0","217819","pr53p8bf9od","ono","gecko","22","female","no","no","0","2 hrs","1387","stimuli/pictures/drop_multi_1.jpg","0","0","","true","no","sound","stimuli/sounds/cough_label_B.wav",""
"","","","","","audio-keyboard-response","207","2.0.0","218836","pr53p8bf9od","ono","gecko","22","female","no","no","0","2 hrs","null","stimuli/sounds/bleep.wav","null","","","","","","",""
"","","","","","html-keyboard-response","208","2.0.0","219199","pr53p8bf9od","ono","gecko","22","female","no","no","0","2 hrs","251","<div style=""font-size:30px;"">Press space to start the trial</div>"," ","","","","","","",""
"","","","","","html-keyboard-response","209","2.0.0","219462","pr53p8bf9od","ono","gecko","22","female","no","no","0","2 hrs","null","<div style=""font-size:60px;"">+</div>","null","","","","","","",""
"","","","","","audio-keyboard-response","210","2.0.0","220065","pr53p8bf9od","ono","gecko","22","female","no","no","0","2 hrs","null","stimuli/sounds/dog_sound_B.wav","null","","","","","","",""
"","","","","","html-keyboard-response","211","2.0.0","221071","pr53p8bf9od","ono","gecko","22","female","no","no","0","2 hrs","null","","null","","","","","","",""
"","","","","","image-keyboard-response","212","2.0.0","223692","pr53p8bf9od","ono","gecko","22","female","no","no","0","2 hrs","2619","stimuli/pictures/dog_rott_2.jpg","0","1","","false","no","sound","stimuli/sounds/dog_sound_B.wav",""
"","","","","","audio-keyboard-response","213","2.0.0","224705","pr53p8bf9od","ono","gecko","22","female","no","no","0","2 hrs","null","stimuli/sounds/buzz.wav","null","","","","","","",""
"","","","","","html-keyboard-response","214","2.0.0","225298","pr53p8bf9od","ono","gecko","22","female","no","no","0","2 hrs","476","<div style=""font-size:30px;"">Press space to start the trial</div>"," ","","","","","","",""
"","","","","","html-keyboard-response","215","2.0.0","225556","pr53p8bf9od","ono","gecko","22","female","no","no","0","2 hrs","null","<div style=""font-size:60px;"">+</div>","null","","","","","","",""
"","","","","","audio-keyboard-response","216","2.0.0","226235","pr53p8bf9od","ono","gecko","22","female","no","no","0","2 hrs","null","stimuli/sounds/cough_sound_B.wav","null","","","","","","",""
"","","","","","html-keyboard-response","217","2.0.0","227239","pr53p8bf9od","ono","gecko","22","female","no","no","0","2 hrs","null","","null","","","","","","",""
"","","","","","image-keyboard-response","218","2.0.0","228497","pr53p8bf9od","ono","gecko","22","female","no","no","0","2 hrs","1255","stimuli/pictures/hiccup_man_1.jpg","0","0","","true","no","sound","stimuli/sounds/cough_sound_B.wav",""
"","","","","","audio-keyboard-response","219","2.0.0","229506","pr53p8bf9od","ono","gecko","22","female","no","no","0","2 hrs","null","stimuli/sounds/bleep.wav","null","","","","","","",""
"","","","","","html-keyboard-response","220","2.0.0","230014","pr53p8bf9od","ono","gecko","22","female","no","no","0","2 hrs","398","<div style=""font-size:30px;"">Press space to start the trial</div>"," ","","","","","","",""
"","","","","","html-keyboard-response","221","2.0.0","230273","pr53p8bf9od","ono","gecko","22","female","no","no","0","2 hrs","null","<div style=""font-size:60px;"">+</div>","null","","","","","","",""
"","","","","","audio-keyboard-response","222","2.0.0","230815","pr53p8bf9od","ono","gecko","22","female","no","no","0","2 hrs","null","stimuli/sounds/drop_label_A.wav","null","","","","","","",""
"","","","","","html-keyboard-response","223","2.0.0","231831","pr53p8bf9od","ono","gecko","22","female","no","no","0","2 hrs","null","","null","","","","","","",""
"","","","","","image-keyboard-response","224","2.0.0","232896","pr53p8bf9od","ono","gecko","22","female","no","no","0","2 hrs","1062","stimuli/pictures/hiccup_man_2.jpg","0","0","","true","no","sound","stimuli/sounds/drop_label_A.wav",""
"","","","","","audio-keyboard-response","225","2.0.0","233906","pr53p8bf9od","ono","gecko","22","female","no","no","0","2 hrs","null","stimuli/sounds/bleep.wav","null","","","","","","",""
"","","","","","html-keyboard-response","226","2.0.0","234351","pr53p8bf9od","ono","gecko","22","female","no","no","0","2 hrs","335","<div style=""font-size:30px;"">Press space to start the trial</div>"," ","","","","","","",""
"","","","","","html-keyboard-response","227","2.0.0","234611","pr53p8bf9od","ono","gecko","22","female","no","no","0","2 hrs","null","<div style=""font-size:60px;"">+</div>","null","","","","","","",""
"","","","","","audio-keyboard-response","228","2.0.0","235205","pr53p8bf9od","ono","gecko","22","female","no","no","0","2 hrs","null","stimuli/sounds/motor_label_B.wav","null","","","","","","",""
"","","","","","html-keyboard-response","229","2.0.0","236208","pr53p8bf9od","ono","gecko","22","female","no","no","0","2 hrs","null","","null","","","","","","",""
"","","","","","image-keyboard-response","230","2.0.0","237112","pr53p8bf9od","ono","gecko","22","female","no","no","0","2 hrs","901","stimuli/pictures/hiccup_man_1.jpg","0","0","","true","no","sound","stimuli/sounds/motor_label_B.wav",""
"","","","","","audio-keyboard-response","231","2.0.0","238121","pr53p8bf9od","ono","gecko","22","female","no","no","0","2 hrs","null","stimuli/sounds/bleep.wav","null","","","","","","",""
"","","","","","html-keyboard-response","232","2.0.0","238697","pr53p8bf9od","ono","gecko","22","female","no","no","0","2 hrs","472","<div style=""font-size:30px;"">Press space to start the trial</div>"," ","","","","","","",""
"","","","","","html-keyboard-response","233","2.0.0","238951","pr53p8bf9od","ono","gecko","22","female","no","no","0","2 hrs","null","<div style=""font-size:60px;"">+</div>","null","","","","","","",""
"","","","","","audio-keyboard-response","234","2.0.0","239555","pr53p8bf9od","ono","gecko","22","female","no","no","0","2 hrs","null","stimuli/sounds/drop_sound_B.wav","null","","","","","","",""
"","","","","","html-keyboard-response","235","2.0.0","240569","pr53p8bf9od","ono","gecko","22","female","no","no","0","2 hrs","null","","null","","","","","","",""
"","","","","","image-keyboard-response","236","2.0.0","241406","pr53p8bf9od","ono","gecko","22","female","no","no","0","2 hrs","834","stimuli/pictures/drop_single_2.jpg","1","1","","true","no","sound","stimuli/sounds/drop_sound_B.wav",""
"","","","","","audio-keyboard-response","237","2.0.0","242423","pr53p8bf9od","ono","gecko","22","female","no","no","0","2 hrs","null","stimuli/sounds/bleep.wav","null","","","","","","",""
"","","","","","html-keyboard-response","238","2.0.0","242921","pr53p8bf9od","ono","gecko","22","female","no","no","0","2 hrs","384","<div style=""font-size:30px;"">Press space to start the trial</div>"," ","","","","","","",""
"","","","","","html-keyboard-response","239","2.0.0","243176","pr53p8bf9od","ono","gecko","22","female","no","no","0","2 hrs","null","<div style=""font-size:60px;"">+</div>","null","","","","","","",""
"","","","","","audio-keyboard-response","240","2.0.0","243725","pr53p8bf9od","ono","gecko","22","female","no","no","0","2 hrs","null","stimuli/sounds/drop_label_A.wav","null","","","","","","",""
"","","","","","html-keyboard-response","241","2.0.0","244740","pr53p8bf9od","ono","gecko","22","female","no","no","0","2 hrs","null","","null","","","","","","",""
"","","","","","image-keyboard-response","242","2.0.0","245707","pr53p8bf9od","ono","gecko","22","female","no","no","0","2 hrs","965","stimuli/pictures/drop_single_2.jpg","1","1","","true","yes","sound","stimuli/sounds/drop_label_A.wav",""
"","","","","","audio-keyboard-response","243","2.0.0","246714","pr53p8bf9od","ono","gecko","22","female","no","no","0","2 hrs","null","stimuli/sounds/bleep.wav","null","","","","","","",""
"","","","","","html-keyboard-response","244","2.0.0","247068","pr53p8bf9od","ono","gecko","22","female","no","no","0","2 hrs","249","<div style=""font-size:30px;"">Press space to start the trial</div>"," ","","","","","","",""
"","","","","","html-keyboard-response","245","2.0.0","247329","pr53p8bf9od","ono","gecko","22","female","no","no","0","2 hrs","null","<div style=""font-size:60px;"">+</div>","null","","","","","","",""
"","","","","","audio-keyboard-response","246","2.0.0","247925","pr53p8bf9od","ono","gecko","22","female","no","no","0","2 hrs","null","stimuli/sounds/dog_label_A.wav","null","","","","","","",""
"","","","","","html-keyboard-response","247","2.0.0","248929","pr53p8bf9od","ono","gecko","22","female","no","no","0","2 hrs","null","","null","","","","","","",""
"","","","","","image-keyboard-response","248","2.0.0","249712","pr53p8bf9od","ono","gecko","22","female","no","no","0","2 hrs","781","stimuli/pictures/drop_single_1.jpg","0","0","","true","no","sound","stimuli/sounds/dog_label_A.wav",""
"","","","","","audio-keyboard-response","249","2.0.0","250726","pr53p8bf9od","ono","gecko","22","female","no","no","0","2 hrs","null","stimuli/sounds/bleep.wav","null","","","","","","",""
"","","","","","html-keyboard-response","250","2.0.0","251170","pr53p8bf9od","ono","gecko","22","female","no","no","0","2 hrs","333","<div style=""font-size:30px;"">Press space to start the trial</div>"," ","","","","","","",""
"","","","","","html-keyboard-response","251","2.0.0","251433","pr53p8bf9od","ono","gecko","22","female","no","no","0","2 hrs","null","<div style=""font-size:60px;"">+</div>","null","","","","","","",""
"","","","","","audio-keyboard-response","252","2.0.0","252015","pr53p8bf9od","ono","gecko","22","female","no","no","0","2 hrs","null","stimuli/sounds/drop_sound_A.wav","null","","","","","","",""
"","","","","","html-keyboard-response","253","2.0.0","253031","pr53p8bf9od","ono","gecko","22","female","no","no","0","2 hrs","null","","null","","","","","","",""
"","","","","","image-keyboard-response","254","2.0.0","253992","pr53p8bf9od","ono","gecko","22","female","no","no","0","2 hrs","959","stimuli/pictures/cough_wom_1.jpg","0","0","","true","no","sound","stimuli/sounds/drop_sound_A.wav",""
"","","","","","audio-keyboard-response","255","2.0.0","255005","pr53p8bf9od","ono","gecko","22","female","no","no","0","2 hrs","null","stimuli/sounds/bleep.wav","null","","","","","","",""
"","","","","","html-keyboard-response","256","2.0.0","255372","pr53p8bf9od","ono","gecko","22","female","no","no","0","2 hrs","256","<div style=""font-size:30px;"">Press space to start the trial</div>"," ","","","","","","",""
"","","","","","html-keyboard-response","257","2.0.0","255629","pr53p8bf9od","ono","gecko","22","female","no","no","0","2 hrs","null","<div style=""font-size:60px;"">+</div>","null","","","","","","",""
"","","","","","audio-keyboard-response","258","2.0.0","256225","pr53p8bf9od","ono","gecko","22","female","no","no","0","2 hrs","null","stimuli/sounds/dog_label_B.wav","null","","","","","","",""
"","","","","","html-keyboard-response","259","2.0.0","257233","pr53p8bf9od","ono","gecko","22","female","no","no","0","2 hrs","null","","null","","","","","","",""
"","","","","","image-keyboard-response","260","2.0.0","258079","pr53p8bf9od","ono","gecko","22","female","no","no","0","2 hrs","844","stimuli/pictures/cough_wom_2.jpg","0","0","","true","no","sound","stimuli/sounds/dog_label_B.wav",""
"","","","","","audio-keyboard-response","261","2.0.0","259094","pr53p8bf9od","ono","gecko","22","female","no","no","0","2 hrs","null","stimuli/sounds/bleep.wav","null","","","","","","",""
"","","","","","html-keyboard-response","262","2.0.0","259464","pr53p8bf9od","ono","gecko","22","female","no","no","0","2 hrs","258","<div style=""font-size:30px;"">Press space to start the trial</div>"," ","","","","","","",""
"","","","","","html-keyboard-response","263","2.0.0","259730","pr53p8bf9od","ono","gecko","22","female","no","no","0","2 hrs","null","<div style=""font-size:60px;"">+</div>","null","","","","","","",""
"","","","","","audio-keyboard-response","264","2.0.0","260325","pr53p8bf9od","ono","gecko","22","female","no","no","0","2 hrs","null","stimuli/sounds/dog_label_B.wav","null","","","","","","",""
"","","","","","html-keyboard-response","265","2.0.0","261338","pr53p8bf9od","ono","gecko","22","female","no","no","0","2 hrs","null","","null","","","","","","",""
"","","","","","image-keyboard-response","266","2.0.0","263006","pr53p8bf9od","ono","gecko","22","female","no","no","0","2 hrs","1666","stimuli/pictures/dog_york_2.jpg","1","1","","true","yes","sound","stimuli/sounds/dog_label_B.wav",""
"","","","","","audio-keyboard-response","267","2.0.0","264022","pr53p8bf9od","ono","gecko","22","female","no","no","0","2 hrs","null","stimuli/sounds/bleep.wav","null","","","","","","",""
"","","","","","html-keyboard-response","268","2.0.0","277973","pr53p8bf9od","ono","gecko","22","female","no","no","0","2 hrs","13836","<p>You have completed a block. Press R when you are ready to continue</p>","r","","","","","","",""
"","","","","","html-keyboard-response","269","2.0.0","280782","pr53p8bf9od","ono","gecko","22","female","no","no","0","2 hrs","2807","<div style=""font-size:30px;"">Press space to start the trial</div>"," ","","","","","","",""
"","","","","","html-keyboard-response","270","2.0.0","281045","pr53p8bf9od","ono","gecko","22","female","no","no","0","2 hrs","null","<div style=""font-size:60px;"">+</div>","null","","","","","","",""
"","","","","","audio-keyboard-response","271","2.0.0","281655","pr53p8bf9od","ono","gecko","22","female","no","no","0","2 hrs","null","stimuli/sounds/dog_sound_A.wav","null","","","","","","",""
"","","","","","html-keyboard-response","272","2.0.0","282664","pr53p8bf9od","ono","gecko","22","female","no","no","0","2 hrs","null","","null","","","","","","",""
"","","","","","image-keyboard-response","273","2.0.0","284549","pr53p8bf9od","ono","gecko","22","female","no","no","0","2 hrs","1882","stimuli/pictures/dog_york_2.jpg","0","1","","false","no","sound","stimuli/sounds/dog_sound_A.wav",""
"","","","","","audio-keyboard-response","274","2.0.0","285562","pr53p8bf9od","ono","gecko","22","female","no","no","0","2 hrs","null","stimuli/sounds/buzz.wav","null","","","","","","",""
"","","","","","html-keyboard-response","275","2.0.0","286961","pr53p8bf9od","ono","gecko","22","female","no","no","0","2 hrs","1286","<div style=""font-size:30px;"">Press space to start the trial</div>"," ","","","","","","",""
"","","","","","html-keyboard-response","276","2.0.0","287223","pr53p8bf9od","ono","gecko","22","female","no","no","0","2 hrs","null","<div style=""font-size:60px;"">+</div>","null","","","","","","",""
"","","","","","audio-keyboard-response","277","2.0.0","287825","pr53p8bf9od","ono","gecko","22","female","no","no","0","2 hrs","null","stimuli/sounds/drop_sound_B.wav","null","","","","","","",""
"","","","","","html-keyboard-response","278","2.0.0","288832","pr53p8bf9od","ono","gecko","22","female","no","no","0","2 hrs","null","","null","","","","","","",""
"","","","","","image-keyboard-response","279","2.0.0","289791","pr53p8bf9od","ono","gecko","22","female","no","no","0","2 hrs","957","stimuli/pictures/drop_multi_1.jpg","0","1","","false","yes","sound","stimuli/sounds/drop_sound_B.wav",""
"","","","","","audio-keyboard-response","280","2.0.0","290801","pr53p8bf9od","ono","gecko","22","female","no","no","0","2 hrs","null","stimuli/sounds/buzz.wav","null","","","","","","",""
"","","","","","html-keyboard-response","281","2.0.0","291207","pr53p8bf9od","ono","gecko","22","female","no","no","0","2 hrs","291","<div style=""font-size:30px;"">Press space to start the trial</div>"," ","","","","","","",""
"","","","","","html-keyboard-response","282","2.0.0","291471","pr53p8bf9od","ono","gecko","22","female","no","no","0","2 hrs","null","<div style=""font-size:60px;"">+</div>","null","","","","","","",""
"","","","","","audio-keyboard-response","283","2.0.0","292075","pr53p8bf9od","ono","gecko","22","female","no","no","0","2 hrs","null","stimuli/sounds/dog_sound_A.wav","null","","","","","","",""
"","","","","","html-keyboard-response","284","2.0.0","293087","pr53p8bf9od","ono","gecko","22","female","no","no","0","2 hrs","null","","null","","","","","","",""
"","","","","","image-keyboard-response","285","2.0.0","293987","pr53p8bf9od","ono","gecko","22","female","no","no","0","2 hrs","898","stimuli/pictures/dog_rott_2.jpg","1","1","","true","yes","sound","stimuli/sounds/dog_sound_A.wav",""
"","","","","","audio-keyboard-response","286","2.0.0","294993","pr53p8bf9od","ono","gecko","22","female","no","no","0","2 hrs","null","stimuli/sounds/bleep.wav","null","","","","","","",""
"","","","","","html-keyboard-response","287","2.0.0","295571","pr53p8bf9od","ono","gecko","22","female","no","no","0","2 hrs","465","<div style=""font-size:30px;"">Press space to start the trial</div>"," ","","","","","","",""
"","","","","","html-keyboard-response","288","2.0.0","295830","pr53p8bf9od","ono","gecko","22","female","no","no","0","2 hrs","null","<div style=""font-size:60px;"">+</div>","null","","","","","","",""
"","","","","","audio-keyboard-response","289","2.0.0","296425","pr53p8bf9od","ono","gecko","22","female","no","no","0","2 hrs","null","stimuli/sounds/dog_label_B.wav","null","","","","","","",""
"","","","","","html-keyboard-response","290","2.0.0","297435","pr53p8bf9od","ono","gecko","22","female","no","no","0","2 hrs","null","","null","","","","","","",""
"","","","","","image-keyboard-response","291","2.0.0","299074","pr53p8bf9od","ono","gecko","22","female","no","no","0","2 hrs","1637","stimuli/pictures/cough_man_1.jpg","0","0","","true","no","sound","stimuli/sounds/dog_label_B.wav",""
"","","","","","audio-keyboard-response","292","2.0.0","300090","pr53p8bf9od","ono","gecko","22","female","no","no","0","2 hrs","null","stimuli/sounds/bleep.wav","null","","","","","","",""
"","","","","","html-keyboard-response","293","2.0.0","300709","pr53p8bf9od","ono","gecko","22","female","no","no","0","2 hrs","507","<div style=""font-size:30px;"">Press space to start the trial</div>"," ","","","","","","",""
"","","","","","html-keyboard-response","294","2.0.0","300967","pr53p8bf9od","ono","gecko","22","female","no","no","0","2 hrs","null","<div style=""font-size:60px;"">+</div>","null","","","","","","",""
"","","","","","audio-keyboard-response","295","2.0.0","301565","pr53p8bf9od","ono","gecko","22","female","no","no","0","2 hrs","null","stimuli/sounds/motor_sound_B.wav","null","","","","","","",""
"","","","","","html-keyboard-response","296","2.0.0","302567","pr53p8bf9od","ono","gecko","22","female","no","no","0","2 hrs","null","","null","","","","","","",""
"","","","","","image-keyboard-response","297","2.0.0","303715","pr53p8bf9od","ono","gecko","22","female","no","no","0","2 hrs","1146","stimuli/pictures/cough_wom_1.jpg","0","0","","true","no","sound","stimuli/sounds/motor_sound_B.wav",""
"","","","","","audio-keyboard-response","298","2.0.0","304728","pr53p8bf9od","ono","gecko","22","female","no","no","0","2 hrs","null","stimuli/sounds/bleep.wav","null","","","","","","",""
"","","","","","html-keyboard-response","299","2.0.0","305138","pr53p8bf9od","ono","gecko","22","female","no","no","0","2 hrs","298","<div style=""font-size:30px;"">Press space to start the trial</div>"," ","","","","","","",""
"","","","","","html-keyboard-response","300","2.0.0","305390","pr53p8bf9od","ono","gecko","22","female","no","no","0","2 hrs","null","<div style=""font-size:60px;"">+</div>","null","","","","","","",""
"","","","","","audio-keyboard-response","301","2.0.0","305975","pr53p8bf9od","ono","gecko","22","female","no","no","0","2 hrs","null","stimuli/sounds/drop_sound_A.wav","null","","","","","","",""
"","","","","","html-keyboard-response","302","2.0.0","306986","pr53p8bf9od","ono","gecko","22","female","no","no","0","2 hrs","null","","null","","","","","","",""
"","","","","","image-keyboard-response","303","2.0.0","309763","pr53p8bf9od","ono","gecko","22","female","no","no","0","2 hrs","2775","stimuli/pictures/cough_man_1.jpg","0","0","","true","no","sound","stimuli/sounds/drop_sound_A.wav",""
"","","","","","audio-keyboard-response","304","2.0.0","310775","pr53p8bf9od","ono","gecko","22","female","no","no","0","2 hrs","null","stimuli/sounds/bleep.wav","null","","","","","","",""
"","","","","","html-keyboard-response","305","2.0.0","312093","pr53p8bf9od","ono","gecko","22","female","no","no","0","2 hrs","1212","<div style=""font-size:30px;"">Press space to start the trial</div>"," ","","","","","","",""
"","","","","","html-keyboard-response","306","2.0.0","312352","pr53p8bf9od","ono","gecko","22","female","no","no","0","2 hrs","null","<div style=""font-size:60px;"">+</div>","null","","","","","","",""
"","","","","","audio-keyboard-response","307","2.0.0","312945","pr53p8bf9od","ono","gecko","22","female","no","no","0","2 hrs","null","stimuli/sounds/motor_label_B.wav","null","","","","","","",""
"","","","","","html-keyboard-response","308","2.0.0","313946","pr53p8bf9od","ono","gecko","22","female","no","no","0","2 hrs","null","","null","","","","","","",""
"","","","","","image-keyboard-response","309","2.0.0","314663","pr53p8bf9od","ono","gecko","22","female","no","no","0","2 hrs","714","stimuli/pictures/motor_harley_2.jpg","1","1","","true","yes","sound","stimuli/sounds/motor_label_B.wav",""
"","","","","","audio-keyboard-response","310","2.0.0","315668","pr53p8bf9od","ono","gecko","22","female","no","no","0","2 hrs","null","stimuli/sounds/bleep.wav","null","","","","","","",""
"","","","","","html-keyboard-response","311","2.0.0","316307","pr53p8bf9od","ono","gecko","22","female","no","no","0","2 hrs","528","<div style=""font-size:30px;"">Press space to start the trial</div>"," ","","","","","","",""
"","","","","","html-keyboard-response","312","2.0.0","316563","pr53p8bf9od","ono","gecko","22","female","no","no","0","2 hrs","null","<div style=""font-size:60px;"">+</div>","null","","","","","","",""
"","","","","","audio-keyboard-response","313","2.0.0","317155","pr53p8bf9od","ono","gecko","22","female","no","no","0","2 hrs","null","stimuli/sounds/motor_sound_B.wav","null","","","","","","",""
"","","","","","html-keyboard-response","314","2.0.0","318171","pr53p8bf9od","ono","gecko","22","female","no","no","0","2 hrs","null","","null","","","","","","",""
"","","","","","image-keyboard-response","315","2.0.0","318828","pr53p8bf9od","ono","gecko","22","female","no","no","0","2 hrs","656","stimuli/pictures/motor_harley_2.jpg","1","1","","true","yes","sound","stimuli/sounds/motor_sound_B.wav",""
"","","","","","audio-keyboard-response","316","2.0.0","319832","pr53p8bf9od","ono","gecko","22","female","no","no","0","2 hrs","null","stimuli/sounds/bleep.wav","null","","","","","","",""
"","","","","","html-keyboard-response","317","2.0.0","320172","pr53p8bf9od","ono","gecko","22","female","no","no","0","2 hrs","224","<div style=""font-size:30px;"">Press space to start the trial</div>"," ","","","","","","",""
"","","","","","html-keyboard-response","318","2.0.0","320430","pr53p8bf9od","ono","gecko","22","female","no","no","0","2 hrs","null","<div style=""font-size:60px;"">+</div>","null","","","","","","",""
"","","","","","audio-keyboard-response","319","2.0.0","321035","pr53p8bf9od","ono","gecko","22","female","no","no","0","2 hrs","null","stimuli/sounds/dog_sound_B.wav","null","","","","","","",""
"","","","","","html-keyboard-response","320","2.0.0","322037","pr53p8bf9od","ono","gecko","22","female","no","no","0","2 hrs","null","","null","","","","","","",""
"","","","","","image-keyboard-response","321","2.0.0","322758","pr53p8bf9od","ono","gecko","22","female","no","no","0","2 hrs","719","stimuli/pictures/motor_harley_2.jpg","0","0","","true","no","sound","stimuli/sounds/dog_sound_B.wav",""
"","","","","","audio-keyboard-response","322","2.0.0","323771","pr53p8bf9od","ono","gecko","22","female","no","no","0","2 hrs","null","stimuli/sounds/bleep.wav","null","","","","","","",""
"","","","","","html-keyboard-response","323","2.0.0","324165","pr53p8bf9od","ono","gecko","22","female","no","no","0","2 hrs","280","<div style=""font-size:30px;"">Press space to start the trial</div>"," ","","","","","","",""
"","","","","","html-keyboard-response","324","2.0.0","324432","pr53p8bf9od","ono","gecko","22","female","no","no","0","2 hrs","null","<div style=""font-size:60px;"">+</div>","null","","","","","","",""
"","","","","","audio-keyboard-response","325","2.0.0","325035","pr53p8bf9od","ono","gecko","22","female","no","no","0","2 hrs","null","stimuli/sounds/cough_label_B.wav","null","","","","","","",""
"","","","","","html-keyboard-response","326","2.0.0","326051","pr53p8bf9od","ono","gecko","22","female","no","no","0","2 hrs","null","","null","","","","","","",""
"","","","","","image-keyboard-response","327","2.0.0","327482","pr53p8bf9od","ono","gecko","22","female","no","no","0","2 hrs","1429","stimuli/pictures/drop_single_2.jpg","0","0","","true","no","sound","stimuli/sounds/cough_label_B.wav",""
"","","","","","audio-keyboard-response","328","2.0.0","328488","pr53p8bf9od","ono","gecko","22","female","no","no","0","2 hrs","null","stimuli/sounds/bleep.wav","null","","","","","","",""
"","","","","","html-keyboard-response","329","2.0.0","328931","pr53p8bf9od","ono","gecko","22","female","no","no","0","2 hrs","331","<div style=""font-size:30px;"">Press space to start the trial</div>"," ","","","","","","",""
"","","","","","html-keyboard-response","330","2.0.0","329192","pr53p8bf9od","ono","gecko","22","female","no","no","0","2 hrs","null","<div style=""font-size:60px;"">+</div>","null","","","","","","",""
"","","","","","audio-keyboard-response","331","2.0.0","329795","pr53p8bf9od","ono","gecko","22","female","no","no","0","2 hrs","null","stimuli/sounds/drop_label_B.wav","null","","","","","","",""
"","","","","","html-keyboard-response","332","2.0.0","330807","pr53p8bf9od","ono","gecko","22","female","no","no","0","2 hrs","null","","null","","","","","","",""
"","","","","","image-keyboard-response","333","2.0.0","331588","pr53p8bf9od","ono","gecko","22","female","no","no","0","2 hrs","780","stimuli/pictures/motor_harley_2.jpg","0","0","","true","no","sound","stimuli/sounds/drop_label_B.wav",""
"","","","","","audio-keyboard-response","334","2.0.0","332604","pr53p8bf9od","ono","gecko","22","female","no","no","0","2 hrs","null","stimuli/sounds/bleep.wav","null","","","","","","",""
"","","","","","html-keyboard-response","335","2.0.0","333269","pr53p8bf9od","ono","gecko","22","female","no","no","0","2 hrs","559","<div style=""font-size:30px;"">Press space to start the trial</div>"," ","","","","","","",""
"","","","","","html-keyboard-response","336","2.0.0","333520","pr53p8bf9od","ono","gecko","22","female","no","no","0","2 hrs","null","<div style=""font-size:60px;"">+</div>","null","","","","","","",""
"","","","","","audio-keyboard-response","337","2.0.0","334125","pr53p8bf9od","ono","gecko","22","female","no","no","0","2 hrs","null","stimuli/sounds/dog_sound_A.wav","null","","","","","","",""
"","","","","","html-keyboard-response","338","2.0.0","335130","pr53p8bf9od","ono","gecko","22","female","no","no","0","2 hrs","null","","null","","","","","","",""
"","","","","","image-keyboard-response","339","2.0.0","335923","pr53p8bf9od","ono","gecko","22","female","no","no","0","2 hrs","790","stimuli/pictures/hiccup_man_2.jpg","0","0","","true","no","sound","stimuli/sounds/dog_sound_A.wav",""
"","","","","","audio-keyboard-response","340","2.0.0","336930","pr53p8bf9od","ono","gecko","22","female","no","no","0","2 hrs","null","stimuli/sounds/bleep.wav","null","","","","","","",""
"","","","","","html-keyboard-response","341","2.0.0","337347","pr53p8bf9od","ono","gecko","22","female","no","no","0","2 hrs","304","<div style=""font-size:30px;"">Press space to start the trial</div>"," ","","","","","","",""
"","","","","","html-keyboard-response","342","2.0.0","337610","pr53p8bf9od","ono","gecko","22","female","no","no","0","2 hrs","null","<div style=""font-size:60px;"">+</div>","null","","","","","","",""
"","","","","","audio-keyboard-response","343","2.0.0","338215","pr53p8bf9od","ono","gecko","22","female","no","no","0","2 hrs","null","stimuli/sounds/hiccup_sound_B.wav","null","","","","","","",""
"","","","","","html-keyboard-response","344","2.0.0","339230","pr53p8bf9od","ono","gecko","22","female","no","no","0","2 hrs","null","","null","","","","","","",""
"","","","","","image-keyboard-response","345","2.0.0","340107","pr53p8bf9od","ono","gecko","22","female","no","no","0","2 hrs","875","stimuli/pictures/hiccup_man_2.jpg","1","1","","true","yes","sound","stimuli/sounds/hiccup_sound_B.wav",""
"","","","","","audio-keyboard-response","346","2.0.0","341116","pr53p8bf9od","ono","gecko","22","female","no","no","0","2 hrs","null","stimuli/sounds/bleep.wav","null","","","","","","",""
"","","","","","html-keyboard-response","347","2.0.0","341513","pr53p8bf9od","ono","gecko","22","female","no","no","0","2 hrs","285","<div style=""font-size:30px;"">Press space to start the trial</div>"," ","","","","","","",""
"","","","","","html-keyboard-response","348","2.0.0","341778","pr53p8bf9od","ono","gecko","22","female","no","no","0","2 hrs","null","<div style=""font-size:60px;"">+</div>","null","","","","","","",""
"","","","","","audio-keyboard-response","349","2.0.0","342385","pr53p8bf9od","ono","gecko","22","female","no","no","0","2 hrs","null","stimuli/sounds/hiccup_sound_B.wav","null","","","","","","",""
"","","","","","html-keyboard-response","350","2.0.0","343394","pr53p8bf9od","ono","gecko","22","female","no","no","0","2 hrs","null","","null","","","","","","",""
"","","","","","image-keyboard-response","351","2.0.0","343952","pr53p8bf9od","ono","gecko","22","female","no","no","0","2 hrs","554","stimuli/pictures/drop_single_1.jpg","0","0","","true","no","sound","stimuli/sounds/hiccup_sound_B.wav",""
"","","","","","audio-keyboard-response","352","2.0.0","344962","pr53p8bf9od","ono","gecko","22","female","no","no","0","2 hrs","null","stimuli/sounds/bleep.wav","null","","","","","","",""
"","","","","","html-keyboard-response","353","2.0.0","345420","pr53p8bf9od","ono","gecko","22","female","no","no","0","2 hrs","342","<div style=""font-size:30px;"">Press space to start the trial</div>"," ","","","","","","",""
"","","","","","html-keyboard-response","354","2.0.0","345681","pr53p8bf9od","ono","gecko","22","female","no","no","0","2 hrs","null","<div style=""font-size:60px;"">+</div>","null","","","","","","",""
"","","","","","audio-keyboard-response","355","2.0.0","346285","pr53p8bf9od","ono","gecko","22","female","no","no","0","2 hrs","null","stimuli/sounds/hiccup_sound_B.wav","null","","","","","","",""
"","","","","","html-keyboard-response","356","2.0.0","347297","pr53p8bf9od","ono","gecko","22","female","no","no","0","2 hrs","null","","null","","","","","","",""
"","","","","","image-keyboard-response","357","2.0.0","347902","pr53p8bf9od","ono","gecko","22","female","no","no","0","2 hrs","602","stimuli/pictures/drop_multi_1.jpg","0","0","","true","no","sound","stimuli/sounds/hiccup_sound_B.wav",""
"","","","","","audio-keyboard-response","358","2.0.0","348905","pr53p8bf9od","ono","gecko","22","female","no","no","0","2 hrs","null","stimuli/sounds/bleep.wav","null","","","","","","",""
"","","","","","html-keyboard-response","359","2.0.0","349374","pr53p8bf9od","ono","gecko","22","female","no","no","0","2 hrs","359","<div style=""font-size:30px;"">Press space to start the trial</div>"," ","","","","","","",""
"","","","","","html-keyboard-response","360","2.0.0","349630","pr53p8bf9od","ono","gecko","22","female","no","no","0","2 hrs","null","<div style=""font-size:60px;"">+</div>","null","","","","","","",""
"","","","","","audio-keyboard-response","361","2.0.0","350225","pr53p8bf9od","ono","gecko","22","female","no","no","0","2 hrs","null","stimuli/sounds/motor_sound_A.wav","null","","","","","","",""
"","","","","","html-keyboard-response","362","2.0.0","351234","pr53p8bf9od","ono","gecko","22","female","no","no","0","2 hrs","null","","null","","","","","","",""
"","","","","","image-keyboard-response","363","2.0.0","351933","pr53p8bf9od","ono","gecko","22","female","no","no","0","2 hrs","696","stimuli/pictures/motor_harley_2.jpg","1","1","","true","no","sound","stimuli/sounds/motor_sound_A.wav",""
"","","","","","audio-keyboard-response","364","2.0.0","352947","pr53p8bf9od","ono","gecko","22","female","no","no","0","2 hrs","null","stimuli/sounds/bleep.wav","null","","","","","","",""
"","","","","","html-keyboard-response","365","2.0.0","353559","pr53p8bf9od","ono","gecko","22","female","no","no","0","2 hrs","499","<div style=""font-size:30px;"">Press space to start the trial</div>"," ","","","","","","",""
"","","","","","html-keyboard-response","366","2.0.0","353818","pr53p8bf9od","ono","gecko","22","female","no","no","0","2 hrs","null","<div style=""font-size:60px;"">+</div>","null","","","","","","",""
"","","","","","audio-keyboard-response","367","2.0.0","354485","pr53p8bf9od","ono","gecko","22","female","no","no","0","2 hrs","null","stimuli/sounds/cough_sound_A.wav","null","","","","","","",""
"","","","","","html-keyboard-response","368","2.0.0","355500","pr53p8bf9od","ono","gecko","22","female","no","no","0","2 hrs","null","","null","","","","","","",""
"","","","","","image-keyboard-response","369","2.0.0","356819","pr53p8bf9od","ono","gecko","22","female","no","no","0","2 hrs","1317","stimuli/pictures/dog_york_1.jpg","0","0","","true","no","sound","stimuli/sounds/cough_sound_A.wav",""
"","","","","","audio-keyboard-response","370","2.0.0","357830","pr53p8bf9od","ono","gecko","22","female","no","no","0","2 hrs","null","stimuli/sounds/bleep.wav","null","","","","","","",""
"","","","","","html-keyboard-response","371","2.0.0","358283","pr53p8bf9od","ono","gecko","22","female","no","no","0","2 hrs","350","<div style=""font-size:30px;"">Press space to start the trial</div>"," ","","","","","","",""
"","","","","","html-keyboard-response","372","2.0.0","358545","pr53p8bf9od","ono","gecko","22","female","no","no","0","2 hrs","null","<div style=""font-size:60px;"">+</div>","null","","","","","","",""
"","","","","","audio-keyboard-response","373","2.0.0","359215","pr53p8bf9od","ono","gecko","22","female","no","no","0","2 hrs","null","stimuli/sounds/cough_sound_A.wav","null","","","","","","",""
"","","","","","html-keyboard-response","374","2.0.0","360229","pr53p8bf9od","ono","gecko","22","female","no","no","0","2 hrs","null","","null","","","","","","",""
"","","","","","image-keyboard-response","375","2.0.0","361187","pr53p8bf9od","ono","gecko","22","female","no","no","0","2 hrs","956","stimuli/pictures/cough_man_2.jpg","1","1","","true","no","sound","stimuli/sounds/cough_sound_A.wav",""
"","","","","","audio-keyboard-response","376","2.0.0","362199","pr53p8bf9od","ono","gecko","22","female","no","no","0","2 hrs","null","stimuli/sounds/bleep.wav","null","","","","","","",""
"","","","","","html-keyboard-response","377","2.0.0","362570","pr53p8bf9od","ono","gecko","22","female","no","no","0","2 hrs","265","<div style=""font-size:30px;"">Press space to start the trial</div>"," ","","","","","","",""
"","","","","","html-keyboard-response","378","2.0.0","362823","pr53p8bf9od","ono","gecko","22","female","no","no","0","2 hrs","null","<div style=""font-size:60px;"">+</div>","null","","","","","","",""
"","","","","","audio-keyboard-response","379","2.0.0","363495","pr53p8bf9od","ono","gecko","22","female","no","no","0","2 hrs","null","stimuli/sounds/cough_sound_B.wav","null","","","","","","",""
"","","","","","html-keyboard-response","380","2.0.0","364503","pr53p8bf9od","ono","gecko","22","female","no","no","0","2 hrs","null","","null","","","","","","",""
"","","","","","image-keyboard-response","381","2.0.0","365508","pr53p8bf9od","ono","gecko","22","female","no","no","0","2 hrs","1002","stimuli/pictures/hiccup_man_2.jpg","0","0","","true","no","sound","stimuli/sounds/cough_sound_B.wav",""
"","","","","","audio-keyboard-response","382","2.0.0","366515","pr53p8bf9od","ono","gecko","22","female","no","no","0","2 hrs","null","stimuli/sounds/bleep.wav","null","","","","","","",""
"","","","","","html-keyboard-response","383","2.0.0","366935","pr53p8bf9od","ono","gecko","22","female","no","no","0","2 hrs","315","<div style=""font-size:30px;"">Press space to start the trial</div>"," ","","","","","","",""
"","","","","","html-keyboard-response","384","2.0.0","367194","pr53p8bf9od","ono","gecko","22","female","no","no","0","2 hrs","null","<div style=""font-size:60px;"">+</div>","null","","","","","","",""
"","","","","","audio-keyboard-response","385","2.0.0","367805","pr53p8bf9od","ono","gecko","22","female","no","no","0","2 hrs","null","stimuli/sounds/hiccup_sound_A.wav","null","","","","","","",""
"","","","","","html-keyboard-response","386","2.0.0","368818","pr53p8bf9od","ono","gecko","22","female","no","no","0","2 hrs","null","","null","","","","","","",""
"","","","","","image-keyboard-response","387","2.0.0","369550","pr53p8bf9od","ono","gecko","22","female","no","no","0","2 hrs","730","stimuli/pictures/hiccup_man_2.jpg","1","1","","true","no","sound","stimuli/sounds/hiccup_sound_A.wav",""
"","","","","","audio-keyboard-response","388","2.0.0","370561","pr53p8bf9od","ono","gecko","22","female","no","no","0","2 hrs","null","stimuli/sounds/bleep.wav","null","","","","","","",""
"","","","","","html-keyboard-response","389","2.0.0","373220","pr53p8bf9od","ono","gecko","22","female","no","no","0","2 hrs","2548","<p>You have completed a block. Press R when you are ready to continue</p>","r","","","","","","",""
"","","","","","html-keyboard-response","390","2.0.0","374477","pr53p8bf9od","ono","gecko","22","female","no","no","0","2 hrs","1256","<div style=""font-size:30px;"">Press space to start the trial</div>"," ","","","","","","",""
"","","","","","html-keyboard-response","391","2.0.0","374738","pr53p8bf9od","ono","gecko","22","female","no","no","0","2 hrs","null","<div style=""font-size:60px;"">+</div>","null","","","","","","",""
"","","","","","audio-keyboard-response","392","2.0.0","375345","pr53p8bf9od","ono","gecko","22","female","no","no","0","2 hrs","null","stimuli/sounds/hiccup_label_B.wav","null","","","","","","",""
"","","","","","html-keyboard-response","393","2.0.0","376355","pr53p8bf9od","ono","gecko","22","female","no","no","0","2 hrs","null","","null","","","","","","",""
"","","","","","image-keyboard-response","394","2.0.0","378872","pr53p8bf9od","ono","gecko","22","female","no","no","0","2 hrs","2514","stimuli/pictures/hiccup_wom_1.jpg","1","1","","true","yes","sound","stimuli/sounds/hiccup_label_B.wav",""
"","","","","","audio-keyboard-response","395","2.0.0","379880","pr53p8bf9od","ono","gecko","22","female","no","no","0","2 hrs","null","stimuli/sounds/bleep.wav","null","","","","","","",""
"","","","","","html-keyboard-response","396","2.0.0","380339","pr53p8bf9od","ono","gecko","22","female","no","no","0","2 hrs","345","<div style=""font-size:30px;"">Press space to start the trial</div>"," ","","","","","","",""
"","","","","","html-keyboard-response","397","2.0.0","380606","pr53p8bf9od","ono","gecko","22","female","no","no","0","2 hrs","null","<div style=""font-size:60px;"">+</div>","null","","","","","","",""
"","","","","","audio-keyboard-response","398","2.0.0","381215","pr53p8bf9od","ono","gecko","22","female","no","no","0","2 hrs","null","stimuli/sounds/cough_label_B.wav","null","","","","","","",""
"","","","","","html-keyboard-response","399","2.0.0","382216","pr53p8bf9od","ono","gecko","22","female","no","no","0","2 hrs","null","","null","","","","","","",""
"","","","","","image-keyboard-response","400","2.0.0","383658","pr53p8bf9od","ono","gecko","22","female","no","no","0","2 hrs","1439","stimuli/pictures/cough_man_2.jpg","1","1","","true","yes","sound","stimuli/sounds/cough_label_B.wav",""
"","","","","","audio-keyboard-response","401","2.0.0","384672","pr53p8bf9od","ono","gecko","22","female","no","no","0","2 hrs","null","stimuli/sounds/bleep.wav","null","","","","","","",""
"","","","","","html-keyboard-response","402","2.0.0","385097","pr53p8bf9od","ono","gecko","22","female","no","no","0","2 hrs","312","<div style=""font-size:30px;"">Press space to start the trial</div>"," ","","","","","","",""
"","","","","","html-keyboard-response","403","2.0.0","385359","pr53p8bf9od","ono","gecko","22","female","no","no","0","2 hrs","null","<div style=""font-size:60px;"">+</div>","null","","","","","","",""
"","","","","","audio-keyboard-response","404","2.0.0","385895","pr53p8bf9od","ono","gecko","22","female","no","no","0","2 hrs","null","stimuli/sounds/hiccup_label_A.wav","null","","","","","","",""
"","","","","","html-keyboard-response","405","2.0.0","386902","pr53p8bf9od","ono","gecko","22","female","no","no","0","2 hrs","null","","null","","","","","","",""
"","","","","","image-keyboard-response","406","2.0.0","387556","pr53p8bf9od","ono","gecko","22","female","no","no","0","2 hrs","650","stimuli/pictures/hiccup_man_2.jpg","1","1","","true","yes","sound","stimuli/sounds/hiccup_label_A.wav",""
"","","","","","audio-keyboard-response","407","2.0.0","388573","pr53p8bf9od","ono","gecko","22","female","no","no","0","2 hrs","null","stimuli/sounds/bleep.wav","null","","","","","","",""
"","","","","","html-keyboard-response","408","2.0.0","388955","pr53p8bf9od","ono","gecko","22","female","no","no","0","2 hrs","269","<div style=""font-size:30px;"">Press space to start the trial</div>"," ","","","","","","",""
"","","","","","html-keyboard-response","409","2.0.0","389209","pr53p8bf9od","ono","gecko","22","female","no","no","0","2 hrs","null","<div style=""font-size:60px;"">+</div>","null","","","","","","",""
"","","","","","audio-keyboard-response","410","2.0.0","389815","pr53p8bf9od","ono","gecko","22","female","no","no","0","2 hrs","null","stimuli/sounds/cough_label_B.wav","null","","","","","","",""
"","","","","","html-keyboard-response","411","2.0.0","390820","pr53p8bf9od","ono","gecko","22","female","no","no","0","2 hrs","null","","null","","","","","","",""
"","","","","","image-keyboard-response","412","2.0.0","391482","pr53p8bf9od","ono","gecko","22","female","no","no","0","2 hrs","660","stimuli/pictures/cough_wom_2.jpg","1","1","","true","yes","sound","stimuli/sounds/cough_label_B.wav",""
"","","","","","audio-keyboard-response","413","2.0.0","392488","pr53p8bf9od","ono","gecko","22","female","no","no","0","2 hrs","null","stimuli/sounds/bleep.wav","null","","","","","","",""
"","","","","","html-keyboard-response","414","2.0.0","392877","pr53p8bf9od","ono","gecko","22","female","no","no","0","2 hrs","274","<div style=""font-size:30px;"">Press space to start the trial</div>"," ","","","","","","",""
"","","","","","html-keyboard-response","415","2.0.0","393135","pr53p8bf9od","ono","gecko","22","female","no","no","0","2 hrs","null","<div style=""font-size:60px;"">+</div>","null","","","","","","",""
"","","","","","audio-keyboard-response","416","2.0.0","393735","pr53p8bf9od","ono","gecko","22","female","no","no","0","2 hrs","null","stimuli/sounds/motor_sound_B.wav","null","","","","","","",""
"","","","","","html-keyboard-response","417","2.0.0","394751","pr53p8bf9od","ono","gecko","22","female","no","no","0","2 hrs","null","","null","","","","","","",""
"","","","","","image-keyboard-response","418","2.0.0","395575","pr53p8bf9od","ono","gecko","22","female","no","no","0","2 hrs","822","stimuli/pictures/motor_dirt_2.jpg","1","1","","true","no","sound","stimuli/sounds/motor_sound_B.wav",""
"","","","","","audio-keyboard-response","419","2.0.0","396590","pr53p8bf9od","ono","gecko","22","female","no","no","0","2 hrs","null","stimuli/sounds/bleep.wav","null","","","","","","",""
"","","","","","html-keyboard-response","420","2.0.0","396997","pr53p8bf9od","ono","gecko","22","female","no","no","0","2 hrs","298","<div style=""font-size:30px;"">Press space to start the trial</div>"," ","","","","","","",""
"","","","","","html-keyboard-response","421","2.0.0","397258","pr53p8bf9od","ono","gecko","22","female","no","no","0","2 hrs","null","<div style=""font-size:60px;"">+</div>","null","","","","","","",""
"","","","","","audio-keyboard-response","422","2.0.0","397865","pr53p8bf9od","ono","gecko","22","female","no","no","0","2 hrs","null","stimuli/sounds/dog_sound_A.wav","null","","","","","","",""
"","","","","","html-keyboard-response","423","2.0.0","398870","pr53p8bf9od","ono","gecko","22","female","no","no","0","2 hrs","null","","null","","","","","","",""
"","","","","","image-keyboard-response","424","2.0.0","399963","pr53p8bf9od","ono","gecko","22","female","no","no","0","2 hrs","1090","stimuli/pictures/dog_york_1.jpg","1","1","","true","no","sound","stimuli/sounds/dog_sound_A.wav",""
"","","","","","audio-keyboard-response","425","2.0.0","400967","pr53p8bf9od","ono","gecko","22","female","no","no","0","2 hrs","null","stimuli/sounds/bleep.wav","null","","","","","","",""
"","","","","","html-keyboard-response","426","2.0.0","401668","pr53p8bf9od","ono","gecko","22","female","no","no","0","2 hrs","587","<div style=""font-size:30px;"">Press space to start the trial</div>"," ","","","","","","",""
"","","","","","html-keyboard-response","427","2.0.0","401930","pr53p8bf9od","ono","gecko","22","female","no","no","0","2 hrs","null","<div style=""font-size:60px;"">+</div>","null","","","","","","",""
"","","","","","audio-keyboard-response","428","2.0.0","402555","pr53p8bf9od","ono","gecko","22","female","no","no","0","2 hrs","null","stimuli/sounds/cough_label_A.wav","null","","","","","","",""
"","","","","","html-keyboard-response","429","2.0.0","403567","pr53p8bf9od","ono","gecko","22","female","no","no","0","2 hrs","null","","null","","","","","","",""
"","","","","","image-keyboard-response","430","2.0.0","404123","pr53p8bf9od","ono","gecko","22","female","no","no","0","2 hrs","554","stimuli/pictures/motor_dirt_2.jpg","0","0","","true","no","sound","stimuli/sounds/cough_label_A.wav",""
"","","","","","audio-keyboard-response","431","2.0.0","405143","pr53p8bf9od","ono","gecko","22","female","no","no","0","2 hrs","null","stimuli/sounds/bleep.wav","null","","","","","","",""
"","","","","","html-keyboard-response","432","2.0.0","405779","pr53p8bf9od","ono","gecko","22","female","no","no","0","2 hrs","526","<div style=""font-size:30px;"">Press space to start the trial</div>"," ","","","","","","",""
"","","","","","html-keyboard-response","433","2.0.0","406034","pr53p8bf9od","ono","gecko","22","female","no","no","0","2 hrs","null","<div style=""font-size:60px;"">+</div>","null","","","","","","",""
"","","","","","audio-keyboard-response","434","2.0.0","406645","pr53p8bf9od","ono","gecko","22","female","no","no","0","2 hrs","null","stimuli/sounds/hiccup_label_B.wav","null","","","","","","",""
"","","","","","html-keyboard-response","435","2.0.0","407662","pr53p8bf9od","ono","gecko","22","female","no","no","0","2 hrs","null","","null","","","","","","",""
"","","","","","image-keyboard-response","436","2.0.0","408500","pr53p8bf9od","ono","gecko","22","female","no","no","0","2 hrs","836","stimuli/pictures/dog_rott_1.jpg","0","0","","true","no","sound","stimuli/sounds/hiccup_label_B.wav",""
"","","","","","audio-keyboard-response","437","2.0.0","409517","pr53p8bf9od","ono","gecko","22","female","no","no","0","2 hrs","null","stimuli/sounds/bleep.wav","null","","","","","","",""
"","","","","","html-keyboard-response","438","2.0.0","409920","pr53p8bf9od","ono","gecko","22","female","no","no","0","2 hrs","291","<div style=""font-size:30px;"">Press space to start the trial</div>"," ","","","","","","",""
"","","","","","html-keyboard-response","439","2.0.0","410186","pr53p8bf9od","ono","gecko","22","female","no","no","0","2 hrs","null","<div style=""font-size:60px;"">+</div>","null","","","","","","",""
"","","","","","audio-keyboard-response","440","2.0.0","410785","pr53p8bf9od","ono","gecko","22","female","no","no","0","2 hrs","null","stimuli/sounds/motor_sound_A.wav","null","","","","","","",""
"","","","","","html-keyboard-response","441","2.0.0","411790","pr53p8bf9od","ono","gecko","22","female","no","no","0","2 hrs","null","","null","","","","","","",""
"","","","","","image-keyboard-response","442","2.0.0","412546","pr53p8bf9od","ono","gecko","22","female","no","no","0","2 hrs","753","stimuli/pictures/drop_multi_2.jpg","0","0","","true","no","sound","stimuli/sounds/motor_sound_A.wav",""
"","","","","","audio-keyboard-response","443","2.0.0","413557","pr53p8bf9od","ono","gecko","22","female","no","no","0","2 hrs","null","stimuli/sounds/bleep.wav","null","","","","","","",""
"","","","","","html-keyboard-response","444","2.0.0","413951","pr53p8bf9od","ono","gecko","22","female","no","no","0","2 hrs","286","<div style=""font-size:30px;"">Press space to start the trial</div>"," ","","","","","","",""
"","","","","","html-keyboard-response","445","2.0.0","414216","pr53p8bf9od","ono","gecko","22","female","no","no","0","2 hrs","null","<div style=""font-size:60px;"">+</div>","null","","","","","","",""
"","","","","","audio-keyboard-response","446","2.0.0","414815","pr53p8bf9od","ono","gecko","22","female","no","no","0","2 hrs","null","stimuli/sounds/motor_sound_A.wav","null","","","","","","",""
"","","","","","html-keyboard-response","447","2.0.0","415828","pr53p8bf9od","ono","gecko","22","female","no","no","0","2 hrs","null","","null","","","","","","",""
"","","","","","image-keyboard-response","448","2.0.0","416312","pr53p8bf9od","ono","gecko","22","female","no","no","0","2 hrs","481","stimuli/pictures/drop_single_2.jpg","0","0","","true","no","sound","stimuli/sounds/motor_sound_A.wav",""
"","","","","","audio-keyboard-response","449","2.0.0","417325","pr53p8bf9od","ono","gecko","22","female","no","no","0","2 hrs","null","stimuli/sounds/bleep.wav","null","","","","","","",""
"","","","","","html-keyboard-response","450","2.0.0","417711","pr53p8bf9od","ono","gecko","22","female","no","no","0","2 hrs","273","<div style=""font-size:30px;"">Press space to start the trial</div>"," ","","","","","","",""
"","","","","","html-keyboard-response","451","2.0.0","417964","pr53p8bf9od","ono","gecko","22","female","no","no","0","2 hrs","null","<div style=""font-size:60px;"">+</div>","null","","","","","","",""
"","","","","","audio-keyboard-response","452","2.0.0","418595","pr53p8bf9od","ono","gecko","22","female","no","no","0","2 hrs","null","stimuli/sounds/cough_label_A.wav","null","","","","","","",""
"","","","","","html-keyboard-response","453","2.0.0","419598","pr53p8bf9od","ono","gecko","22","female","no","no","0","2 hrs","null","","null","","","","","","",""
"","","","","","image-keyboard-response","454","2.0.0","420149","pr53p8bf9od","ono","gecko","22","female","no","no","0","2 hrs","548","stimuli/pictures/motor_harley_2.jpg","0","0","","true","no","sound","stimuli/sounds/cough_label_A.wav",""
"","","","","","audio-keyboard-response","455","2.0.0","421166","pr53p8bf9od","ono","gecko","22","female","no","no","0","2 hrs","null","stimuli/sounds/bleep.wav","null","","","","","","",""
"","","","","","html-keyboard-response","456","2.0.0","421540","pr53p8bf9od","ono","gecko","22","female","no","no","0","2 hrs","259","<div style=""font-size:30px;"">Press space to start the trial</div>"," ","","","","","","",""
"","","","","","html-keyboard-response","457","2.0.0","421800","pr53p8bf9od","ono","gecko","22","female","no","no","0","2 hrs","null","<div style=""font-size:60px;"">+</div>","null","","","","","","",""
"","","","","","audio-keyboard-response","458","2.0.0","422405","pr53p8bf9od","ono","gecko","22","female","no","no","0","2 hrs","null","stimuli/sounds/hiccup_sound_B.wav","null","","","","","","",""
"","","","","","html-keyboard-response","459","2.0.0","423417","pr53p8bf9od","ono","gecko","22","female","no","no","0","2 hrs","null","","null","","","","","","",""
"","","","","","image-keyboard-response","460","2.0.0","424651","pr53p8bf9od","ono","gecko","22","female","no","no","0","2 hrs","1231","stimuli/pictures/hiccup_wom_2.jpg","1","1","","true","no","sound","stimuli/sounds/hiccup_sound_B.wav",""
"","","","","","audio-keyboard-response","461","2.0.0","425659","pr53p8bf9od","ono","gecko","22","female","no","no","0","2 hrs","null","stimuli/sounds/bleep.wav","null","","","","","","",""
"","","","","","html-keyboard-response","462","2.0.0","426038","pr53p8bf9od","ono","gecko","22","female","no","no","0","2 hrs","267","<div style=""font-size:30px;"">Press space to start the trial</div>"," ","","","","","","",""
"","","","","","html-keyboard-response","463","2.0.0","426299","pr53p8bf9od","ono","gecko","22","female","no","no","0","2 hrs","null","<div style=""font-size:60px;"">+</div>","null","","","","","","",""
"","","","","","audio-keyboard-response","464","2.0.0","426835","pr53p8bf9od","ono","gecko","22","female","no","no","0","2 hrs","null","stimuli/sounds/hiccup_label_A.wav","null","","","","","","",""
"","","","","","html-keyboard-response","465","2.0.0","427839","pr53p8bf9od","ono","gecko","22","female","no","no","0","2 hrs","null","","null","","","","","","",""
"","","","","","image-keyboard-response","466","2.0.0","429068","pr53p8bf9od","ono","gecko","22","female","no","no","0","2 hrs","1227","stimuli/pictures/hiccup_man_1.jpg","1","1","","true","yes","sound","stimuli/sounds/hiccup_label_A.wav",""
"","","","","","audio-keyboard-response","467","2.0.0","430074","pr53p8bf9od","ono","gecko","22","female","no","no","0","2 hrs","null","stimuli/sounds/bleep.wav","null","","","","","","",""
"","","","","","html-keyboard-response","468","2.0.0","430440","pr53p8bf9od","ono","gecko","22","female","no","no","0","2 hrs","259","<div style=""font-size:30px;"">Press space to start the trial</div>"," ","","","","","","",""
"","","","","","html-keyboard-response","469","2.0.0","430703","pr53p8bf9od","ono","gecko","22","female","no","no","0","2 hrs","null","<div style=""font-size:60px;"">+</div>","null","","","","","","",""
"","","","","","audio-keyboard-response","470","2.0.0","431245","pr53p8bf9od","ono","gecko","22","female","no","no","0","2 hrs","null","stimuli/sounds/drop_label_A.wav","null","","","","","","",""
"","","","","","html-keyboard-response","471","2.0.0","432254","pr53p8bf9od","ono","gecko","22","female","no","no","0","2 hrs","null","","null","","","","","","",""
"","","","","","image-keyboard-response","472","2.0.0","432913","pr53p8bf9od","ono","gecko","22","female","no","no","0","2 hrs","657","stimuli/pictures/drop_multi_1.jpg","1","1","","true","yes","sound","stimuli/sounds/drop_label_A.wav",""
"","","","","","audio-keyboard-response","473","2.0.0","433931","pr53p8bf9od","ono","gecko","22","female","no","no","0","2 hrs","null","stimuli/sounds/bleep.wav","null","","","","","","",""
"","","","","","html-keyboard-response","474","2.0.0","434368","pr53p8bf9od","ono","gecko","22","female","no","no","0","2 hrs","325","<div style=""font-size:30px;"">Press space to start the trial</div>"," ","","","","","","",""
"","","","","","html-keyboard-response","475","2.0.0","434634","pr53p8bf9od","ono","gecko","22","female","no","no","0","2 hrs","null","<div style=""font-size:60px;"">+</div>","null","","","","","","",""
"","","","","","audio-keyboard-response","476","2.0.0","435255","pr53p8bf9od","ono","gecko","22","female","no","no","0","2 hrs","null","stimuli/sounds/drop_label_B.wav","null","","","","","","",""
"","","","","","html-keyboard-response","477","2.0.0","436259","pr53p8bf9od","ono","gecko","22","female","no","no","0","2 hrs","null","","null","","","","","","",""
"","","","","","image-keyboard-response","478","2.0.0","436763","pr53p8bf9od","ono","gecko","22","female","no","no","0","2 hrs","502","stimuli/pictures/drop_single_1.jpg","1","1","","true","yes","sound","stimuli/sounds/drop_label_B.wav",""
"","","","","","audio-keyboard-response","479","2.0.0","437777","pr53p8bf9od","ono","gecko","22","female","no","no","0","2 hrs","null","stimuli/sounds/bleep.wav","null","","","","","","",""
"","","","","","html-keyboard-response","480","2.0.0","438347","pr53p8bf9od","ono","gecko","22","female","no","no","0","2 hrs","460","<div style=""font-size:30px;"">Press space to start the trial</div>"," ","","","","","","",""
"","","","","","html-keyboard-response","481","2.0.0","438606","pr53p8bf9od","ono","gecko","22","female","no","no","0","2 hrs","null","<div style=""font-size:60px;"">+</div>","null","","","","","","",""
"","","","","","audio-keyboard-response","482","2.0.0","439205","pr53p8bf9od","ono","gecko","22","female","no","no","0","2 hrs","null","stimuli/sounds/motor_sound_A.wav","null","","","","","","",""
"","","","","","html-keyboard-response","483","2.0.0","440220","pr53p8bf9od","ono","gecko","22","female","no","no","0","2 hrs","null","","null","","","","","","",""
