"success","timeout","failed_images","failed_audio","failed_video","trial_type","trial_index","plugin_version","time_elapsed","random_id","condition","participant","age","gender_id","mus_exp","inst_exp","years_exp","mus_listening","rt","stimulus","response","correct_response","practice","correct","congruent","sound_type","audio","question_order"
"true","false","[]","[]","[]","preload","0","2.0.0","531","prkw2s1ha2b","ono","owl","20","female","yes","yes","17","2","","","","","","","","","",""
"","","","","","html-keyboard-response","1","2.0.0","12546","prkw2s1ha2b","ono","owl","20","female","yes","yes","17","2","12014","Welcome to the experiment! Press any key to begin."," ","","","","","","",""
"true","","","","","fullscreen","2","null","15819","prkw2s1ha2b","ono","owl","20","female","yes","yes","17","2","2268","","","","","","","","",""
"","","","","","survey-text","3","2.0.0","21935","prkw2s1ha2b","ono","owl","20","female","yes","yes","17","2","6111","","{""participant_id"":""owl""}","","","","","","",""
"","","","","","html-keyboard-response","4","2.0.0","59933","prkw2s1ha2b","ono","owl","20","female","yes","yes","17","2","37996","
    <p> Please use headphones for the duration of the study.</p>
    <p> Within each trial, you will hear a sound and then be presented with an image in the center of your screen.</p>
    <p>Press the <b>'1'</b> key if what you hear <u>matches</u> what you see.</p>
    <p>Press the <b>'0'</b> key if what you hear <u>does not match</u> what you see.</p>
    <p>Try to respond as quickly and accurately as you can.</p>
    <p> Press any key to begin.</p>
    "," ","","","","","","",""
"","","","","","html-keyboard-response","5","2.0.0","62880","prkw2s1ha2b","ono","owl","20","female","yes","yes","17","2","2946","
    <div style=""font-size:28px;"">
      <p>You will now complete 4 short practice trials.</p>
      <p>This is just to help you get familiar with the task.</p>
      <p>Press any key to begin.</p>
    </div>
  "," ","","","","","","",""
"","","","","","html-keyboard-response","6","2.0.0","63382","prkw2s1ha2b","ono","owl","20","female","yes","yes","17","2","null","<div style=""font-size:60px;"">+</div>","null","","","","","","",""
"","","","","","audio-keyboard-response","7","2.0.0","63997","prkw2s1ha2b","ono","owl","20","female","yes","yes","17","2","null","stimuli/sounds/guitar_label_A.wav","null","","","","","","",""
"","","","","","image-keyboard-response","8","2.0.0","64508","prkw2s1ha2b","ono","owl","20","female","yes","yes","17","2","507","stimuli/pictures/guitar_acoustic_1.jpg","1","1","true","true","","","",""
"","","","","","audio-keyboard-response","9","2.0.0","65311","prkw2s1ha2b","ono","owl","20","female","yes","yes","17","2","null","stimuli/sounds/bleep.wav","null","","","","","","",""
"","","","","","html-keyboard-response","10","2.0.0","66014","prkw2s1ha2b","ono","owl","20","female","yes","yes","17","2","null","<p style='color:green; font-size:30px;'>Correct!</p>","null","","","","","","",""
"","","","","","html-keyboard-response","11","2.0.0","66517","prkw2s1ha2b","ono","owl","20","female","yes","yes","17","2","null","<div style=""font-size:60px;"">+</div>","null","","","","","","",""
"","","","","","audio-keyboard-response","12","2.0.0","67117","prkw2s1ha2b","ono","owl","20","female","yes","yes","17","2","null","stimuli/sounds/guitar_sound_B.wav","null","","","","","","",""
"","","","","","image-keyboard-response","13","2.0.0","67771","prkw2s1ha2b","ono","owl","20","female","yes","yes","17","2","652","stimuli/pictures/guitar_acoustic_2.jpg","1","1","true","true","","","",""
"","","","","","audio-keyboard-response","14","2.0.0","68573","prkw2s1ha2b","ono","owl","20","female","yes","yes","17","2","null","stimuli/sounds/bleep.wav","null","","","","","","",""
"","","","","","html-keyboard-response","15","2.0.0","69275","prkw2s1ha2b","ono","owl","20","female","yes","yes","17","2","null","<p style='color:green; font-size:30px;'>Correct!</p>","null","","","","","","",""
"","","","","","html-keyboard-response","16","2.0.0","69778","prkw2s1ha2b","ono","owl","20","female","yes","yes","17","2","null","<div style=""font-size:60px;"">+</div>","null","","","","","","",""
"","","","","","audio-keyboard-response","17","2.0.0","70381","prkw2s1ha2b","ono","owl","20","female","yes","yes","17","2","null","stimuli/sounds/flute_sound_A.wav","null","","","","","","",""
"","","","","","image-keyboard-response","18","2.0.0","71265","prkw2s1ha2b","ono","owl","20","female","yes","yes","17","2","883","stimuli/pictures/guitar_electric_1.jpg","0","0","true","true","","","",""
"","","","","","audio-keyboard-response","19","2.0.0","72067","prkw2s1ha2b","ono","owl","20","female","yes","yes","17","2","null","stimuli/sounds/bleep.wav","null","","","","","","",""
"","","","","","html-keyboard-response","20","2.0.0","72770","prkw2s1ha2b","ono","owl","20","female","yes","yes","17","2","null","<p style='color:green; font-size:30px;'>Correct!</p>","null","","","","","","",""
"","","","","","html-keyboard-response","21","2.0.0","73272","prkw2s1ha2b","ono","owl","20","female","yes","yes","17","2","null","<div style=""font-size:60px;"">+</div>","null","","","","","","",""
"","","","","","audio-keyboard-response","22","2.0.0","73873","prkw2s1ha2b","ono","owl","20","female","yes","yes","17","2","null","stimuli/sounds/guitar_sound_A.wav","null","","","","","","",""
"","","","","","image-keyboard-response","23","2.0.0","75112","prkw2s1ha2b","ono","owl","20","female","yes","yes","17","2","1238","stimuli/pictures/guitar_acoustic_1.jpg","0","1","true","false","","","",""
"","","","","","audio-keyboard-response","24","2.0.0","75915","prkw2s1ha2b","ono","owl","20","female","yes","yes","17","2","null","stimuli/sounds/buzz.wav","null","","","","","","",""
"","","","","","html-keyboard-response","25","2.0.0","76617","prkw2s1ha2b","ono","owl","20","female","yes","yes","17","2","null","<p style='color:red; font-size:30px;'>Incorrect</p>","null","","","","","","",""
"","","","","","html-keyboard-response","26","2.0.0","78539","prkw2s1ha2b","ono","owl","20","female","yes","yes","17","2","1920","<p>Practice complete. Press any key to begin the real experiment.</p>"," ","","","","","","",""
"","","","","","html-keyboard-response","27","2.0.0","80000","prkw2s1ha2b","ono","owl","20","female","yes","yes","17","2","1460","<div style=""font-size:30px;"">Press space to start the trial</div>"," ","","","","","","",""
"","","","","","html-keyboard-response","28","2.0.0","80252","prkw2s1ha2b","ono","owl","20","female","yes","yes","17","2","null","<div style=""font-size:60px;"">+</div>","null","","","","","","",""
"","","","","","audio-keyboard-response","29","2.0.0","80855","prkw2s1ha2b","ono","owl","20","female","yes","yes","17","2","null","stimuli/sounds/dog_sound_A.wav","null","","","","","","",""
"","","","","","html-keyboard-response","30","2.0.0","81856","prkw2s1ha2b","ono","owl","20","female","yes","yes","17","2","null","","null","","","","","","",""
"","","","","","image-keyboard-response","31","2.0.0","82547","prkw2s1ha2b","ono","owl","20","female","yes","yes","17","2","689","stimuli/pictures/hiccup_man_2.jpg","0","0","","true","no","sound","stimuli/sounds/dog_sound_A.wav",""
"","","","","","audio-keyboard-response","32","2.0.0","83551","prkw2s1ha2b","ono","owl","20","female","yes","yes","17","2","null","stimuli/sounds/bleep.wav","null","","","","","","",""
"","","","","","html-keyboard-response","33","2.0.0","88128","prkw2s1ha2b","ono","owl","20","female","yes","yes","17","2","4475","<div style=""font-size:30px;"">Press space to start the trial</div>"," ","","","","","","",""
"","","","","","html-keyboard-response","34","2.0.0","88380","prkw2s1ha2b","ono","owl","20","female","yes","yes","17","2","null","<div style=""font-size:60px;"">+</div>","null","","","","","","",""
"","","","","","audio-keyboard-response","35","2.0.0","88967","prkw2s1ha2b","ono","owl","20","female","yes","yes","17","2","null","stimuli/sounds/drop_sound_A.wav","null","","","","","","",""
"","","","","","html-keyboard-response","36","2.0.0","89969","prkw2s1ha2b","ono","owl","20","female","yes","yes","17","2","null","","null","","","","","","",""
"","","","","","image-keyboard-response","37","2.0.0","90864","prkw2s1ha2b","ono","owl","20","female","yes","yes","17","2","893","stimuli/pictures/drop_single_2.jpg","1","1","","true","yes","sound","stimuli/sounds/drop_sound_A.wav",""
"","","","","","audio-keyboard-response","38","2.0.0","91866","prkw2s1ha2b","ono","owl","20","female","yes","yes","17","2","null","stimuli/sounds/bleep.wav","null","","","","","","",""
"","","","","","html-keyboard-response","39","2.0.0","96560","prkw2s1ha2b","ono","owl","20","female","yes","yes","17","2","4592","<div style=""font-size:30px;"">Press space to start the trial</div>"," ","","","","","","",""
"","","","","","html-keyboard-response","40","2.0.0","96813","prkw2s1ha2b","ono","owl","20","female","yes","yes","17","2","null","<div style=""font-size:60px;"">+</div>","null","","","","","","",""
"","","","","","audio-keyboard-response","41","2.0.0","97415","prkw2s1ha2b","ono","owl","20","female","yes","yes","17","2","null","stimuli/sounds/motor_sound_A.wav","null","","","","","","",""
"","","","","","html-keyboard-response","42","2.0.0","98417","prkw2s1ha2b","ono","owl","20","female","yes","yes","17","2","null","","null","","","","","","",""
"","","","","","image-keyboard-response","43","2.0.0","99352","prkw2s1ha2b","ono","owl","20","female","yes","yes","17","2","933","stimuli/pictures/drop_single_2.jpg","0","0","","true","no","sound","stimuli/sounds/motor_sound_A.wav",""
"","","","","","audio-keyboard-response","44","2.0.0","100355","prkw2s1ha2b","ono","owl","20","female","yes","yes","17","2","null","stimuli/sounds/bleep.wav","null","","","","","","",""
"","","","","","html-keyboard-response","45","2.0.0","101552","prkw2s1ha2b","ono","owl","20","female","yes","yes","17","2","1095","<div style=""font-size:30px;"">Press space to start the trial</div>"," ","","","","","","",""
"","","","","","html-keyboard-response","46","2.0.0","101804","prkw2s1ha2b","ono","owl","20","female","yes","yes","17","2","null","<div style=""font-size:60px;"">+</div>","null","","","","","","",""
"","","","","","audio-keyboard-response","47","2.0.0","102412","prkw2s1ha2b","ono","owl","20","female","yes","yes","17","2","null","stimuli/sounds/cough_label_B.wav","null","","","","","","",""
"","","","","","html-keyboard-response","48","2.0.0","103414","prkw2s1ha2b","ono","owl","20","female","yes","yes","17","2","null","","null","","","","","","",""
"","","","","","image-keyboard-response","49","2.0.0","104460","prkw2s1ha2b","ono","owl","20","female","yes","yes","17","2","1044","stimuli/pictures/cough_wom_2.jpg","1","1","","true","yes","sound","stimuli/sounds/cough_label_B.wav",""
"","","","","","audio-keyboard-response","50","2.0.0","105462","prkw2s1ha2b","ono","owl","20","female","yes","yes","17","2","null","stimuli/sounds/bleep.wav","null","","","","","","",""
"","","","","","html-keyboard-response","51","2.0.0","106726","prkw2s1ha2b","ono","owl","20","female","yes","yes","17","2","1162","<div style=""font-size:30px;"">Press space to start the trial</div>"," ","","","","","","",""
"","","","","","html-keyboard-response","52","2.0.0","106979","prkw2s1ha2b","ono","owl","20","female","yes","yes","17","2","null","<div style=""font-size:60px;"">+</div>","null","","","","","","",""
"","","","","","audio-keyboard-response","53","2.0.0","107580","prkw2s1ha2b","ono","owl","20","female","yes","yes","17","2","null","stimuli/sounds/dog_sound_A.wav","null","","","","","","",""
"","","","","","html-keyboard-response","54","2.0.0","108581","prkw2s1ha2b","ono","owl","20","female","yes","yes","17","2","null","","null","","","","","","",""
"","","","","","image-keyboard-response","55","2.0.0","110065","prkw2s1ha2b","ono","owl","20","female","yes","yes","17","2","1483","stimuli/pictures/dog_rott_2.jpg","1","1","","true","yes","sound","stimuli/sounds/dog_sound_A.wav",""
"","","","","","audio-keyboard-response","56","2.0.0","111067","prkw2s1ha2b","ono","owl","20","female","yes","yes","17","2","null","stimuli/sounds/bleep.wav","null","","","","","","",""
"","","","","","html-keyboard-response","57","2.0.0","115073","prkw2s1ha2b","ono","owl","20","female","yes","yes","17","2","3903","<div style=""font-size:30px;"">Press space to start the trial</div>"," ","","","","","","",""
"","","","","","html-keyboard-response","58","2.0.0","115325","prkw2s1ha2b","ono","owl","20","female","yes","yes","17","2","null","<div style=""font-size:60px;"">+</div>","null","","","","","","",""
"","","","","","audio-keyboard-response","59","2.0.0","115932","prkw2s1ha2b","ono","owl","20","female","yes","yes","17","2","null","stimuli/sounds/drop_sound_B.wav","null","","","","","","",""
"","","","","","html-keyboard-response","60","2.0.0","116934","prkw2s1ha2b","ono","owl","20","female","yes","yes","17","2","null","","null","","","","","","",""
"","","","","","image-keyboard-response","61","2.0.0","119117","prkw2s1ha2b","ono","owl","20","female","yes","yes","17","2","2181","stimuli/pictures/dog_rott_1.jpg","0","0","","true","no","sound","stimuli/sounds/drop_sound_B.wav",""
"","","","","","audio-keyboard-response","62","2.0.0","120120","prkw2s1ha2b","ono","owl","20","female","yes","yes","17","2","null","stimuli/sounds/bleep.wav","null","","","","","","",""
"","","","","","html-keyboard-response","63","2.0.0","121130","prkw2s1ha2b","ono","owl","20","female","yes","yes","17","2","908","<div style=""font-size:30px;"">Press space to start the trial</div>"," ","","","","","","",""
"","","","","","html-keyboard-response","64","2.0.0","121383","prkw2s1ha2b","ono","owl","20","female","yes","yes","17","2","null","<div style=""font-size:60px;"">+</div>","null","","","","","","",""
"","","","","","audio-keyboard-response","65","2.0.0","121969","prkw2s1ha2b","ono","owl","20","female","yes","yes","17","2","null","stimuli/sounds/drop_sound_A.wav","null","","","","","","",""
"","","","","","html-keyboard-response","66","2.0.0","122972","prkw2s1ha2b","ono","owl","20","female","yes","yes","17","2","null","","null","","","","","","",""
"","","","","","image-keyboard-response","67","2.0.0","124050","prkw2s1ha2b","ono","owl","20","female","yes","yes","17","2","1077","stimuli/pictures/drop_single_1.jpg","1","1","","true","yes","sound","stimuli/sounds/drop_sound_A.wav",""
"","","","","","audio-keyboard-response","68","2.0.0","125052","prkw2s1ha2b","ono","owl","20","female","yes","yes","17","2","null","stimuli/sounds/bleep.wav","null","","","","","","",""
"","","","","","html-keyboard-response","69","2.0.0","125788","prkw2s1ha2b","ono","owl","20","female","yes","yes","17","2","634","<div style=""font-size:30px;"">Press space to start the trial</div>"," ","","","","","","",""
"","","","","","html-keyboard-response","70","2.0.0","126040","prkw2s1ha2b","ono","owl","20","female","yes","yes","17","2","null","<div style=""font-size:60px;"">+</div>","null","","","","","","",""
"","","","","","audio-keyboard-response","71","2.0.0","126647","prkw2s1ha2b","ono","owl","20","female","yes","yes","17","2","null","stimuli/sounds/hiccup_sound_A.wav","null","","","","","","",""
"","","","","","html-keyboard-response","72","2.0.0","127649","prkw2s1ha2b","ono","owl","20","female","yes","yes","17","2","null","","null","","","","","","",""
"","","","","","image-keyboard-response","73","2.0.0","128843","prkw2s1ha2b","ono","owl","20","female","yes","yes","17","2","1192","stimuli/pictures/motor_dirt_1.jpg","0","0","","true","no","sound","stimuli/sounds/hiccup_sound_A.wav",""
"","","","","","audio-keyboard-response","74","2.0.0","129845","prkw2s1ha2b","ono","owl","20","female","yes","yes","17","2","null","stimuli/sounds/bleep.wav","null","","","","","","",""
"","","","","","html-keyboard-response","75","2.0.0","132254","prkw2s1ha2b","ono","owl","20","female","yes","yes","17","2","2306","<div style=""font-size:30px;"">Press space to start the trial</div>"," ","","","","","","",""
"","","","","","html-keyboard-response","76","2.0.0","132506","prkw2s1ha2b","ono","owl","20","female","yes","yes","17","2","null","<div style=""font-size:60px;"">+</div>","null","","","","","","",""
"","","","","","audio-keyboard-response","77","2.0.0","133170","prkw2s1ha2b","ono","owl","20","female","yes","yes","17","2","null","stimuli/sounds/cough_sound_A.wav","null","","","","","","",""
"","","","","","html-keyboard-response","78","2.0.0","134172","prkw2s1ha2b","ono","owl","20","female","yes","yes","17","2","null","","null","","","","","","",""
"","","","","","image-keyboard-response","79","2.0.0","135217","prkw2s1ha2b","ono","owl","20","female","yes","yes","17","2","1045","stimuli/pictures/dog_york_1.jpg","0","0","","true","no","sound","stimuli/sounds/cough_sound_A.wav",""
"","","","","","audio-keyboard-response","80","2.0.0","136219","prkw2s1ha2b","ono","owl","20","female","yes","yes","17","2","null","stimuli/sounds/bleep.wav","null","","","","","","",""
"","","","","","html-keyboard-response","81","2.0.0","140366","prkw2s1ha2b","ono","owl","20","female","yes","yes","17","2","4046","<div style=""font-size:30px;"">Press space to start the trial</div>"," ","","","","","","",""
"","","","","","html-keyboard-response","82","2.0.0","140619","prkw2s1ha2b","ono","owl","20","female","yes","yes","17","2","null","<div style=""font-size:60px;"">+</div>","null","","","","","","",""
"","","","","","audio-keyboard-response","83","2.0.0","141223","prkw2s1ha2b","ono","owl","20","female","yes","yes","17","2","null","stimuli/sounds/drop_sound_B.wav","null","","","","","","",""
"","","","","","html-keyboard-response","84","2.0.0","142225","prkw2s1ha2b","ono","owl","20","female","yes","yes","17","2","null","","null","","","","","","",""
"","","","","","image-keyboard-response","85","2.0.0","143253","prkw2s1ha2b","ono","owl","20","female","yes","yes","17","2","1026","stimuli/pictures/drop_single_1.jpg","1","1","","true","no","sound","stimuli/sounds/drop_sound_B.wav",""
"","","","","","audio-keyboard-response","86","2.0.0","144256","prkw2s1ha2b","ono","owl","20","female","yes","yes","17","2","null","stimuli/sounds/bleep.wav","null","","","","","","",""
"","","","","","html-keyboard-response","87","2.0.0","145902","prkw2s1ha2b","ono","owl","20","female","yes","yes","17","2","1544","<div style=""font-size:30px;"">Press space to start the trial</div>"," ","","","","","","",""
"","","","","","html-keyboard-response","88","2.0.0","146153","prkw2s1ha2b","ono","owl","20","female","yes","yes","17","2","null","<div style=""font-size:60px;"">+</div>","null","","","","","","",""
"","","","","","audio-keyboard-response","89","2.0.0","146834","prkw2s1ha2b","ono","owl","20","female","yes","yes","17","2","null","stimuli/sounds/cough_sound_B.wav","null","","","","","","",""
"","","","","","html-keyboard-response","90","2.0.0","147835","prkw2s1ha2b","ono","owl","20","female","yes","yes","17","2","null","","null","","","","","","",""
"","","","","","image-keyboard-response","91","2.0.0","148322","prkw2s1ha2b","ono","owl","20","female","yes","yes","17","2","486","stimuli/pictures/cough_man_2.jpg","1","1","","true","yes","sound","stimuli/sounds/cough_sound_B.wav",""
"","","","","","audio-keyboard-response","92","2.0.0","149325","prkw2s1ha2b","ono","owl","20","female","yes","yes","17","2","null","stimuli/sounds/bleep.wav","null","","","","","","",""
"","","","","","html-keyboard-response","93","2.0.0","150278","prkw2s1ha2b","ono","owl","20","female","yes","yes","17","2","851","<div style=""font-size:30px;"">Press space to start the trial</div>"," ","","","","","","",""
"","","","","","html-keyboard-response","94","2.0.0","150530","prkw2s1ha2b","ono","owl","20","female","yes","yes","17","2","null","<div style=""font-size:60px;"">+</div>","null","","","","","","",""
"","","","","","audio-keyboard-response","95","2.0.0","151132","prkw2s1ha2b","ono","owl","20","female","yes","yes","17","2","null","stimuli/sounds/dog_sound_B.wav","null","","","","","","",""
"","","","","","html-keyboard-response","96","2.0.0","152135","prkw2s1ha2b","ono","owl","20","female","yes","yes","17","2","null","","null","","","","","","",""
"","","","","","image-keyboard-response","97","2.0.0","153811","prkw2s1ha2b","ono","owl","20","female","yes","yes","17","2","1674","stimuli/pictures/dog_york_1.jpg","1","1","","true","yes","sound","stimuli/sounds/dog_sound_B.wav",""
"","","","","","audio-keyboard-response","98","2.0.0","154814","prkw2s1ha2b","ono","owl","20","female","yes","yes","17","2","null","stimuli/sounds/bleep.wav","null","","","","","","",""
"","","","","","html-keyboard-response","99","2.0.0","171101","prkw2s1ha2b","ono","owl","20","female","yes","yes","17","2","16186","<div style=""font-size:30px;"">Press space to start the trial</div>"," ","","","","","","",""
"","","","","","html-keyboard-response","100","2.0.0","171354","prkw2s1ha2b","ono","owl","20","female","yes","yes","17","2","null","<div style=""font-size:60px;"">+</div>","null","","","","","","",""
"","","","","","audio-keyboard-response","101","2.0.0","171959","prkw2s1ha2b","ono","owl","20","female","yes","yes","17","2","null","stimuli/sounds/hiccup_sound_A.wav","null","","","","","","",""
"","","","","","html-keyboard-response","102","2.0.0","172961","prkw2s1ha2b","ono","owl","20","female","yes","yes","17","2","null","","null","","","","","","",""
"","","","","","image-keyboard-response","103","2.0.0","174259","prkw2s1ha2b","ono","owl","20","female","yes","yes","17","2","1297","stimuli/pictures/hiccup_wom_2.jpg","0","1","","false","yes","sound","stimuli/sounds/hiccup_sound_A.wav",""
"","","","","","audio-keyboard-response","104","2.0.0","175262","prkw2s1ha2b","ono","owl","20","female","yes","yes","17","2","null","stimuli/sounds/buzz.wav","null","","","","","","",""
"","","","","","html-keyboard-response","105","2.0.0","176348","prkw2s1ha2b","ono","owl","20","female","yes","yes","17","2","984","<div style=""font-size:30px;"">Press space to start the trial</div>"," ","","","","","","",""
"","","","","","html-keyboard-response","106","2.0.0","176599","prkw2s1ha2b","ono","owl","20","female","yes","yes","17","2","null","<div style=""font-size:60px;"">+</div>","null","","","","","","",""
"","","","","","audio-keyboard-response","107","2.0.0","177265","prkw2s1ha2b","ono","owl","20","female","yes","yes","17","2","null","stimuli/sounds/cough_sound_A.wav","null","","","","","","",""
"","","","","","html-keyboard-response","108","2.0.0","178267","prkw2s1ha2b","ono","owl","20","female","yes","yes","17","2","null","","null","","","","","","",""
"","","","","","image-keyboard-response","109","2.0.0","179190","prkw2s1ha2b","ono","owl","20","female","yes","yes","17","2","922","stimuli/pictures/cough_wom_2.jpg","1","1","","true","yes","sound","stimuli/sounds/cough_sound_A.wav",""
"","","","","","audio-keyboard-response","110","2.0.0","180192","prkw2s1ha2b","ono","owl","20","female","yes","yes","17","2","null","stimuli/sounds/bleep.wav","null","","","","","","",""
"","","","","","html-keyboard-response","111","2.0.0","184073","prkw2s1ha2b","ono","owl","20","female","yes","yes","17","2","3779","<div style=""font-size:30px;"">Press space to start the trial</div>"," ","","","","","","",""
"","","","","","html-keyboard-response","112","2.0.0","184326","prkw2s1ha2b","ono","owl","20","female","yes","yes","17","2","null","<div style=""font-size:60px;"">+</div>","null","","","","","","",""
"","","","","","audio-keyboard-response","113","2.0.0","184935","prkw2s1ha2b","ono","owl","20","female","yes","yes","17","2","null","stimuli/sounds/hiccup_label_B.wav","null","","","","","","",""
"","","","","","html-keyboard-response","114","2.0.0","185937","prkw2s1ha2b","ono","owl","20","female","yes","yes","17","2","null","","null","","","","","","",""
"","","","","","image-keyboard-response","115","2.0.0","187210","prkw2s1ha2b","ono","owl","20","female","yes","yes","17","2","1271","stimuli/pictures/hiccup_wom_2.jpg","0","1","","false","yes","sound","stimuli/sounds/hiccup_label_B.wav",""
"","","","","","audio-keyboard-response","116","2.0.0","188213","prkw2s1ha2b","ono","owl","20","female","yes","yes","17","2","null","stimuli/sounds/buzz.wav","null","","","","","","",""
"","","","","","html-keyboard-response","117","2.0.0","191334","prkw2s1ha2b","ono","owl","20","female","yes","yes","17","2","3019","<div style=""font-size:30px;"">Press space to start the trial</div>"," ","","","","","","",""
"","","","","","html-keyboard-response","118","2.0.0","191586","prkw2s1ha2b","ono","owl","20","female","yes","yes","17","2","null","<div style=""font-size:60px;"">+</div>","null","","","","","","",""
"","","","","","audio-keyboard-response","119","2.0.0","192135","prkw2s1ha2b","ono","owl","20","female","yes","yes","17","2","null","stimuli/sounds/drop_label_A.wav","null","","","","","","",""
"","","","","","html-keyboard-response","120","2.0.0","193138","prkw2s1ha2b","ono","owl","20","female","yes","yes","17","2","null","","null","","","","","","",""
"","","","","","image-keyboard-response","121","2.0.0","194403","prkw2s1ha2b","ono","owl","20","female","yes","yes","17","2","1264","stimuli/pictures/hiccup_wom_2.jpg","0","0","","true","no","sound","stimuli/sounds/drop_label_A.wav",""
"","","","","","audio-keyboard-response","122","2.0.0","195406","prkw2s1ha2b","ono","owl","20","female","yes","yes","17","2","null","stimuli/sounds/bleep.wav","null","","","","","","",""
"","","","","","html-keyboard-response","123","2.0.0","197561","prkw2s1ha2b","ono","owl","20","female","yes","yes","17","2","2053","<div style=""font-size:30px;"">Press space to start the trial</div>"," ","","","","","","",""
"","","","","","html-keyboard-response","124","2.0.0","197814","prkw2s1ha2b","ono","owl","20","female","yes","yes","17","2","null","<div style=""font-size:60px;"">+</div>","null","","","","","","",""
"","","","","","audio-keyboard-response","125","2.0.0","198418","prkw2s1ha2b","ono","owl","20","female","yes","yes","17","2","null","stimuli/sounds/dog_sound_B.wav","null","","","","","","",""
"","","","","","html-keyboard-response","126","2.0.0","199421","prkw2s1ha2b","ono","owl","20","female","yes","yes","17","2","null","","null","","","","","","",""
"","","","","","image-keyboard-response","127","2.0.0","201454","prkw2s1ha2b","ono","owl","20","female","yes","yes","17","2","2031","stimuli/pictures/dog_york_2.jpg","1","1","","true","yes","sound","stimuli/sounds/dog_sound_B.wav",""
"","","","","","audio-keyboard-response","128","2.0.0","202456","prkw2s1ha2b","ono","owl","20","female","yes","yes","17","2","null","stimuli/sounds/bleep.wav","null","","","","","","",""
"","","","","","html-keyboard-response","129","2.0.0","211407","prkw2s1ha2b","ono","owl","20","female","yes","yes","17","2","8848","<div style=""font-size:30px;"">Press space to start the trial</div>"," ","","","","","","",""
"","","","","","html-keyboard-response","130","2.0.0","211659","prkw2s1ha2b","ono","owl","20","female","yes","yes","17","2","null","<div style=""font-size:60px;"">+</div>","null","","","","","","",""
"","","","","","audio-keyboard-response","131","2.0.0","212258","prkw2s1ha2b","ono","owl","20","female","yes","yes","17","2","null","stimuli/sounds/motor_sound_B.wav","null","","","","","","",""
"","","","","","html-keyboard-response","132","2.0.0","213260","prkw2s1ha2b","ono","owl","20","female","yes","yes","17","2","null","","null","","","","","","",""
"","","","","","image-keyboard-response","133","2.0.0","214501","prkw2s1ha2b","ono","owl","20","female","yes","yes","17","2","1240","stimuli/pictures/cough_wom_1.jpg","0","0","","true","no","sound","stimuli/sounds/motor_sound_B.wav",""
"","","","","","audio-keyboard-response","134","2.0.0","215503","prkw2s1ha2b","ono","owl","20","female","yes","yes","17","2","null","stimuli/sounds/bleep.wav","null","","","","","","",""
"","","","","","html-keyboard-response","135","2.0.0","217391","prkw2s1ha2b","ono","owl","20","female","yes","yes","17","2","1784","<div style=""font-size:30px;"">Press space to start the trial</div>"," ","","","","","","",""
"","","","","","html-keyboard-response","136","2.0.0","217643","prkw2s1ha2b","ono","owl","20","female","yes","yes","17","2","null","<div style=""font-size:60px;"">+</div>","null","","","","","","",""
"","","","","","audio-keyboard-response","137","2.0.0","218242","prkw2s1ha2b","ono","owl","20","female","yes","yes","17","2","null","stimuli/sounds/dog_sound_B.wav","null","","","","","","",""
"","","","","","html-keyboard-response","138","2.0.0","219245","prkw2s1ha2b","ono","owl","20","female","yes","yes","17","2","null","","null","","","","","","",""
"","","","","","image-keyboard-response","139","2.0.0","223517","prkw2s1ha2b","ono","owl","20","female","yes","yes","17","2","4271","stimuli/pictures/motor_harley_2.jpg","0","0","","true","no","sound","stimuli/sounds/dog_sound_B.wav",""
"","","","","","audio-keyboard-response","140","2.0.0","224520","prkw2s1ha2b","ono","owl","20","female","yes","yes","17","2","null","stimuli/sounds/bleep.wav","null","","","","","","",""
"","","","","","html-keyboard-response","141","2.0.0","229520","prkw2s1ha2b","ono","owl","20","female","yes","yes","17","2","4898","<div style=""font-size:30px;"">Press space to start the trial</div>"," ","","","","","","",""
"","","","","","html-keyboard-response","142","2.0.0","229772","prkw2s1ha2b","ono","owl","20","female","yes","yes","17","2","null","<div style=""font-size:60px;"">+</div>","null","","","","","","",""
"","","","","","audio-keyboard-response","143","2.0.0","230376","prkw2s1ha2b","ono","owl","20","female","yes","yes","17","2","null","stimuli/sounds/hiccup_sound_B.wav","null","","","","","","",""
"","","","","","html-keyboard-response","144","2.0.0","231378","prkw2s1ha2b","ono","owl","20","female","yes","yes","17","2","null","","null","","","","","","",""
"","","","","","image-keyboard-response","145","2.0.0","232680","prkw2s1ha2b","ono","owl","20","female","yes","yes","17","2","1301","stimuli/pictures/drop_multi_1.jpg","0","0","","true","no","sound","stimuli/sounds/hiccup_sound_B.wav",""
"","","","","","audio-keyboard-response","146","2.0.0","233682","prkw2s1ha2b","ono","owl","20","female","yes","yes","17","2","null","stimuli/sounds/bleep.wav","null","","","","","","",""
"","","","","","html-keyboard-response","147","2.0.0","237434","prkw2s1ha2b","ono","owl","20","female","yes","yes","17","2","3650","<p>You have completed a block. Press R when you are ready to continue</p>","r","","","","","","",""
"","","","","","html-keyboard-response","148","2.0.0","238389","prkw2s1ha2b","ono","owl","20","female","yes","yes","17","2","954","<div style=""font-size:30px;"">Press space to start the trial</div>"," ","","","","","","",""
"","","","","","html-keyboard-response","149","2.0.0","238642","prkw2s1ha2b","ono","owl","20","female","yes","yes","17","2","null","<div style=""font-size:60px;"">+</div>","null","","","","","","",""
"","","","","","audio-keyboard-response","150","2.0.0","239181","prkw2s1ha2b","ono","owl","20","female","yes","yes","17","2","null","stimuli/sounds/hiccup_label_A.wav","null","","","","","","",""
"","","","","","html-keyboard-response","151","2.0.0","240183","prkw2s1ha2b","ono","owl","20","female","yes","yes","17","2","null","","null","","","","","","",""
"","","","","","image-keyboard-response","152","2.0.0","241119","prkw2s1ha2b","ono","owl","20","female","yes","yes","17","2","935","stimuli/pictures/cough_wom_1.jpg","0","0","","true","no","sound","stimuli/sounds/hiccup_label_A.wav",""
"","","","","","audio-keyboard-response","153","2.0.0","242121","prkw2s1ha2b","ono","owl","20","female","yes","yes","17","2","null","stimuli/sounds/bleep.wav","null","","","","","","",""
"","","","","","html-keyboard-response","154","2.0.0","243054","prkw2s1ha2b","ono","owl","20","female","yes","yes","17","2","831","<div style=""font-size:30px;"">Press space to start the trial</div>"," ","","","","","","",""
"","","","","","html-keyboard-response","155","2.0.0","243306","prkw2s1ha2b","ono","owl","20","female","yes","yes","17","2","null","<div style=""font-size:60px;"">+</div>","null","","","","","","",""
"","","","","","audio-keyboard-response","156","2.0.0","243912","prkw2s1ha2b","ono","owl","20","female","yes","yes","17","2","null","stimuli/sounds/hiccup_sound_A.wav","null","","","","","","",""
"","","","","","html-keyboard-response","157","2.0.0","244914","prkw2s1ha2b","ono","owl","20","female","yes","yes","17","2","null","","null","","","","","","",""
"","","","","","image-keyboard-response","158","2.0.0","246198","prkw2s1ha2b","ono","owl","20","female","yes","yes","17","2","1284","stimuli/pictures/hiccup_man_2.jpg","0","1","","false","no","sound","stimuli/sounds/hiccup_sound_A.wav",""
"","","","","","audio-keyboard-response","159","2.0.0","247201","prkw2s1ha2b","ono","owl","20","female","yes","yes","17","2","null","stimuli/sounds/buzz.wav","null","","","","","","",""
"","","","","","html-keyboard-response","160","2.0.0","248596","prkw2s1ha2b","ono","owl","20","female","yes","yes","17","2","1292","<div style=""font-size:30px;"">Press space to start the trial</div>"," ","","","","","","",""
"","","","","","html-keyboard-response","161","2.0.0","248848","prkw2s1ha2b","ono","owl","20","female","yes","yes","17","2","null","<div style=""font-size:60px;"">+</div>","null","","","","","","",""
"","","","","","audio-keyboard-response","162","2.0.0","249512","prkw2s1ha2b","ono","owl","20","female","yes","yes","17","2","null","stimuli/sounds/cough_sound_A.wav","null","","","","","","",""
"","","","","","html-keyboard-response","163","2.0.0","250514","prkw2s1ha2b","ono","owl","20","female","yes","yes","17","2","null","","null","","","","","","",""
"","","","","","image-keyboard-response","164","2.0.0","251464","prkw2s1ha2b","ono","owl","20","female","yes","yes","17","2","949","stimuli/pictures/dog_rott_1.jpg","0","0","","true","no","sound","stimuli/sounds/cough_sound_A.wav",""
"","","","","","audio-keyboard-response","165","2.0.0","252467","prkw2s1ha2b","ono","owl","20","female","yes","yes","17","2","null","stimuli/sounds/bleep.wav","null","","","","","","",""
"","","","","","html-keyboard-response","166","2.0.0","253738","prkw2s1ha2b","ono","owl","20","female","yes","yes","17","2","1169","<div style=""font-size:30px;"">Press space to start the trial</div>"," ","","","","","","",""
"","","","","","html-keyboard-response","167","2.0.0","253991","prkw2s1ha2b","ono","owl","20","female","yes","yes","17","2","null","<div style=""font-size:60px;"">+</div>","null","","","","","","",""
"","","","","","audio-keyboard-response","168","2.0.0","254621","prkw2s1ha2b","ono","owl","20","female","yes","yes","17","2","null","stimuli/sounds/cough_label_A.wav","null","","","","","","",""
"","","","","","html-keyboard-response","169","2.0.0","255624","prkw2s1ha2b","ono","owl","20","female","yes","yes","17","2","null","","null","","","","","","",""
"","","","","","image-keyboard-response","170","2.0.0","256107","prkw2s1ha2b","ono","owl","20","female","yes","yes","17","2","481","stimuli/pictures/cough_wom_2.jpg","1","1","","true","yes","sound","stimuli/sounds/cough_label_A.wav",""
"","","","","","audio-keyboard-response","171","2.0.0","257110","prkw2s1ha2b","ono","owl","20","female","yes","yes","17","2","null","stimuli/sounds/bleep.wav","null","","","","","","",""
"","","","","","html-keyboard-response","172","2.0.0","257867","prkw2s1ha2b","ono","owl","20","female","yes","yes","17","2","656","<div style=""font-size:30px;"">Press space to start the trial</div>"," ","","","","","","",""
"","","","","","html-keyboard-response","173","2.0.0","258120","prkw2s1ha2b","ono","owl","20","female","yes","yes","17","2","null","<div style=""font-size:60px;"">+</div>","null","","","","","","",""
"","","","","","audio-keyboard-response","174","2.0.0","258659","prkw2s1ha2b","ono","owl","20","female","yes","yes","17","2","null","stimuli/sounds/hiccup_label_A.wav","null","","","","","","",""
"","","","","","html-keyboard-response","175","2.0.0","259660","prkw2s1ha2b","ono","owl","20","female","yes","yes","17","2","null","","null","","","","","","",""
"","","","","","image-keyboard-response","176","2.0.0","260911","prkw2s1ha2b","ono","owl","20","female","yes","yes","17","2","1249","stimuli/pictures/hiccup_man_1.jpg","1","1","","true","yes","sound","stimuli/sounds/hiccup_label_A.wav",""
"","","","","","audio-keyboard-response","177","2.0.0","261913","prkw2s1ha2b","ono","owl","20","female","yes","yes","17","2","null","stimuli/sounds/bleep.wav","null","","","","","","",""
"","","","","","html-keyboard-response","178","2.0.0","264003","prkw2s1ha2b","ono","owl","20","female","yes","yes","17","2","1987","<div style=""font-size:30px;"">Press space to start the trial</div>"," ","","","","","","",""
"","","","","","html-keyboard-response","179","2.0.0","264255","prkw2s1ha2b","ono","owl","20","female","yes","yes","17","2","null","<div style=""font-size:60px;"">+</div>","null","","","","","","",""
"","","","","","audio-keyboard-response","180","2.0.0","264856","prkw2s1ha2b","ono","owl","20","female","yes","yes","17","2","null","stimuli/sounds/motor_sound_A.wav","null","","","","","","",""
"","","","","","html-keyboard-response","181","2.0.0","265859","prkw2s1ha2b","ono","owl","20","female","yes","yes","17","2","null","","null","","","","","","",""
"","","","","","image-keyboard-response","182","2.0.0","267220","prkw2s1ha2b","ono","owl","20","female","yes","yes","17","2","1361","stimuli/pictures/drop_multi_1.jpg","0","0","","true","no","sound","stimuli/sounds/motor_sound_A.wav",""
"","","","","","audio-keyboard-response","183","2.0.0","268223","prkw2s1ha2b","ono","owl","20","female","yes","yes","17","2","null","stimuli/sounds/bleep.wav","null","","","","","","",""
"","","","","","html-keyboard-response","184","2.0.0","270642","prkw2s1ha2b","ono","owl","20","female","yes","yes","17","2","2316","<div style=""font-size:30px;"">Press space to start the trial</div>"," ","","","","","","",""
"","","","","","html-keyboard-response","185","2.0.0","270895","prkw2s1ha2b","ono","owl","20","female","yes","yes","17","2","null","<div style=""font-size:60px;"">+</div>","null","","","","","","",""
"","","","","","audio-keyboard-response","186","2.0.0","271560","prkw2s1ha2b","ono","owl","20","female","yes","yes","17","2","null","stimuli/sounds/cough_sound_A.wav","null","","","","","","",""
"","","","","","html-keyboard-response","187","2.0.0","272563","prkw2s1ha2b","ono","owl","20","female","yes","yes","17","2","null","","null","","","","","","",""
"","","","","","image-keyboard-response","188","2.0.0","274167","prkw2s1ha2b","ono","owl","20","female","yes","yes","17","2","1604","stimuli/pictures/dog_rott_1.jpg","0","0","","true","no","sound","stimuli/sounds/cough_sound_A.wav",""
"","","","","","audio-keyboard-response","189","2.0.0","275170","prkw2s1ha2b","ono","owl","20","female","yes","yes","17","2","null","stimuli/sounds/bleep.wav","null","","","","","","",""
"","","","","","html-keyboard-response","190","2.0.0","276146","prkw2s1ha2b","ono","owl","20","female","yes","yes","17","2","872","<div style=""font-size:30px;"">Press space to start the trial</div>"," ","","","","","","",""
"","","","","","html-keyboard-response","191","2.0.0","276398","prkw2s1ha2b","ono","owl","20","female","yes","yes","17","2","null","<div style=""font-size:60px;"">+</div>","null","","","","","","",""
"","","","","","audio-keyboard-response","192","2.0.0","277005","prkw2s1ha2b","ono","owl","20","female","yes","yes","17","2","null","stimuli/sounds/hiccup_sound_A.wav","null","","","","","","",""
"","","","","","html-keyboard-response","193","2.0.0","278007","prkw2s1ha2b","ono","owl","20","female","yes","yes","17","2","null","","null","","","","","","",""
"","","","","","image-keyboard-response","194","2.0.0","279017","prkw2s1ha2b","ono","owl","20","female","yes","yes","17","2","1009","stimuli/pictures/motor_dirt_2.jpg","0","0","","true","no","sound","stimuli/sounds/hiccup_sound_A.wav",""
"","","","","","audio-keyboard-response","195","2.0.0","280019","prkw2s1ha2b","ono","owl","20","female","yes","yes","17","2","null","stimuli/sounds/bleep.wav","null","","","","","","",""
"","","","","","html-keyboard-response","196","2.0.0","280502","prkw2s1ha2b","ono","owl","20","female","yes","yes","17","2","381","<div style=""font-size:30px;"">Press space to start the trial</div>"," ","","","","","","",""
"","","","","","html-keyboard-response","197","2.0.0","280754","prkw2s1ha2b","ono","owl","20","female","yes","yes","17","2","null","<div style=""font-size:60px;"">+</div>","null","","","","","","",""
"","","","","","audio-keyboard-response","198","2.0.0","281357","prkw2s1ha2b","ono","owl","20","female","yes","yes","17","2","null","stimuli/sounds/hiccup_sound_B.wav","null","","","","","","",""
"","","","","","html-keyboard-response","199","2.0.0","282360","prkw2s1ha2b","ono","owl","20","female","yes","yes","17","2","null","","null","","","","","","",""
"","","","","","image-keyboard-response","200","2.0.0","283326","prkw2s1ha2b","ono","owl","20","female","yes","yes","17","2","965","stimuli/pictures/drop_single_1.jpg","1","0","","false","no","sound","stimuli/sounds/hiccup_sound_B.wav",""
"","","","","","audio-keyboard-response","201","2.0.0","284329","prkw2s1ha2b","ono","owl","20","female","yes","yes","17","2","null","stimuli/sounds/buzz.wav","null","","","","","","",""
"","","","","","html-keyboard-response","202","2.0.0","285168","prkw2s1ha2b","ono","owl","20","female","yes","yes","17","2","736","<div style=""font-size:30px;"">Press space to start the trial</div>"," ","","","","","","",""
"","","","","","html-keyboard-response","203","2.0.0","285419","prkw2s1ha2b","ono","owl","20","female","yes","yes","17","2","null","<div style=""font-size:60px;"">+</div>","null","","","","","","",""
"","","","","","audio-keyboard-response","204","2.0.0","286019","prkw2s1ha2b","ono","owl","20","female","yes","yes","17","2","null","stimuli/sounds/dog_label_A.wav","null","","","","","","",""
"","","","","","html-keyboard-response","205","2.0.0","287021","prkw2s1ha2b","ono","owl","20","female","yes","yes","17","2","null","","null","","","","","","",""
"","","","","","image-keyboard-response","206","2.0.0","287641","prkw2s1ha2b","ono","owl","20","female","yes","yes","17","2","618","stimuli/pictures/dog_york_1.jpg","1","1","","true","yes","sound","stimuli/sounds/dog_label_A.wav",""
"","","","","","audio-keyboard-response","207","2.0.0","288644","prkw2s1ha2b","ono","owl","20","female","yes","yes","17","2","null","stimuli/sounds/bleep.wav","null","","","","","","",""
"","","","","","html-keyboard-response","208","2.0.0","288986","prkw2s1ha2b","ono","owl","20","female","yes","yes","17","2","241","<div style=""font-size:30px;"">Press space to start the trial</div>"," ","","","","","","",""
"","","","","","html-keyboard-response","209","2.0.0","289238","prkw2s1ha2b","ono","owl","20","female","yes","yes","17","2","null","<div style=""font-size:60px;"">+</div>","null","","","","","","",""
"","","","","","audio-keyboard-response","210","2.0.0","289822","prkw2s1ha2b","ono","owl","20","female","yes","yes","17","2","null","stimuli/sounds/drop_sound_A.wav","null","","","","","","",""
"","","","","","html-keyboard-response","211","2.0.0","290823","prkw2s1ha2b","ono","owl","20","female","yes","yes","17","2","null","","null","","","","","","",""
"","","","","","image-keyboard-response","212","2.0.0","291362","prkw2s1ha2b","ono","owl","20","female","yes","yes","17","2","538","stimuli/pictures/drop_multi_2.jpg","1","1","","true","no","sound","stimuli/sounds/drop_sound_A.wav",""
"","","","","","audio-keyboard-response","213","2.0.0","291990","prkw2s1ha2b","ono","owl","20","female","yes","yes","17","2","624","stimuli/sounds/bleep.wav"," ","","","","","","",""
"","","","","","html-keyboard-response","214","2.0.0","292579","prkw2s1ha2b","ono","owl","20","female","yes","yes","17","2","487","<div style=""font-size:30px;"">Press space to start the trial</div>"," ","","","","","","",""
"","","","","","html-keyboard-response","215","2.0.0","292831","prkw2s1ha2b","ono","owl","20","female","yes","yes","17","2","null","<div style=""font-size:60px;"">+</div>","null","","","","","","",""
"","","","","","audio-keyboard-response","216","2.0.0","293432","prkw2s1ha2b","ono","owl","20","female","yes","yes","17","2","null","stimuli/sounds/motor_sound_B.wav","null","","","","","","",""
"","","","","","html-keyboard-response","217","2.0.0","294434","prkw2s1ha2b","ono","owl","20","female","yes","yes","17","2","null","","null","","","","","","",""
"","","","","","image-keyboard-response","218","2.0.0","294868","prkw2s1ha2b","ono","owl","20","female","yes","yes","17","2","433","stimuli/pictures/cough_man_1.jpg","1","0","","false","no","sound","stimuli/sounds/motor_sound_B.wav",""
"","","","","","audio-keyboard-response","219","2.0.0","295871","prkw2s1ha2b","ono","owl","20","female","yes","yes","17","2","null","stimuli/sounds/buzz.wav","null","","","","","","",""
"","","","","","html-keyboard-response","220","2.0.0","296018","prkw2s1ha2b","ono","owl","20","female","yes","yes","17","2","45","<div style=""font-size:30px;"">Press space to start the trial</div>"," ","","","","","","",""
"","","","","","html-keyboard-response","221","2.0.0","296271","prkw2s1ha2b","ono","owl","20","female","yes","yes","17","2","null","<div style=""font-size:60px;"">+</div>","null","","","","","","",""
"","","","","","audio-keyboard-response","222","2.0.0","296877","prkw2s1ha2b","ono","owl","20","female","yes","yes","17","2","null","stimuli/sounds/hiccup_label_B.wav","null","","","","","","",""
"","","","","","html-keyboard-response","223","2.0.0","297880","prkw2s1ha2b","ono","owl","20","female","yes","yes","17","2","null","","null","","","","","","",""
"","","","","","image-keyboard-response","224","2.0.0","298336","prkw2s1ha2b","ono","owl","20","female","yes","yes","17","2","455","stimuli/pictures/hiccup_man_1.jpg","0","1","","false","yes","sound","stimuli/sounds/hiccup_label_B.wav",""
"","","","","","audio-keyboard-response","225","2.0.0","299339","prkw2s1ha2b","ono","owl","20","female","yes","yes","17","2","null","stimuli/sounds/buzz.wav","null","","","","","","",""
"","","","","","html-keyboard-response","226","2.0.0","300002","prkw2s1ha2b","ono","owl","20","female","yes","yes","17","2","561","<div style=""font-size:30px;"">Press space to start the trial</div>"," ","","","","","","",""
"","","","","","html-keyboard-response","227","2.0.0","300254","prkw2s1ha2b","ono","owl","20","female","yes","yes","17","2","null","<div style=""font-size:60px;"">+</div>","null","","","","","","",""
"","","","","","audio-keyboard-response","228","2.0.0","300888","prkw2s1ha2b","ono","owl","20","female","yes","yes","17","2","null","stimuli/sounds/cough_label_A.wav","null","","","","","","",""
"","","","","","html-keyboard-response","229","2.0.0","301890","prkw2s1ha2b","ono","owl","20","female","yes","yes","17","2","null","","null","","","","","","",""
"","","","","","image-keyboard-response","230","2.0.0","302530","prkw2s1ha2b","ono","owl","20","female","yes","yes","17","2","639","stimuli/pictures/motor_harley_1.jpg","0","0","","true","no","sound","stimuli/sounds/cough_label_A.wav",""
"","","","","","audio-keyboard-response","231","2.0.0","303302","prkw2s1ha2b","ono","owl","20","female","yes","yes","17","2","768","stimuli/sounds/bleep.wav"," ","","","","","","",""
"","","","","","html-keyboard-response","232","2.0.0","303556","prkw2s1ha2b","ono","owl","20","female","yes","yes","17","2","151","<div style=""font-size:30px;"">Press space to start the trial</div>"," ","","","","","","",""
"","","","","","html-keyboard-response","233","2.0.0","303807","prkw2s1ha2b","ono","owl","20","female","yes","yes","17","2","null","<div style=""font-size:60px;"">+</div>","null","","","","","","",""
"","","","","","audio-keyboard-response","234","2.0.0","304408","prkw2s1ha2b","ono","owl","20","female","yes","yes","17","2","null","stimuli/sounds/motor_sound_A.wav","null","","","","","","",""
"","","","","","html-keyboard-response","235","2.0.0","305410","prkw2s1ha2b","ono","owl","20","female","yes","yes","17","2","null","","null","","","","","","",""
"","","","","","image-keyboard-response","236","2.0.0","306250","prkw2s1ha2b","ono","owl","20","female","yes","yes","17","2","840","stimuli/pictures/motor_harley_2.jpg","1","1","","true","no","sound","stimuli/sounds/motor_sound_A.wav",""
"","","","","","audio-keyboard-response","237","2.0.0","307253","prkw2s1ha2b","ono","owl","20","female","yes","yes","17","2","null","stimuli/sounds/bleep.wav","null","","","","","","",""
"","","","","","html-keyboard-response","238","2.0.0","307506","prkw2s1ha2b","ono","owl","20","female","yes","yes","17","2","152","<div style=""font-size:30px;"">Press space to start the trial</div>"," ","","","","","","",""
"","","","","","html-keyboard-response","239","2.0.0","307758","prkw2s1ha2b","ono","owl","20","female","yes","yes","17","2","null","<div style=""font-size:60px;"">+</div>","null","","","","","","",""
"","","","","","audio-keyboard-response","240","2.0.0","308360","prkw2s1ha2b","ono","owl","20","female","yes","yes","17","2","null","stimuli/sounds/motor_sound_B.wav","null","","","","","","",""
"","","","","","html-keyboard-response","241","2.0.0","309361","prkw2s1ha2b","ono","owl","20","female","yes","yes","17","2","null","","null","","","","","","",""
"","","","","","image-keyboard-response","242","2.0.0","309637","prkw2s1ha2b","ono","owl","20","female","yes","yes","17","2","275","stimuli/pictures/motor_dirt_1.jpg","1","1","","true","no","sound","stimuli/sounds/motor_sound_B.wav",""
"","","","","","audio-keyboard-response","243","2.0.0","310640","prkw2s1ha2b","ono","owl","20","female","yes","yes","17","2","null","stimuli/sounds/bleep.wav","null","","","","","","",""
"","","","","","html-keyboard-response","244","2.0.0","311024","prkw2s1ha2b","ono","owl","20","female","yes","yes","17","2","282","<div style=""font-size:30px;"">Press space to start the trial</div>"," ","","","","","","",""
"","","","","","html-keyboard-response","245","2.0.0","311276","prkw2s1ha2b","ono","owl","20","female","yes","yes","17","2","null","<div style=""font-size:60px;"">+</div>","null","","","","","","",""
"","","","","","audio-keyboard-response","246","2.0.0","311955","prkw2s1ha2b","ono","owl","20","female","yes","yes","17","2","null","stimuli/sounds/cough_sound_B.wav","null","","","","","","",""
"","","","","","html-keyboard-response","247","2.0.0","312957","prkw2s1ha2b","ono","owl","20","female","yes","yes","17","2","null","","null","","","","","","",""
"","","","","","image-keyboard-response","248","2.0.0","313723","prkw2s1ha2b","ono","owl","20","female","yes","yes","17","2","766","stimuli/pictures/cough_man_1.jpg","1","1","","true","yes","sound","stimuli/sounds/cough_sound_B.wav",""
"","","","","","audio-keyboard-response","249","2.0.0","314613","prkw2s1ha2b","ono","owl","20","female","yes","yes","17","2","891","stimuli/sounds/bleep.wav"," ","","","","","","",""
"","","","","","html-keyboard-response","250","2.0.0","314848","prkw2s1ha2b","ono","owl","20","female","yes","yes","17","2","134","<div style=""font-size:30px;"">Press space to start the trial</div>"," ","","","","","","",""
"","","","","","html-keyboard-response","251","2.0.0","315100","prkw2s1ha2b","ono","owl","20","female","yes","yes","17","2","null","<div style=""font-size:60px;"">+</div>","null","","","","","","",""
"","","","","","audio-keyboard-response","252","2.0.0","315699","prkw2s1ha2b","ono","owl","20","female","yes","yes","17","2","null","stimuli/sounds/dog_sound_B.wav","null","","","","","","",""
"","","","","","html-keyboard-response","253","2.0.0","316702","prkw2s1ha2b","ono","owl","20","female","yes","yes","17","2","null","","null","","","","","","",""
"","","","","","image-keyboard-response","254","2.0.0","316981","prkw2s1ha2b","ono","owl","20","female","yes","yes","17","2","279","stimuli/pictures/dog_rott_1.jpg","0","1","","false","no","sound","stimuli/sounds/dog_sound_B.wav",""
"","","","","","audio-keyboard-response","255","2.0.0","317775","prkw2s1ha2b","ono","owl","20","female","yes","yes","17","2","795","stimuli/sounds/buzz.wav"," ","","","","","","",""
"","","","","","html-keyboard-response","256","2.0.0","318165","prkw2s1ha2b","ono","owl","20","female","yes","yes","17","2","288","<div style=""font-size:30px;"">Press space to start the trial</div>"," ","","","","","","",""
"","","","","","html-keyboard-response","257","2.0.0","318417","prkw2s1ha2b","ono","owl","20","female","yes","yes","17","2","null","<div style=""font-size:60px;"">+</div>","null","","","","","","",""
"","","","","","audio-keyboard-response","258","2.0.0","318963","prkw2s1ha2b","ono","owl","20","female","yes","yes","17","2","null","stimuli/sounds/drop_label_A.wav","null","","","","","","",""
"","","","","","html-keyboard-response","259","2.0.0","319965","prkw2s1ha2b","ono","owl","20","female","yes","yes","17","2","null","","null","","","","","","",""
"","","","","","image-keyboard-response","260","2.0.0","320635","prkw2s1ha2b","ono","owl","20","female","yes","yes","17","2","669","stimuli/pictures/hiccup_man_1.jpg","0","0","","true","no","sound","stimuli/sounds/drop_label_A.wav",""
"","","","","","audio-keyboard-response","261","2.0.0","321636","prkw2s1ha2b","ono","owl","20","female","yes","yes","17","2","null","stimuli/sounds/bleep.wav","null","","","","","","",""
"","","","","","html-keyboard-response","262","2.0.0","322187","prkw2s1ha2b","ono","owl","20","female","yes","yes","17","2","448","<div style=""font-size:30px;"">Press space to start the trial</div>"," ","","","","","","",""
"","","","","","html-keyboard-response","263","2.0.0","322438","prkw2s1ha2b","ono","owl","20","female","yes","yes","17","2","null","<div style=""font-size:60px;"">+</div>","null","","","","","","",""
"","","","","","audio-keyboard-response","264","2.0.0","323038","prkw2s1ha2b","ono","owl","20","female","yes","yes","17","2","null","stimuli/sounds/motor_label_B.wav","null","","","","","","",""
"","","","","","html-keyboard-response","265","2.0.0","324040","prkw2s1ha2b","ono","owl","20","female","yes","yes","17","2","null","","null","","","","","","",""
"","","","","","image-keyboard-response","266","2.0.0","324692","prkw2s1ha2b","ono","owl","20","female","yes","yes","17","2","651","stimuli/pictures/hiccup_wom_1.jpg","0","0","","true","no","sound","stimuli/sounds/motor_label_B.wav",""
"","","","","","audio-keyboard-response","267","2.0.0","325351","prkw2s1ha2b","ono","owl","20","female","yes","yes","17","2","656","stimuli/sounds/bleep.wav"," ","","","","","","",""
"","","","","","html-keyboard-response","268","2.0.0","328841","prkw2s1ha2b","ono","owl","20","female","yes","yes","17","2","3388","<p>You have completed a block. Press R when you are ready to continue</p>","r","","","","","","",""
"","","","","","html-keyboard-response","269","2.0.0","330204","prkw2s1ha2b","ono","owl","20","female","yes","yes","17","2","1362","<div style=""font-size:30px;"">Press space to start the trial</div>"," ","","","","","","",""
"","","","","","html-keyboard-response","270","2.0.0","330456","prkw2s1ha2b","ono","owl","20","female","yes","yes","17","2","null","<div style=""font-size:60px;"">+</div>","null","","","","","","",""
"","","","","","audio-keyboard-response","271","2.0.0","331139","prkw2s1ha2b","ono","owl","20","female","yes","yes","17","2","null","stimuli/sounds/cough_sound_B.wav","null","","","","","","",""
"","","","","","html-keyboard-response","272","2.0.0","332142","prkw2s1ha2b","ono","owl","20","female","yes","yes","17","2","null","","null","","","","","","",""
"","","","","","image-keyboard-response","273","2.0.0","332728","prkw2s1ha2b","ono","owl","20","female","yes","yes","17","2","584","stimuli/pictures/hiccup_man_1.jpg","1","0","","false","no","sound","stimuli/sounds/cough_sound_B.wav",""
"","","","","","audio-keyboard-response","274","2.0.0","333730","prkw2s1ha2b","ono","owl","20","female","yes","yes","17","2","null","stimuli/sounds/buzz.wav","null","","","","","","",""
"","","","","","html-keyboard-response","275","2.0.0","334489","prkw2s1ha2b","ono","owl","20","female","yes","yes","17","2","658","<div style=""font-size:30px;"">Press space to start the trial</div>"," ","","","","","","",""
"","","","","","html-keyboard-response","276","2.0.0","334742","prkw2s1ha2b","ono","owl","20","female","yes","yes","17","2","null","<div style=""font-size:60px;"">+</div>","null","","","","","","",""
"","","","","","audio-keyboard-response","277","2.0.0","335353","prkw2s1ha2b","ono","owl","20","female","yes","yes","17","2","null","stimuli/sounds/drop_label_B.wav","null","","","","","","",""
"","","","","","html-keyboard-response","278","2.0.0","336355","prkw2s1ha2b","ono","owl","20","female","yes","yes","17","2","null","","null","","","","","","",""
"","","","","","image-keyboard-response","279","2.0.0","336861","prkw2s1ha2b","ono","owl","20","female","yes","yes","17","2","505","stimuli/pictures/drop_single_1.jpg","1","1","","true","yes","sound","stimuli/sounds/drop_label_B.wav",""
"","","","","","audio-keyboard-response","280","2.0.0","337570","prkw2s1ha2b","ono","owl","20","female","yes","yes","17","2","704","stimuli/sounds/bleep.wav"," ","","","","","","",""
"","","","","","html-keyboard-response","281","2.0.0","337840","prkw2s1ha2b","ono","owl","20","female","yes","yes","17","2","167","<div style=""font-size:30px;"">Press space to start the trial</div>"," ","","","","","","",""
"","","","","","html-keyboard-response","282","2.0.0","338092","prkw2s1ha2b","ono","owl","20","female","yes","yes","17","2","null","<div style=""font-size:60px;"">+</div>","null","","","","","","",""
"","","","","","audio-keyboard-response","283","2.0.0","338702","prkw2s1ha2b","ono","owl","20","female","yes","yes","17","2","null","stimuli/sounds/drop_label_B.wav","null","","","","","","",""
"","","","","","html-keyboard-response","284","2.0.0","339703","prkw2s1ha2b","ono","owl","20","female","yes","yes","17","2","null","","null","","","","","","",""
"","","","","","image-keyboard-response","285","2.0.0","340251","prkw2s1ha2b","ono","owl","20","female","yes","yes","17","2","546","stimuli/pictures/motor_harley_2.jpg","0","0","","true","no","sound","stimuli/sounds/drop_label_B.wav",""
"","","","","","audio-keyboard-response","286","2.0.0","340733","prkw2s1ha2b","ono","owl","20","female","yes","yes","17","2","480","stimuli/sounds/bleep.wav"," ","","","","","","",""
"","","","","","html-keyboard-response","287","2.0.0","341014","prkw2s1ha2b","ono","owl","20","female","yes","yes","17","2","179","<div style=""font-size:30px;"">Press space to start the trial</div>"," ","","","","","","",""
"","","","","","html-keyboard-response","288","2.0.0","341266","prkw2s1ha2b","ono","owl","20","female","yes","yes","17","2","null","<div style=""font-size:60px;"">+</div>","null","","","","","","",""
"","","","","","audio-keyboard-response","289","2.0.0","341800","prkw2s1ha2b","ono","owl","20","female","yes","yes","17","2","null","stimuli/sounds/hiccup_label_A.wav","null","","","","","","",""
"","","","","","html-keyboard-response","290","2.0.0","342803","prkw2s1ha2b","ono","owl","20","female","yes","yes","17","2","null","","null","","","","","","",""
"","","","","","image-keyboard-response","291","2.0.0","343198","prkw2s1ha2b","ono","owl","20","female","yes","yes","17","2","394","stimuli/pictures/cough_man_1.jpg","1","0","","false","no","sound","stimuli/sounds/hiccup_label_A.wav",""
"","","","","","audio-keyboard-response","292","2.0.0","344090","prkw2s1ha2b","ono","owl","20","female","yes","yes","17","2","891","stimuli/sounds/buzz.wav"," ","","","","","","",""
"","","","","","html-keyboard-response","293","2.0.0","344252","prkw2s1ha2b","ono","owl","20","female","yes","yes","17","2","60","<div style=""font-size:30px;"">Press space to start the trial</div>"," ","","","","","","",""
"","","","","","html-keyboard-response","294","2.0.0","344504","prkw2s1ha2b","ono","owl","20","female","yes","yes","17","2","null","<div style=""font-size:60px;"">+</div>","null","","","","","","",""
"","","","","","audio-keyboard-response","295","2.0.0","345118","prkw2s1ha2b","ono","owl","20","female","yes","yes","17","2","null","stimuli/sounds/drop_label_B.wav","null","","","","","","",""
"","","","","","html-keyboard-response","296","2.0.0","346120","prkw2s1ha2b","ono","owl","20","female","yes","yes","17","2","null","","null","","","","","","",""
"","","","","","image-keyboard-response","297","2.0.0","346490","prkw2s1ha2b","ono","owl","20","female","yes","yes","17","2","368","stimuli/pictures/drop_multi_2.jpg","1","1","","true","yes","sound","stimuli/sounds/drop_label_B.wav",""
"","","","","","audio-keyboard-response","298","2.0.0","347116","prkw2s1ha2b","ono","owl","20","female","yes","yes","17","2","624","stimuli/sounds/bleep.wav"," ","","","","","","",""
"","","","","","html-keyboard-response","299","2.0.0","347370","prkw2s1ha2b","ono","owl","20","female","yes","yes","17","2","152","<div style=""font-size:30px;"">Press space to start the trial</div>"," ","","","","","","",""
"","","","","","html-keyboard-response","300","2.0.0","347622","prkw2s1ha2b","ono","owl","20","female","yes","yes","17","2","null","<div style=""font-size:60px;"">+</div>","null","","","","","","",""
"","","","","","audio-keyboard-response","301","2.0.0","348222","prkw2s1ha2b","ono","owl","20","female","yes","yes","17","2","null","stimuli/sounds/dog_sound_B.wav","null","","","","","","",""
"","","","","","html-keyboard-response","302","2.0.0","349224","prkw2s1ha2b","ono","owl","20","female","yes","yes","17","2","null","","null","","","","","","",""
"","","","","","image-keyboard-response","303","2.0.0","349628","prkw2s1ha2b","ono","owl","20","female","yes","yes","17","2","403","stimuli/pictures/dog_rott_2.jpg","1","1","","true","no","sound","stimuli/sounds/dog_sound_B.wav",""
"","","","","","audio-keyboard-response","304","2.0.0","350179","prkw2s1ha2b","ono","owl","20","female","yes","yes","17","2","549","stimuli/sounds/bleep.wav"," ","","","","","","",""
"","","","","","html-keyboard-response","305","2.0.0","350426","prkw2s1ha2b","ono","owl","20","female","yes","yes","17","2","145","<div style=""font-size:30px;"">Press space to start the trial</div>"," ","","","","","","",""
"","","","","","html-keyboard-response","306","2.0.0","350678","prkw2s1ha2b","ono","owl","20","female","yes","yes","17","2","null","<div style=""font-size:60px;"">+</div>","null","","","","","","",""
"","","","","","audio-keyboard-response","307","2.0.0","351225","prkw2s1ha2b","ono","owl","20","female","yes","yes","17","2","null","stimuli/sounds/drop_label_A.wav","null","","","","","","",""
"","","","","","html-keyboard-response","308","2.0.0","352227","prkw2s1ha2b","ono","owl","20","female","yes","yes","17","2","null","","null","","","","","","",""
"","","","","","image-keyboard-response","309","2.0.0","352655","prkw2s1ha2b","ono","owl","20","female","yes","yes","17","2","427","stimuli/pictures/drop_multi_1.jpg","1","1","","true","yes","sound","stimuli/sounds/drop_label_A.wav",""
"","","","","","audio-keyboard-response","310","2.0.0","353658","prkw2s1ha2b","ono","owl","20","female","yes","yes","17","2","null","stimuli/sounds/bleep.wav","null","","","","","","",""
"","","","","","html-keyboard-response","311","2.0.0","353937","prkw2s1ha2b","ono","owl","20","female","yes","yes","17","2","176","<div style=""font-size:30px;"">Press space to start the trial</div>"," ","","","","","","",""
"","","","","","html-keyboard-response","312","2.0.0","354188","prkw2s1ha2b","ono","owl","20","female","yes","yes","17","2","null","<div style=""font-size:60px;"">+</div>","null","","","","","","",""
"","","","","","audio-keyboard-response","313","2.0.0","354787","prkw2s1ha2b","ono","owl","20","female","yes","yes","17","2","null","stimuli/sounds/motor_sound_A.wav","null","","","","","","",""
"","","","","","html-keyboard-response","314","2.0.0","355789","prkw2s1ha2b","ono","owl","20","female","yes","yes","17","2","null","","null","","","","","","",""
"","","","","","image-keyboard-response","315","2.0.0","356361","prkw2s1ha2b","ono","owl","20","female","yes","yes","17","2","571","stimuli/pictures/drop_multi_2.jpg","1","0","","false","no","sound","stimuli/sounds/motor_sound_A.wav",""
"","","","","","audio-keyboard-response","316","2.0.0","357106","prkw2s1ha2b","ono","owl","20","female","yes","yes","17","2","741","stimuli/sounds/buzz.wav"," ","","","","","","",""
"","","","","","html-keyboard-response","317","2.0.0","357344","prkw2s1ha2b","ono","owl","20","female","yes","yes","17","2","136","<div style=""font-size:30px;"">Press space to start the trial</div>"," ","","","","","","",""
"","","","","","html-keyboard-response","318","2.0.0","357597","prkw2s1ha2b","ono","owl","20","female","yes","yes","17","2","null","<div style=""font-size:60px;"">+</div>","null","","","","","","",""
"","","","","","audio-keyboard-response","319","2.0.0","358201","prkw2s1ha2b","ono","owl","20","female","yes","yes","17","2","null","stimuli/sounds/dog_label_B.wav","null","","","","","","",""
"","","","","","html-keyboard-response","320","2.0.0","359202","prkw2s1ha2b","ono","owl","20","female","yes","yes","17","2","null","","null","","","","","","",""
"","","","","","image-keyboard-response","321","2.0.0","360138","prkw2s1ha2b","ono","owl","20","female","yes","yes","17","2","935","stimuli/pictures/dog_york_2.jpg","1","1","","true","yes","sound","stimuli/sounds/dog_label_B.wav",""
"","","","","","audio-keyboard-response","322","2.0.0","360761","prkw2s1ha2b","ono","owl","20","female","yes","yes","17","2","624","stimuli/sounds/bleep.wav"," ","","","","","","",""
"","","","","","html-keyboard-response","323","2.0.0","361058","prkw2s1ha2b","ono","owl","20","female","yes","yes","17","2","195","<div style=""font-size:30px;"">Press space to start the trial</div>"," ","","","","","","",""
"","","","","","html-keyboard-response","324","2.0.0","361311","prkw2s1ha2b","ono","owl","20","female","yes","yes","17","2","null","<div style=""font-size:60px;"">+</div>","null","","","","","","",""
"","","","","","audio-keyboard-response","325","2.0.0","361918","prkw2s1ha2b","ono","owl","20","female","yes","yes","17","2","null","stimuli/sounds/drop_sound_B.wav","null","","","","","","",""
"","","","","","html-keyboard-response","326","2.0.0","362920","prkw2s1ha2b","ono","owl","20","female","yes","yes","17","2","null","","null","","","","","","",""
"","","","","","image-keyboard-response","327","2.0.0","363795","prkw2s1ha2b","ono","owl","20","female","yes","yes","17","2","874","stimuli/pictures/drop_multi_1.jpg","1","1","","true","yes","sound","stimuli/sounds/drop_sound_B.wav",""
"","","","","","audio-keyboard-response","328","2.0.0","364223","prkw2s1ha2b","ono","owl","20","female","yes","yes","17","2","427","stimuli/sounds/bleep.wav"," ","","","","","","",""
"","","","","","html-keyboard-response","329","2.0.0","364482","prkw2s1ha2b","ono","owl","20","female","yes","yes","17","2","157","<div style=""font-size:30px;"">Press space to start the trial</div>"," ","","","","","","",""
"","","","","","html-keyboard-response","330","2.0.0","364734","prkw2s1ha2b","ono","owl","20","female","yes","yes","17","2","null","<div style=""font-size:60px;"">+</div>","null","","","","","","",""
"","","","","","audio-keyboard-response","331","2.0.0","365337","prkw2s1ha2b","ono","owl","20","female","yes","yes","17","2","null","stimuli/sounds/dog_sound_B.wav","null","","","","","","",""
"","","","","","html-keyboard-response","332","2.0.0","366339","prkw2s1ha2b","ono","owl","20","female","yes","yes","17","2","null","","null","","","","","","",""
"","","","","","image-keyboard-response","333","2.0.0","366943","prkw2s1ha2b","ono","owl","20","female","yes","yes","17","2","602","stimuli/pictures/motor_harley_1.jpg","0","0","","true","no","sound","stimuli/sounds/dog_sound_B.wav",""
"","","","","","audio-keyboard-response","334","2.0.0","367388","prkw2s1ha2b","ono","owl","20","female","yes","yes","17","2","443","stimuli/sounds/bleep.wav"," ","","","","","","",""
"","","","","","html-keyboard-response","335","2.0.0","367698","prkw2s1ha2b","ono","owl","20","female","yes","yes","17","2","207","<div style=""font-size:30px;"">Press space to start the trial</div>"," ","","","","","","",""
"","","","","","html-keyboard-response","336","2.0.0","367950","prkw2s1ha2b","ono","owl","20","female","yes","yes","17","2","null","<div style=""font-size:60px;"">+</div>","null","","","","","","",""
"","","","","","audio-keyboard-response","337","2.0.0","368553","prkw2s1ha2b","ono","owl","20","female","yes","yes","17","2","null","stimuli/sounds/motor_sound_B.wav","null","","","","","","",""
"","","","","","html-keyboard-response","338","2.0.0","369555","prkw2s1ha2b","ono","owl","20","female","yes","yes","17","2","null","","null","","","","","","",""
"","","","","","image-keyboard-response","339","2.0.0","370307","prkw2s1ha2b","ono","owl","20","female","yes","yes","17","2","751","stimuli/pictures/cough_man_2.jpg","0","0","","true","no","sound","stimuli/sounds/motor_sound_B.wav",""
"","","","","","audio-keyboard-response","340","2.0.0","370720","prkw2s1ha2b","ono","owl","20","female","yes","yes","17","2","411","stimuli/sounds/bleep.wav"," ","","","","","","",""
"","","","","","html-keyboard-response","341","2.0.0","371001","prkw2s1ha2b","ono","owl","20","female","yes","yes","17","2","179","<div style=""font-size:30px;"">Press space to start the trial</div>"," ","","","","","","",""
"","","","","","html-keyboard-response","342","2.0.0","371253","prkw2s1ha2b","ono","owl","20","female","yes","yes","17","2","null","<div style=""font-size:60px;"">+</div>","null","","","","","","",""
"","","","","","audio-keyboard-response","343","2.0.0","371854","prkw2s1ha2b","ono","owl","20","female","yes","yes","17","2","null","stimuli/sounds/motor_label_A.wav","null","","","","","","",""
"","","","","","html-keyboard-response","344","2.0.0","372857","prkw2s1ha2b","ono","owl","20","female","yes","yes","17","2","null","","null","","","","","","",""
"","","","","","image-keyboard-response","345","2.0.0","373398","prkw2s1ha2b","ono","owl","20","female","yes","yes","17","2","541","stimuli/pictures/motor_harley_2.jpg","1","1","","true","yes","sound","stimuli/sounds/motor_label_A.wav",""
"","","","","","audio-keyboard-response","346","2.0.0","373784","prkw2s1ha2b","ono","owl","20","female","yes","yes","17","2","384","stimuli/sounds/bleep.wav"," ","","","","","","",""
"","","","","","html-keyboard-response","347","2.0.0","374099","prkw2s1ha2b","ono","owl","20","female","yes","yes","17","2","212","<div style=""font-size:30px;"">Press space to start the trial</div>"," ","","","","","","",""
"","","","","","html-keyboard-response","348","2.0.0","374352","prkw2s1ha2b","ono","owl","20","female","yes","yes","17","2","null","<div style=""font-size:60px;"">+</div>","null","","","","","","",""
"","","","","","audio-keyboard-response","349","2.0.0","374952","prkw2s1ha2b","ono","owl","20","female","yes","yes","17","2","null","stimuli/sounds/motor_label_A.wav","null","","","","","","",""
"","","","","","html-keyboard-response","350","2.0.0","375954","prkw2s1ha2b","ono","owl","20","female","yes","yes","17","2","null","","null","","","","","","",""
"","","","","","image-keyboard-response","351","2.0.0","376512","prkw2s1ha2b","ono","owl","20","female","yes","yes","17","2","556","stimuli/pictures/motor_harley_1.jpg","1","1","","true","yes","sound","stimuli/sounds/motor_label_A.wav",""
"","","","","","audio-keyboard-response","352","2.0.0","376913","prkw2s1ha2b","ono","owl","20","female","yes","yes","17","2","400","stimuli/sounds/bleep.wav"," ","","","","","","",""
"","","","","","html-keyboard-response","353","2.0.0","377497","prkw2s1ha2b","ono","owl","20","female","yes","yes","17","2","481","<div style=""font-size:30px;"">Press space to start the trial</div>"," ","","","","","","",""
"","","","","","html-keyboard-response","354","2.0.0","377749","prkw2s1ha2b","ono","owl","20","female","yes","yes","17","2","null","<div style=""font-size:60px;"">+</div>","null","","","","","","",""
"","","","","","audio-keyboard-response","355","2.0.0","378350","prkw2s1ha2b","ono","owl","20","female","yes","yes","17","2","null","stimuli/sounds/dog_sound_A.wav","null","","","","","","",""
"","","","","","html-keyboard-response","356","2.0.0","379353","prkw2s1ha2b","ono","owl","20","female","yes","yes","17","2","null","","null","","","","","","",""
"","","","","","image-keyboard-response","357","2.0.0","379802","prkw2s1ha2b","ono","owl","20","female","yes","yes","17","2","447","stimuli/pictures/dog_york_2.jpg","1","1","","true","no","sound","stimuli/sounds/dog_sound_A.wav",""
"","","","","","audio-keyboard-response","358","2.0.0","380132","prkw2s1ha2b","ono","owl","20","female","yes","yes","17","2","331","stimuli/sounds/bleep.wav"," ","","","","","","",""
"","","","","","html-keyboard-response","359","2.0.0","380510","prkw2s1ha2b","ono","owl","20","female","yes","yes","17","2","276","<div style=""font-size:30px;"">Press space to start the trial</div>"," ","","","","","","",""
"","","","","","html-keyboard-response","360","2.0.0","380761","prkw2s1ha2b","ono","owl","20","female","yes","yes","17","2","null","<div style=""font-size:60px;"">+</div>","null","","","","","","",""
"","","","","","audio-keyboard-response","361","2.0.0","381374","prkw2s1ha2b","ono","owl","20","female","yes","yes","17","2","null","stimuli/sounds/drop_label_B.wav","null","","","","","","",""
"","","","","","html-keyboard-response","362","2.0.0","382377","prkw2s1ha2b","ono","owl","20","female","yes","yes","17","2","null","","null","","","","","","",""
"","","","","","image-keyboard-response","363","2.0.0","382904","prkw2s1ha2b","ono","owl","20","female","yes","yes","17","2","526","stimuli/pictures/motor_dirt_1.jpg","0","0","","true","no","sound","stimuli/sounds/drop_label_B.wav",""
"","","","","","audio-keyboard-response","364","2.0.0","383214","prkw2s1ha2b","ono","owl","20","female","yes","yes","17","2","315","stimuli/sounds/bleep.wav"," ","","","","","","",""
"","","","","","html-keyboard-response","365","2.0.0","383456","prkw2s1ha2b","ono","owl","20","female","yes","yes","17","2","139","<div style=""font-size:30px;"">Press space to start the trial</div>"," ","","","","","","",""
"","","","","","html-keyboard-response","366","2.0.0","383708","prkw2s1ha2b","ono","owl","20","female","yes","yes","17","2","null","<div style=""font-size:60px;"">+</div>","null","","","","","","",""
"","","","","","audio-keyboard-response","367","2.0.0","384244","prkw2s1ha2b","ono","owl","20","female","yes","yes","17","2","null","stimuli/sounds/hiccup_label_A.wav","null","","","","","","",""
"","","","","","html-keyboard-response","368","2.0.0","385246","prkw2s1ha2b","ono","owl","20","female","yes","yes","17","2","null","","null","","","","","","",""
"","","","","","image-keyboard-response","369","2.0.0","386246","prkw2s1ha2b","ono","owl","20","female","yes","yes","17","2","999","stimuli/pictures/hiccup_wom_1.jpg","1","1","","true","yes","sound","stimuli/sounds/hiccup_label_A.wav",""
"","","","","","audio-keyboard-response","370","2.0.0","387249","prkw2s1ha2b","ono","owl","20","female","yes","yes","17","2","null","stimuli/sounds/bleep.wav","null","","","","","","",""
"","","","","","html-keyboard-response","371","2.0.0","388010","prkw2s1ha2b","ono","owl","20","female","yes","yes","17","2","658","<div style=""font-size:30px;"">Press space to start the trial</div>"," ","","","","","","",""
"","","","","","html-keyboard-response","372","2.0.0","388262","prkw2s1ha2b","ono","owl","20","female","yes","yes","17","2","null","<div style=""font-size:60px;"">+</div>","null","","","","","","",""
"","","","","","audio-keyboard-response","373","2.0.0","388867","prkw2s1ha2b","ono","owl","20","female","yes","yes","17","2","null","stimuli/sounds/drop_sound_B.wav","null","","","","","","",""
"","","","","","html-keyboard-response","374","2.0.0","389870","prkw2s1ha2b","ono","owl","20","female","yes","yes","17","2","null","","null","","","","","","",""
"","","","","","image-keyboard-response","375","2.0.0","391511","prkw2s1ha2b","ono","owl","20","female","yes","yes","17","2","1641","stimuli/pictures/dog_york_2.jpg","0","0","","true","no","sound","stimuli/sounds/drop_sound_B.wav",""
"","","","","","audio-keyboard-response","376","2.0.0","392514","prkw2s1ha2b","ono","owl","20","female","yes","yes","17","2","null","stimuli/sounds/bleep.wav","null","","","","","","",""
"","","","","","html-keyboard-response","377","2.0.0","397368","prkw2s1ha2b","ono","owl","20","female","yes","yes","17","2","4751","<div style=""font-size:30px;"">Press space to start the trial</div>"," ","","","","","","",""
"","","","","","html-keyboard-response","378","2.0.0","397620","prkw2s1ha2b","ono","owl","20","female","yes","yes","17","2","null","<div style=""font-size:60px;"">+</div>","null","","","","","","",""
"","","","","","audio-keyboard-response","379","2.0.0","398222","prkw2s1ha2b","ono","owl","20","female","yes","yes","17","2","null","stimuli/sounds/dog_sound_B.wav","null","","","","","","",""
"","","","","","html-keyboard-response","380","2.0.0","399224","prkw2s1ha2b","ono","owl","20","female","yes","yes","17","2","null","","null","","","","","","",""
"","","","","","image-keyboard-response","381","2.0.0","400226","prkw2s1ha2b","ono","owl","20","female","yes","yes","17","2","1000","stimuli/pictures/motor_dirt_1.jpg","0","0","","true","no","sound","stimuli/sounds/dog_sound_B.wav",""
"","","","","","audio-keyboard-response","382","2.0.0","401229","prkw2s1ha2b","ono","owl","20","female","yes","yes","17","2","null","stimuli/sounds/bleep.wav","null","","","","","","",""
"","","","","","html-keyboard-response","383","2.0.0","402094","prkw2s1ha2b","ono","owl","20","female","yes","yes","17","2","763","<div style=""font-size:30px;"">Press space to start the trial</div>"," ","","","","","","",""
"","","","","","html-keyboard-response","384","2.0.0","402346","prkw2s1ha2b","ono","owl","20","female","yes","yes","17","2","null","<div style=""font-size:60px;"">+</div>","null","","","","","","",""
"","","","","","audio-keyboard-response","385","2.0.0","402948","prkw2s1ha2b","ono","owl","20","female","yes","yes","17","2","null","stimuli/sounds/dog_label_B.wav","null","","","","","","",""
"","","","","","html-keyboard-response","386","2.0.0","403950","prkw2s1ha2b","ono","owl","20","female","yes","yes","17","2","null","","null","","","","","","",""
"","","","","","image-keyboard-response","387","2.0.0","404933","prkw2s1ha2b","ono","owl","20","female","yes","yes","17","2","982","stimuli/pictures/cough_wom_2.jpg","0","0","","true","no","sound","stimuli/sounds/dog_label_B.wav",""
"","","","","","audio-keyboard-response","388","2.0.0","405934","prkw2s1ha2b","ono","owl","20","female","yes","yes","17","2","null","stimuli/sounds/bleep.wav","null","","","","","","",""
"","","","","","html-keyboard-response","389","2.0.0","408934","prkw2s1ha2b","ono","owl","20","female","yes","yes","17","2","2898","<p>You have completed a block. Press R when you are ready to continue</p>","r","","","","","","",""
"","","","","","html-keyboard-response","390","2.0.0","409902","prkw2s1ha2b","ono","owl","20","female","yes","yes","17","2","966","<div style=""font-size:30px;"">Press space to start the trial</div>"," ","","","","","","",""
"","","","","","html-keyboard-response","391","2.0.0","410154","prkw2s1ha2b","ono","owl","20","female","yes","yes","17","2","null","<div style=""font-size:60px;"">+</div>","null","","","","","","",""
"","","","","","audio-keyboard-response","392","2.0.0","410692","prkw2s1ha2b","ono","owl","20","female","yes","yes","17","2","null","stimuli/sounds/hiccup_label_A.wav","null","","","","","","",""
"","","","","","html-keyboard-response","393","2.0.0","411694","prkw2s1ha2b","ono","owl","20","female","yes","yes","17","2","null","","null","","","","","","",""
"","","","","","image-keyboard-response","394","2.0.0","411802","prkw2s1ha2b","ono","owl","20","female","yes","yes","17","2","105","stimuli/pictures/cough_wom_2.jpg","1","0","","false","no","sound","stimuli/sounds/hiccup_label_A.wav",""
"","","","","","audio-keyboard-response","395","2.0.0","412804","prkw2s1ha2b","ono","owl","20","female","yes","yes","17","2","null","stimuli/sounds/buzz.wav","null","","","","","","",""
"","","","","","html-keyboard-response","396","2.0.0","413795","prkw2s1ha2b","ono","owl","20","female","yes","yes","17","2","889","<div style=""font-size:30px;"">Press space to start the trial</div>"," ","","","","","","",""
"","","","","","html-keyboard-response","397","2.0.0","414048","prkw2s1ha2b","ono","owl","20","female","yes","yes","17","2","null","<div style=""font-size:60px;"">+</div>","null","","","","","","",""
"","","","","","audio-keyboard-response","398","2.0.0","414649","prkw2s1ha2b","ono","owl","20","female","yes","yes","17","2","null","stimuli/sounds/motor_label_B.wav","null","","","","","","",""
"","","","","","html-keyboard-response","399","2.0.0","415652","prkw2s1ha2b","ono","owl","20","female","yes","yes","17","2","null","","null","","","","","","",""
"","","","","","image-keyboard-response","400","2.0.0","415772","prkw2s1ha2b","ono","owl","20","female","yes","yes","17","2","119","stimuli/pictures/motor_dirt_1.jpg","1","1","","true","yes","sound","stimuli/sounds/motor_label_B.wav",""
"","","","","","audio-keyboard-response","401","2.0.0","416775","prkw2s1ha2b","ono","owl","20","female","yes","yes","17","2","null","stimuli/sounds/bleep.wav","null","","","","","","",""
"","","","","","html-keyboard-response","402","2.0.0","417491","prkw2s1ha2b","ono","owl","20","female","yes","yes","17","2","615","<div style=""font-size:30px;"">Press space to start the trial</div>"," ","","","","","","",""
"","","","","","html-keyboard-response","403","2.0.0","417743","prkw2s1ha2b","ono","owl","20","female","yes","yes","17","2","null","<div style=""font-size:60px;"">+</div>","null","","","","","","",""
"","","","","","audio-keyboard-response","404","2.0.0","418329","prkw2s1ha2b","ono","owl","20","female","yes","yes","17","2","null","stimuli/sounds/drop_sound_A.wav","null","","","","","","",""
"","","","","","html-keyboard-response","405","2.0.0","419331","prkw2s1ha2b","ono","owl","20","female","yes","yes","17","2","null","","null","","","","","","",""
"","","","","","image-keyboard-response","406","2.0.0","420239","prkw2s1ha2b","ono","owl","20","female","yes","yes","17","2","906","stimuli/pictures/cough_man_2.jpg","0","0","","true","no","sound","stimuli/sounds/drop_sound_A.wav",""
"","","","","","audio-keyboard-response","407","2.0.0","421241","prkw2s1ha2b","ono","owl","20","female","yes","yes","17","2","null","stimuli/sounds/bleep.wav","null","","","","","","",""
"","","","","","html-keyboard-response","408","2.0.0","421892","prkw2s1ha2b","ono","owl","20","female","yes","yes","17","2","549","<div style=""font-size:30px;"">Press space to start the trial</div>"," ","","","","","","",""
"","","","","","html-keyboard-response","409","2.0.0","422143","prkw2s1ha2b","ono","owl","20","female","yes","yes","17","2","null","<div style=""font-size:60px;"">+</div>","null","","","","","","",""
"","","","","","audio-keyboard-response","410","2.0.0","422692","prkw2s1ha2b","ono","owl","20","female","yes","yes","17","2","null","stimuli/sounds/drop_label_A.wav","null","","","","","","",""
"","","","","","html-keyboard-response","411","2.0.0","423694","prkw2s1ha2b","ono","owl","20","female","yes","yes","17","2","null","","null","","","","","","",""
"","","","","","image-keyboard-response","412","2.0.0","424219","prkw2s1ha2b","ono","owl","20","female","yes","yes","17","2","524","stimuli/pictures/drop_single_2.jpg","1","1","","true","yes","sound","stimuli/sounds/drop_label_A.wav",""
"","","","","","audio-keyboard-response","413","2.0.0","425222","prkw2s1ha2b","ono","owl","20","female","yes","yes","17","2","null","stimuli/sounds/bleep.wav","null","","","","","","",""
"","","","","","html-keyboard-response","414","2.0.0","426156","prkw2s1ha2b","ono","owl","20","female","yes","yes","17","2","832","<div style=""font-size:30px;"">Press space to start the trial</div>"," ","","","","","","",""
"","","","","","html-keyboard-response","415","2.0.0","426408","prkw2s1ha2b","ono","owl","20","female","yes","yes","17","2","null","<div style=""font-size:60px;"">+</div>","null","","","","","","",""
"","","","","","audio-keyboard-response","416","2.0.0","426990","prkw2s1ha2b","ono","owl","20","female","yes","yes","17","2","null","stimuli/sounds/drop_sound_A.wav","null","","","","","","",""
"","","","","","html-keyboard-response","417","2.0.0","427992","prkw2s1ha2b","ono","owl","20","female","yes","yes","17","2","null","","null","","","","","","",""
"","","","","","image-keyboard-response","418","2.0.0","428756","prkw2s1ha2b","ono","owl","20","female","yes","yes","17","2","764","stimuli/pictures/drop_multi_1.jpg","1","1","","true","no","sound","stimuli/sounds/drop_sound_A.wav",""
"","","","","","audio-keyboard-response","419","2.0.0","429759","prkw2s1ha2b","ono","owl","20","female","yes","yes","17","2","null","stimuli/sounds/bleep.wav","null","","","","","","",""
"","","","","","html-keyboard-response","420","2.0.0","431795","prkw2s1ha2b","ono","owl","20","female","yes","yes","17","2","1933","<div style=""font-size:30px;"">Press space to start the trial</div>"," ","","","","","","",""
"","","","","","html-keyboard-response","421","2.0.0","432047","prkw2s1ha2b","ono","owl","20","female","yes","yes","17","2","null","<div style=""font-size:60px;"">+</div>","null","","","","","","",""
"","","","","","audio-keyboard-response","422","2.0.0","432649","prkw2s1ha2b","ono","owl","20","female","yes","yes","17","2","null","stimuli/sounds/motor_label_A.wav","null","","","","","","",""
"","","","","","html-keyboard-response","423","2.0.0","433651","prkw2s1ha2b","ono","owl","20","female","yes","yes","17","2","null","","null","","","","","","",""
"","","","","","image-keyboard-response","424","2.0.0","434090","prkw2s1ha2b","ono","owl","20","female","yes","yes","17","2","438","stimuli/pictures/motor_dirt_1.jpg","0","1","","false","yes","sound","stimuli/sounds/motor_label_A.wav",""
"","","","","","audio-keyboard-response","425","2.0.0","435093","prkw2s1ha2b","ono","owl","20","female","yes","yes","17","2","null","stimuli/sounds/buzz.wav","null","","","","","","",""
"","","","","","html-keyboard-response","426","2.0.0","435729","prkw2s1ha2b","ono","owl","20","female","yes","yes","17","2","535","<div style=""font-size:30px;"">Press space to start the trial</div>"," ","","","","","","",""
"","","","","","html-keyboard-response","427","2.0.0","435982","prkw2s1ha2b","ono","owl","20","female","yes","yes","17","2","null","<div style=""font-size:60px;"">+</div>","null","","","","","","",""
"","","","","","audio-keyboard-response","428","2.0.0","436585","prkw2s1ha2b","ono","owl","20","female","yes","yes","17","2","null","stimuli/sounds/motor_label_B.wav","null","","","","","","",""
"","","","","","html-keyboard-response","429","2.0.0","437588","prkw2s1ha2b","ono","owl","20","female","yes","yes","17","2","null","","null","","","","","","",""
"","","","","","image-keyboard-response","430","2.0.0","438350","prkw2s1ha2b","ono","owl","20","female","yes","yes","17","2","761","stimuli/pictures/motor_dirt_2.jpg","1","1","","true","yes","sound","stimuli/sounds/motor_label_B.wav",""
"","","","","","audio-keyboard-response","431","2.0.0","439352","prkw2s1ha2b","ono","owl","20","female","yes","yes","17","2","null","stimuli/sounds/bleep.wav","null","","","","","","",""
"","","","","","html-keyboard-response","432","2.0.0","440075","prkw2s1ha2b","ono","owl","20","female","yes","yes","17","2","621","<div style=""font-size:30px;"">Press space to start the trial</div>"," ","","","","","","",""
"","","","","","html-keyboard-response","433","2.0.0","440328","prkw2s1ha2b","ono","owl","20","female","yes","yes","17","2","null","<div style=""font-size:60px;"">+</div>","null","","","","","","",""
"","","","","","audio-keyboard-response","434","2.0.0","440937","prkw2s1ha2b","ono","owl","20","female","yes","yes","17","2","null","stimuli/sounds/drop_label_B.wav","null","","","","","","",""
"","","","","","html-keyboard-response","435","2.0.0","441939","prkw2s1ha2b","ono","owl","20","female","yes","yes","17","2","null","","null","","","","","","",""
"","","","","","image-keyboard-response","436","2.0.0","442367","prkw2s1ha2b","ono","owl","20","female","yes","yes","17","2","427","stimuli/pictures/drop_single_2.jpg","1","1","","true","yes","sound","stimuli/sounds/drop_label_B.wav",""
"","","","","","audio-keyboard-response","437","2.0.0","443370","prkw2s1ha2b","ono","owl","20","female","yes","yes","17","2","null","stimuli/sounds/bleep.wav","null","","","","","","",""
"","","","","","html-keyboard-response","438","2.0.0","444063","prkw2s1ha2b","ono","owl","20","female","yes","yes","17","2","591","<div style=""font-size:30px;"">Press space to start the trial</div>"," ","","","","","","",""
"","","","","","html-keyboard-response","439","2.0.0","444315","prkw2s1ha2b","ono","owl","20","female","yes","yes","17","2","null","<div style=""font-size:60px;"">+</div>","null","","","","","","",""
"","","","","","audio-keyboard-response","440","2.0.0","444852","prkw2s1ha2b","ono","owl","20","female","yes","yes","17","2","null","stimuli/sounds/hiccup_label_A.wav","null","","","","","","",""
"","","","","","html-keyboard-response","441","2.0.0","445855","prkw2s1ha2b","ono","owl","20","female","yes","yes","17","2","null","","null","","","","","","",""
"","","","","","image-keyboard-response","442","2.0.0","447145","prkw2s1ha2b","ono","owl","20","female","yes","yes","17","2","1289","stimuli/pictures/hiccup_man_2.jpg","0","1","","false","yes","sound","stimuli/sounds/hiccup_label_A.wav",""
"","","","","","audio-keyboard-response","443","2.0.0","448148","prkw2s1ha2b","ono","owl","20","female","yes","yes","17","2","null","stimuli/sounds/buzz.wav","null","","","","","","",""
"","","","","","html-keyboard-response","444","2.0.0","450370","prkw2s1ha2b","ono","owl","20","female","yes","yes","17","2","2119","<div style=""font-size:30px;"">Press space to start the trial</div>"," ","","","","","","",""
"","","","","","html-keyboard-response","445","2.0.0","450622","prkw2s1ha2b","ono","owl","20","female","yes","yes","17","2","null","<div style=""font-size:60px;"">+</div>","null","","","","","","",""
"","","","","","audio-keyboard-response","446","2.0.0","451225","prkw2s1ha2b","ono","owl","20","female","yes","yes","17","2","null","stimuli/sounds/dog_sound_A.wav","null","","","","","","",""
"","","","","","html-keyboard-response","447","2.0.0","452227","prkw2s1ha2b","ono","owl","20","female","yes","yes","17","2","null","","null","","","","","","",""
"","","","","","image-keyboard-response","448","2.0.0","453029","prkw2s1ha2b","ono","owl","20","female","yes","yes","17","2","801","stimuli/pictures/dog_rott_1.jpg","1","1","","true","yes","sound","stimuli/sounds/dog_sound_A.wav",""
"","","","","","audio-keyboard-response","449","2.0.0","454032","prkw2s1ha2b","ono","owl","20","female","yes","yes","17","2","null","stimuli/sounds/bleep.wav","null","","","","","","",""
"","","","","","html-keyboard-response","450","2.0.0","454643","prkw2s1ha2b","ono","owl","20","female","yes","yes","17","2","509","<div style=""font-size:30px;"">Press space to start the trial</div>"," ","","","","","","",""
"","","","","","html-keyboard-response","451","2.0.0","454895","prkw2s1ha2b","ono","owl","20","female","yes","yes","17","2","null","<div style=""font-size:60px;"">+</div>","null","","","","","","",""
"","","","","","audio-keyboard-response","452","2.0.0","455508","prkw2s1ha2b","ono","owl","20","female","yes","yes","17","2","null","stimuli/sounds/drop_label_B.wav","null","","","","","","",""
"","","","","","html-keyboard-response","453","2.0.0","456510","prkw2s1ha2b","ono","owl","20","female","yes","yes","17","2","null","","null","","","","","","",""
"","","","","","image-keyboard-response","454","2.0.0","457387","prkw2s1ha2b","ono","owl","20","female","yes","yes","17","2","876","stimuli/pictures/drop_multi_1.jpg","1","1","","true","yes","sound","stimuli/sounds/drop_label_B.wav",""
"","","","","","audio-keyboard-response","455","2.0.0","458390","prkw2s1ha2b","ono","owl","20","female","yes","yes","17","2","null","stimuli/sounds/bleep.wav","null","","","","","","",""
"","","","","","html-keyboard-response","456","2.0.0","459835","prkw2s1ha2b","ono","owl","20","female","yes","yes","17","2","1343","<div style=""font-size:30px;"">Press space to start the trial</div>"," ","","","","","","",""
"","","","","","html-keyboard-response","457","2.0.0","460088","prkw2s1ha2b","ono","owl","20","female","yes","yes","17","2","null","<div style=""font-size:60px;"">+</div>","null","","","","","","",""
"","","","","","audio-keyboard-response","458","2.0.0","460751","prkw2s1ha2b","ono","owl","20","female","yes","yes","17","2","null","stimuli/sounds/cough_sound_A.wav","null","","","","","","",""
"","","","","","html-keyboard-response","459","2.0.0","461752","prkw2s1ha2b","ono","owl","20","female","yes","yes","17","2","null","","null","","","","","","",""
"","","","","","image-keyboard-response","460","2.0.0","462809","prkw2s1ha2b","ono","owl","20","female","yes","yes","17","2","1055","stimuli/pictures/dog_york_2.jpg","0","0","","true","no","sound","stimuli/sounds/cough_sound_A.wav",""
"","","","","","audio-keyboard-response","461","2.0.0","463811","prkw2s1ha2b","ono","owl","20","female","yes","yes","17","2","null","stimuli/sounds/bleep.wav","null","","","","","","",""
"","","","","","html-keyboard-response","462","2.0.0","465193","prkw2s1ha2b","ono","owl","20","female","yes","yes","17","2","1280","<div style=""font-size:30px;"">Press space to start the trial</div>"," ","","","","","","",""
"","","","","","html-keyboard-response","463","2.0.0","465445","prkw2s1ha2b","ono","owl","20","female","yes","yes","17","2","null","<div style=""font-size:60px;"">+</div>","null","","","","","","",""
"","","","","","audio-keyboard-response","464","2.0.0","466047","prkw2s1ha2b","ono","owl","20","female","yes","yes","17","2","null","stimuli/sounds/dog_label_A.wav","null","","","","","","",""
"","","","","","html-keyboard-response","465","2.0.0","467048","prkw2s1ha2b","ono","owl","20","female","yes","yes","17","2","null","","null","","","","","","",""
"","","","","","image-keyboard-response","466","2.0.0","467630","prkw2s1ha2b","ono","owl","20","female","yes","yes","17","2","581","stimuli/pictures/dog_rott_1.jpg","1","1","","true","yes","sound","stimuli/sounds/dog_label_A.wav",""
"","","","","","audio-keyboard-response","467","2.0.0","468632","prkw2s1ha2b","ono","owl","20","female","yes","yes","17","2","null","stimuli/sounds/bleep.wav","null","","","","","","",""
"","","","","","html-keyboard-response","468","2.0.0","471618","prkw2s1ha2b","ono","owl","20","female","yes","yes","17","2","2884","<div style=""font-size:30px;"">Press space to start the trial</div>"," ","","","","","","",""
"","","","","","html-keyboard-response","469","2.0.0","471871","prkw2s1ha2b","ono","owl","20","female","yes","yes","17","2","null","<div style=""font-size:60px;"">+</div>","null","","","","","","",""
"","","","","","audio-keyboard-response","470","2.0.0","472538","prkw2s1ha2b","ono","owl","20","female","yes","yes","17","2","null","stimuli/sounds/cough_sound_A.wav","null","","","","","","",""
"","","","","","html-keyboard-response","471","2.0.0","473540","prkw2s1ha2b","ono","owl","20","female","yes","yes","17","2","null","","null","","","","","","",""
"","","","","","image-keyboard-response","472","2.0.0","475191","prkw2s1ha2b","ono","owl","20","female","yes","yes","17","2","1650","stimuli/pictures/cough_man_2.jpg","1","1","","true","no","sound","stimuli/sounds/cough_sound_A.wav",""
"","","","","","audio-keyboard-response","473","2.0.0","476193","prkw2s1ha2b","ono","owl","20","female","yes","yes","17","2","null","stimuli/sounds/bleep.wav","null","","","","","","",""
"","","","","","html-keyboard-response","474","2.0.0","477279","prkw2s1ha2b","ono","owl","20","female","yes","yes","17","2","985","<div style=""font-size:30px;"">Press space to start the trial</div>"," ","","","","","","",""
"","","","","","html-keyboard-response","475","2.0.0","477532","prkw2s1ha2b","ono","owl","20","female","yes","yes","17","2","null","<div style=""font-size:60px;"">+</div>","null","","","","","","",""
"","","","","","audio-keyboard-response","476","2.0.0","478132","prkw2s1ha2b","ono","owl","20","female","yes","yes","17","2","null","stimuli/sounds/motor_label_A.wav","null","","","","","","",""
"","","","","","html-keyboard-response","477","2.0.0","479135","prkw2s1ha2b","ono","owl","20","female","yes","yes","17","2","null","","null","","","","","","",""
"","","","","","image-keyboard-response","478","2.0.0","479907","prkw2s1ha2b","ono","owl","20","female","yes","yes","17","2","770","stimuli/pictures/motor_dirt_2.jpg","1","1","","true","yes","sound","stimuli/sounds/motor_label_A.wav",""
"","","","","","audio-keyboard-response","479","2.0.0","480908","prkw2s1ha2b","ono","owl","20","female","yes","yes","17","2","null","stimuli/sounds/bleep.wav","null","","","","","","",""
"","","","","","html-keyboard-response","480","2.0.0","482650","prkw2s1ha2b","ono","owl","20","female","yes","yes","17","2","1641","<div style=""font-size:30px;"">Press space to start the trial</div>"," ","","","","","","",""
"","","","","","html-keyboard-response","481","2.0.0","482903","prkw2s1ha2b","ono","owl","20","female","yes","yes","17","2","null","<div style=""font-size:60px;"">+</div>","null","","","","","","",""
"","","","","","audio-keyboard-response","482","2.0.0","483583","prkw2s1ha2b","ono","owl","20","female","yes","yes","17","2","null","stimuli/sounds/cough_sound_B.wav","null","","","","","","",""
"","","","","","html-keyboard-response","483","2.0.0","484585","prkw2s1ha2b","ono","owl","20","female","yes","yes","17","2","null","","null","","","","","","",""
"","","","","","image-keyboard-response","484","2.0.0","485590","prkw2s1ha2b","ono","owl","20","female","yes","yes","17","2","1004","stimuli/pictures/hiccup_wom_1.jpg","1","0","","false","no","sound","stimuli/sounds/cough_sound_B.wav",""
"","","","","","audio-keyboard-response","485","2.0.0","486593","prkw2s1ha2b","ono","owl","20","female","yes","yes","17","2","null","stimuli/sounds/buzz.wav","null","","","","","","",""
"","","","","","html-keyboard-response","486","2.0.0","488108","prkw2s1ha2b","ono","owl","20","female","yes","yes","17","2","1414","<div style=""font-size:30px;"">Press space to start the trial</div>"," ","","","","","","",""
"","","","","","html-keyboard-response","487","2.0.0","488361","prkw2s1ha2b","ono","owl","20","female","yes","yes","17","2","null","<div style=""font-size:60px;"">+</div>","null","","","","","","",""
"","","","","","audio-keyboard-response","488","2.0.0","488970","prkw2s1ha2b","ono","owl","20","female","yes","yes","17","2","null","stimuli/sounds/cough_label_B.wav","null","","","","","","",""
"","","","","","html-keyboard-response","489","2.0.0","489972","prkw2s1ha2b","ono","owl","20","female","yes","yes","17","2","null","","null","","","","","","",""
"","","","","","image-keyboard-response","490","2.0.0","491771","prkw2s1ha2b","ono","owl","20","female","yes","yes","17","2","1797","stimuli/pictures/drop_single_1.jpg","0","0","","true","no","sound","stimuli/sounds/cough_label_B.wav",""
