"success","timeout","failed_images","failed_audio","failed_video","trial_type","trial_index","plugin_version","time_elapsed","random_id","condition","participant","age","gender_id","mus_exp","inst_exp","years_exp","mus_listening","rt","stimulus","response","correct_response","practice","correct","congruent","sound_type","audio","question_order"
"true","false","[]","[]","[]","preload","0","2.0.0","448","psm2bkje7mx","mus","Manatee","21","Female","no","yes","1","3","","","","","","","","","",""
"","","","","","html-keyboard-response","1","2.0.0","4520","psm2bkje7mx","mus","Manatee","21","Female","no","yes","1","3","4071","Welcome to the experiment! Press any key to begin."," ","","","","","","",""
"true","","","","","fullscreen","2","null","6707","psm2bkje7mx","mus","Manatee","21","Female","no","yes","1","3","1184","","","","","","","","",""
"","","","","","survey-text","3","2.0.0","9131","psm2bkje7mx","mus","Manatee","21","Female","no","yes","1","3","2421","","{""participant_id"":""Manatee""}","","","","","","",""
"","","","","","html-keyboard-response","4","2.0.0","10189","psm2bkje7mx","mus","Manatee","21","Female","no","yes","1","3","1056","
    <p> Please use headphones for the duration of the study.</p>
    <p> Within each trial, you will hear a sound and then be presented with an image in the center of your screen.</p>
    <p>Press the <b>'1'</b> key if what you hear <u>matches</u> what you see.</p>
    <p>Press the <b>'0'</b> key if what you hear <u>does not match</u> what you see.</p>
    <p>Try to respond as quickly and accurately as you can.</p>
    <p> Press any key to begin.</p>
    "," ","","","","","","",""
"","","","","","html-keyboard-response","5","2.0.0","11213","psm2bkje7mx","mus","Manatee","21","Female","no","yes","1","3","1023","
    <div style=""font-size:28px;"">
      <p>You will now complete 4 short practice trials.</p>
      <p>This is just to help you get familiar with the task.</p>
      <p>Press any key to begin.</p>
    </div>
  "," ","","","","","","",""
"","","","","","html-keyboard-response","6","2.0.0","11716","psm2bkje7mx","mus","Manatee","21","Female","no","yes","1","3","null","<div style=""font-size:60px;"">+</div>","null","","","","","","",""
"","","","","","audio-keyboard-response","7","2.0.0","12358","psm2bkje7mx","mus","Manatee","21","Female","no","yes","1","3","null","stimuli/sounds/guitar_label_A.wav","null","","","","","","",""
"","","","","","image-keyboard-response","8","2.0.0","13077","psm2bkje7mx","mus","Manatee","21","Female","no","yes","1","3","716","stimuli/pictures/guitar_acoustic_1.jpg","1","1","true","true","","","",""
"","","","","","audio-keyboard-response","9","2.0.0","13881","psm2bkje7mx","mus","Manatee","21","Female","no","yes","1","3","null","stimuli/sounds/bleep.wav","null","","","","","","",""
"","","","","","html-keyboard-response","10","2.0.0","14583","psm2bkje7mx","mus","Manatee","21","Female","no","yes","1","3","null","<p style='color:green; font-size:30px;'>Correct!</p>","null","","","","","","",""
"","","","","","html-keyboard-response","11","2.0.0","15086","psm2bkje7mx","mus","Manatee","21","Female","no","yes","1","3","null","<div style=""font-size:60px;"">+</div>","null","","","","","","",""
"","","","","","audio-keyboard-response","12","2.0.0","15685","psm2bkje7mx","mus","Manatee","21","Female","no","yes","1","3","null","stimuli/sounds/guitar_sound_B.wav","null","","","","","","",""
"","","","","","image-keyboard-response","13","2.0.0","16079","psm2bkje7mx","mus","Manatee","21","Female","no","yes","1","3","392","stimuli/pictures/guitar_acoustic_2.jpg","1","1","true","true","","","",""
"","","","","","audio-keyboard-response","14","2.0.0","16882","psm2bkje7mx","mus","Manatee","21","Female","no","yes","1","3","null","stimuli/sounds/bleep.wav","null","","","","","","",""
"","","","","","html-keyboard-response","15","2.0.0","17584","psm2bkje7mx","mus","Manatee","21","Female","no","yes","1","3","null","<p style='color:green; font-size:30px;'>Correct!</p>","null","","","","","","",""
"","","","","","html-keyboard-response","16","2.0.0","18087","psm2bkje7mx","mus","Manatee","21","Female","no","yes","1","3","null","<div style=""font-size:60px;"">+</div>","null","","","","","","",""
"","","","","","audio-keyboard-response","17","2.0.0","18688","psm2bkje7mx","mus","Manatee","21","Female","no","yes","1","3","null","stimuli/sounds/flute_sound_A.wav","null","","","","","","",""
"","","","","","image-keyboard-response","18","2.0.0","19198","psm2bkje7mx","mus","Manatee","21","Female","no","yes","1","3","509","stimuli/pictures/guitar_electric_1.jpg","0","0","true","true","","","",""
"","","","","","audio-keyboard-response","19","2.0.0","20000","psm2bkje7mx","mus","Manatee","21","Female","no","yes","1","3","null","stimuli/sounds/bleep.wav","null","","","","","","",""
"","","","","","html-keyboard-response","20","2.0.0","20702","psm2bkje7mx","mus","Manatee","21","Female","no","yes","1","3","null","<p style='color:green; font-size:30px;'>Correct!</p>","null","","","","","","",""
"","","","","","html-keyboard-response","21","2.0.0","21205","psm2bkje7mx","mus","Manatee","21","Female","no","yes","1","3","null","<div style=""font-size:60px;"">+</div>","null","","","","","","",""
"","","","","","audio-keyboard-response","22","2.0.0","21808","psm2bkje7mx","mus","Manatee","21","Female","no","yes","1","3","null","stimuli/sounds/guitar_sound_A.wav","null","","","","","","",""
"","","","","","image-keyboard-response","23","2.0.0","22253","psm2bkje7mx","mus","Manatee","21","Female","no","yes","1","3","443","stimuli/pictures/guitar_acoustic_1.jpg","1","1","true","true","","","",""
"","","","","","audio-keyboard-response","24","2.0.0","23055","psm2bkje7mx","mus","Manatee","21","Female","no","yes","1","3","null","stimuli/sounds/bleep.wav","null","","","","","","",""
"","","","","","html-keyboard-response","25","2.0.0","23757","psm2bkje7mx","mus","Manatee","21","Female","no","yes","1","3","null","<p style='color:green; font-size:30px;'>Correct!</p>","null","","","","","","",""
"","","","","","html-keyboard-response","26","2.0.0","25837","psm2bkje7mx","mus","Manatee","21","Female","no","yes","1","3","2079","<p>Practice complete. Press any key to begin the real experiment.</p>"," ","","","","","","",""
"","","","","","html-keyboard-response","27","2.0.0","209395","psm2bkje7mx","mus","Manatee","21","Female","no","yes","1","3","183557","<div style=""font-size:30px;"">Press space to start the trial</div>"," ","","","","","","",""
"","","","","","html-keyboard-response","28","2.0.0","209648","psm2bkje7mx","mus","Manatee","21","Female","no","yes","1","3","null","<div style=""font-size:60px;"">+</div>","null","","","","","","",""
"","","","","","audio-keyboard-response","29","2.0.0","210292","psm2bkje7mx","mus","Manatee","21","Female","no","yes","1","3","null","stimuli/sounds/flute_label_B.wav","null","","","","","","",""
"","","","","","html-keyboard-response","30","2.0.0","211294","psm2bkje7mx","mus","Manatee","21","Female","no","yes","1","3","null","","null","","","","","","",""
"","","","","","image-keyboard-response","31","2.0.0","211761","psm2bkje7mx","mus","Manatee","21","Female","no","yes","1","3","465","stimuli/pictures/drum_bongo_1.jpg","0","0","","true","no","sound","stimuli/sounds/flute_label_B.wav",""
"","","","","","audio-keyboard-response","32","2.0.0","212764","psm2bkje7mx","mus","Manatee","21","Female","no","yes","1","3","null","stimuli/sounds/bleep.wav","null","","","","","","",""
"","","","","","html-keyboard-response","33","2.0.0","223600","psm2bkje7mx","mus","Manatee","21","Female","no","yes","1","3","10734","<div style=""font-size:30px;"">Press space to start the trial</div>"," ","","","","","","",""
"","","","","","html-keyboard-response","34","2.0.0","223853","psm2bkje7mx","mus","Manatee","21","Female","no","yes","1","3","null","<div style=""font-size:60px;"">+</div>","null","","","","","","",""
"","","","","","audio-keyboard-response","35","2.0.0","224457","psm2bkje7mx","mus","Manatee","21","Female","no","yes","1","3","null","stimuli/sounds/flute_sound_B.wav","null","","","","","","",""
"","","","","","html-keyboard-response","36","2.0.0","225459","psm2bkje7mx","mus","Manatee","21","Female","no","yes","1","3","null","","null","","","","","","",""
"","","","","","image-keyboard-response","37","2.0.0","226056","psm2bkje7mx","mus","Manatee","21","Female","no","yes","1","3","595","stimuli/pictures/bird_song_1.jpg","0","0","","true","no","sound","stimuli/sounds/flute_sound_B.wav",""
"","","","","","audio-keyboard-response","38","2.0.0","227058","psm2bkje7mx","mus","Manatee","21","Female","no","yes","1","3","null","stimuli/sounds/bleep.wav","null","","","","","","",""
"","","","","","html-keyboard-response","39","2.0.0","235048","psm2bkje7mx","mus","Manatee","21","Female","no","yes","1","3","7888","<div style=""font-size:30px;"">Press space to start the trial</div>"," ","","","","","","",""
"","","","","","html-keyboard-response","40","2.0.0","235300","psm2bkje7mx","mus","Manatee","21","Female","no","yes","1","3","null","<div style=""font-size:60px;"">+</div>","null","","","","","","",""
"","","","","","audio-keyboard-response","41","2.0.0","235902","psm2bkje7mx","mus","Manatee","21","Female","no","yes","1","3","null","stimuli/sounds/phone_sound_A.wav","null","","","","","","",""
"","","","","","html-keyboard-response","42","2.0.0","236903","psm2bkje7mx","mus","Manatee","21","Female","no","yes","1","3","null","","null","","","","","","",""
"","","","","","image-keyboard-response","43","2.0.0","237428","psm2bkje7mx","mus","Manatee","21","Female","no","yes","1","3","524","stimuli/pictures/bird_song_2.jpg","0","0","","true","no","sound","stimuli/sounds/phone_sound_A.wav",""
"","","","","","audio-keyboard-response","44","2.0.0","238431","psm2bkje7mx","mus","Manatee","21","Female","no","yes","1","3","null","stimuli/sounds/bleep.wav","null","","","","","","",""
"","","","","","html-keyboard-response","45","2.0.0","242406","psm2bkje7mx","mus","Manatee","21","Female","no","yes","1","3","3874","<div style=""font-size:30px;"">Press space to start the trial</div>"," ","","","","","","",""
"","","","","","html-keyboard-response","46","2.0.0","242658","psm2bkje7mx","mus","Manatee","21","Female","no","yes","1","3","null","<div style=""font-size:60px;"">+</div>","null","","","","","","",""
"","","","","","audio-keyboard-response","47","2.0.0","243257","psm2bkje7mx","mus","Manatee","21","Female","no","yes","1","3","null","stimuli/sounds/drum_label_B.wav","null","","","","","","",""
"","","","","","html-keyboard-response","48","2.0.0","244259","psm2bkje7mx","mus","Manatee","21","Female","no","yes","1","3","null","","null","","","","","","",""
"","","","","","image-keyboard-response","49","2.0.0","244843","psm2bkje7mx","mus","Manatee","21","Female","no","yes","1","3","582","stimuli/pictures/piano_grand_1.jpg","0","0","","true","no","sound","stimuli/sounds/drum_label_B.wav",""
"","","","","","audio-keyboard-response","50","2.0.0","245845","psm2bkje7mx","mus","Manatee","21","Female","no","yes","1","3","null","stimuli/sounds/bleep.wav","null","","","","","","",""
"","","","","","html-keyboard-response","51","2.0.0","287663","psm2bkje7mx","mus","Manatee","21","Female","no","yes","1","3","41716","<div style=""font-size:30px;"">Press space to start the trial</div>"," ","","","","","","",""
"","","","","","html-keyboard-response","52","2.0.0","287915","psm2bkje7mx","mus","Manatee","21","Female","no","yes","1","3","null","<div style=""font-size:60px;"">+</div>","null","","","","","","",""
"","","","","","audio-keyboard-response","53","2.0.0","288548","psm2bkje7mx","mus","Manatee","21","Female","no","yes","1","3","null","stimuli/sounds/flute_sound_A.wav","null","","","","","","",""
"","","","","","html-keyboard-response","54","2.0.0","289551","psm2bkje7mx","mus","Manatee","21","Female","no","yes","1","3","null","","null","","","","","","",""
"","","","","","image-keyboard-response","55","2.0.0","290154","psm2bkje7mx","mus","Manatee","21","Female","no","yes","1","3","602","stimuli/pictures/flute_wooden_1.jpg","1","1","","true","no","sound","stimuli/sounds/flute_sound_A.wav",""
"","","","","","audio-keyboard-response","56","2.0.0","291156","psm2bkje7mx","mus","Manatee","21","Female","no","yes","1","3","null","stimuli/sounds/bleep.wav","null","","","","","","",""
"","","","","","html-keyboard-response","57","2.0.0","291629","psm2bkje7mx","mus","Manatee","21","Female","no","yes","1","3","371","<div style=""font-size:30px;"">Press space to start the trial</div>"," ","","","","","","",""
"","","","","","html-keyboard-response","58","2.0.0","291881","psm2bkje7mx","mus","Manatee","21","Female","no","yes","1","3","null","<div style=""font-size:60px;"">+</div>","null","","","","","","",""
"","","","","","audio-keyboard-response","59","2.0.0","292484","psm2bkje7mx","mus","Manatee","21","Female","no","yes","1","3","null","stimuli/sounds/flute_label_A.wav","null","","","","","","",""
"","","","","","html-keyboard-response","60","2.0.0","293486","psm2bkje7mx","mus","Manatee","21","Female","no","yes","1","3","null","","null","","","","","","",""
"","","","","","image-keyboard-response","61","2.0.0","294101","psm2bkje7mx","mus","Manatee","21","Female","no","yes","1","3","613","stimuli/pictures/flute_metal_1.jpg","0","1","","false","yes","sound","stimuli/sounds/flute_label_A.wav",""
"","","","","","audio-keyboard-response","62","2.0.0","295103","psm2bkje7mx","mus","Manatee","21","Female","no","yes","1","3","null","stimuli/sounds/buzz.wav","null","","","","","","",""
"","","","","","html-keyboard-response","63","2.0.0","296110","psm2bkje7mx","mus","Manatee","21","Female","no","yes","1","3","905","<div style=""font-size:30px;"">Press space to start the trial</div>"," ","","","","","","",""
"","","","","","html-keyboard-response","64","2.0.0","296362","psm2bkje7mx","mus","Manatee","21","Female","no","yes","1","3","null","<div style=""font-size:60px;"">+</div>","null","","","","","","",""
"","","","","","audio-keyboard-response","65","2.0.0","296991","psm2bkje7mx","mus","Manatee","21","Female","no","yes","1","3","null","stimuli/sounds/piano_label_A.wav","null","","","","","","",""
"","","","","","html-keyboard-response","66","2.0.0","297993","psm2bkje7mx","mus","Manatee","21","Female","no","yes","1","3","null","","null","","","","","","",""
"","","","","","image-keyboard-response","67","2.0.0","298474","psm2bkje7mx","mus","Manatee","21","Female","no","yes","1","3","480","stimuli/pictures/piano_electric_2.jpg","1","1","","true","yes","sound","stimuli/sounds/piano_label_A.wav",""
"","","","","","audio-keyboard-response","68","2.0.0","299477","psm2bkje7mx","mus","Manatee","21","Female","no","yes","1","3","null","stimuli/sounds/bleep.wav","null","","","","","","",""
"","","","","","html-keyboard-response","69","2.0.0","303892","psm2bkje7mx","mus","Manatee","21","Female","no","yes","1","3","4313","<div style=""font-size:30px;"">Press space to start the trial</div>"," ","","","","","","",""
"","","","","","html-keyboard-response","70","2.0.0","304143","psm2bkje7mx","mus","Manatee","21","Female","no","yes","1","3","null","<div style=""font-size:60px;"">+</div>","null","","","","","","",""
"","","","","","audio-keyboard-response","71","2.0.0","304751","psm2bkje7mx","mus","Manatee","21","Female","no","yes","1","3","null","stimuli/sounds/flute_label_B.wav","null","","","","","","",""
"","","","","","html-keyboard-response","72","2.0.0","305753","psm2bkje7mx","mus","Manatee","21","Female","no","yes","1","3","null","","null","","","","","","",""
"","","","","","image-keyboard-response","73","2.0.0","306212","psm2bkje7mx","mus","Manatee","21","Female","no","yes","1","3","458","stimuli/pictures/flute_metal_2.jpg","1","1","","true","yes","sound","stimuli/sounds/flute_label_B.wav",""
"","","","","","audio-keyboard-response","74","2.0.0","307214","psm2bkje7mx","mus","Manatee","21","Female","no","yes","1","3","null","stimuli/sounds/bleep.wav","null","","","","","","",""
"","","","","","html-keyboard-response","75","2.0.0","560746","psm2bkje7mx","mus","Manatee","21","Female","no","yes","1","3","253430","<div style=""font-size:30px;"">Press space to start the trial</div>"," ","","","","","","",""
"","","","","","html-keyboard-response","76","2.0.0","560999","psm2bkje7mx","mus","Manatee","21","Female","no","yes","1","3","null","<div style=""font-size:60px;"">+</div>","null","","","","","","",""
"","","","","","audio-keyboard-response","77","2.0.0","561633","psm2bkje7mx","mus","Manatee","21","Female","no","yes","1","3","null","stimuli/sounds/bird_sound_A.wav","null","","","","","","",""
"","","","","","html-keyboard-response","78","2.0.0","562635","psm2bkje7mx","mus","Manatee","21","Female","no","yes","1","3","null","","null","","","","","","",""
"","","","","","image-keyboard-response","79","2.0.0","563026","psm2bkje7mx","mus","Manatee","21","Female","no","yes","1","3","389","stimuli/pictures/bird_song_2.jpg","1","1","","true","no","sound","stimuli/sounds/bird_sound_A.wav",""
"","","","","","audio-keyboard-response","80","2.0.0","564029","psm2bkje7mx","mus","Manatee","21","Female","no","yes","1","3","null","stimuli/sounds/bleep.wav","null","","","","","","",""
"","","","","","html-keyboard-response","81","2.0.0","586523","psm2bkje7mx","mus","Manatee","21","Female","no","yes","1","3","22393","<div style=""font-size:30px;"">Press space to start the trial</div>"," ","","","","","","",""
"","","","","","html-keyboard-response","82","2.0.0","586776","psm2bkje7mx","mus","Manatee","21","Female","no","yes","1","3","null","<div style=""font-size:60px;"">+</div>","null","","","","","","",""
"","","","","","audio-keyboard-response","83","2.0.0","587377","psm2bkje7mx","mus","Manatee","21","Female","no","yes","1","3","null","stimuli/sounds/drum_label_A.wav","null","","","","","","",""
"","","","","","html-keyboard-response","84","2.0.0","588379","psm2bkje7mx","mus","Manatee","21","Female","no","yes","1","3","null","","null","","","","","","",""
"","","","","","image-keyboard-response","85","2.0.0","588832","psm2bkje7mx","mus","Manatee","21","Female","no","yes","1","3","452","stimuli/pictures/bird_song_2.jpg","0","0","","true","no","sound","stimuli/sounds/drum_label_A.wav",""
"","","","","","audio-keyboard-response","86","2.0.0","589835","psm2bkje7mx","mus","Manatee","21","Female","no","yes","1","3","null","stimuli/sounds/bleep.wav","null","","","","","","",""
"","","","","","html-keyboard-response","87","2.0.0","590668","psm2bkje7mx","mus","Manatee","21","Female","no","yes","1","3","731","<div style=""font-size:30px;"">Press space to start the trial</div>"," ","","","","","","",""
"","","","","","html-keyboard-response","88","2.0.0","590920","psm2bkje7mx","mus","Manatee","21","Female","no","yes","1","3","null","<div style=""font-size:60px;"">+</div>","null","","","","","","",""
"","","","","","audio-keyboard-response","89","2.0.0","591521","psm2bkje7mx","mus","Manatee","21","Female","no","yes","1","3","null","stimuli/sounds/phone_label_B.wav","null","","","","","","",""
"","","","","","html-keyboard-response","90","2.0.0","592524","psm2bkje7mx","mus","Manatee","21","Female","no","yes","1","3","null","","null","","","","","","",""
"","","","","","image-keyboard-response","91","2.0.0","593158","psm2bkje7mx","mus","Manatee","21","Female","no","yes","1","3","633","stimuli/pictures/flute_wooden_1.jpg","0","0","","true","no","sound","stimuli/sounds/phone_label_B.wav",""
"","","","","","audio-keyboard-response","92","2.0.0","594161","psm2bkje7mx","mus","Manatee","21","Female","no","yes","1","3","null","stimuli/sounds/bleep.wav","null","","","","","","",""
"","","","","","html-keyboard-response","93","2.0.0","595967","psm2bkje7mx","mus","Manatee","21","Female","no","yes","1","3","1704","<div style=""font-size:30px;"">Press space to start the trial</div>"," ","","","","","","",""
"","","","","","html-keyboard-response","94","2.0.0","596220","psm2bkje7mx","mus","Manatee","21","Female","no","yes","1","3","null","<div style=""font-size:60px;"">+</div>","null","","","","","","",""
"","","","","","audio-keyboard-response","95","2.0.0","596828","psm2bkje7mx","mus","Manatee","21","Female","no","yes","1","3","null","stimuli/sounds/piano_sound_B.wav","null","","","","","","",""
"","","","","","html-keyboard-response","96","2.0.0","597830","psm2bkje7mx","mus","Manatee","21","Female","no","yes","1","3","null","","null","","","","","","",""
"","","","","","image-keyboard-response","97","2.0.0","598446","psm2bkje7mx","mus","Manatee","21","Female","no","yes","1","3","614","stimuli/pictures/piano_grand_1.jpg","0","1","","false","no","sound","stimuli/sounds/piano_sound_B.wav",""
"","","","","","audio-keyboard-response","98","2.0.0","599448","psm2bkje7mx","mus","Manatee","21","Female","no","yes","1","3","null","stimuli/sounds/buzz.wav","null","","","","","","",""
"","","","","","html-keyboard-response","99","2.0.0","615356","psm2bkje7mx","mus","Manatee","21","Female","no","yes","1","3","15806","<div style=""font-size:30px;"">Press space to start the trial</div>"," ","","","","","","",""
"","","","","","html-keyboard-response","100","2.0.0","615608","psm2bkje7mx","mus","Manatee","21","Female","no","yes","1","3","null","<div style=""font-size:60px;"">+</div>","null","","","","","","",""
"","","","","","audio-keyboard-response","101","2.0.0","616215","psm2bkje7mx","mus","Manatee","21","Female","no","yes","1","3","null","stimuli/sounds/flute_label_B.wav","null","","","","","","",""
"","","","","","html-keyboard-response","102","2.0.0","617217","psm2bkje7mx","mus","Manatee","21","Female","no","yes","1","3","null","","null","","","","","","",""
"","","","","","image-keyboard-response","103","2.0.0","617604","psm2bkje7mx","mus","Manatee","21","Female","no","yes","1","3","386","stimuli/pictures/flute_metal_1.jpg","1","1","","true","yes","sound","stimuli/sounds/flute_label_B.wav",""
"","","","","","audio-keyboard-response","104","2.0.0","618606","psm2bkje7mx","mus","Manatee","21","Female","no","yes","1","3","null","stimuli/sounds/bleep.wav","null","","","","","","",""
"","","","","","html-keyboard-response","105","2.0.0","621244","psm2bkje7mx","mus","Manatee","21","Female","no","yes","1","3","2537","<div style=""font-size:30px;"">Press space to start the trial</div>"," ","","","","","","",""
"","","","","","html-keyboard-response","106","2.0.0","621497","psm2bkje7mx","mus","Manatee","21","Female","no","yes","1","3","null","<div style=""font-size:60px;"">+</div>","null","","","","","","",""
"","","","","","audio-keyboard-response","107","2.0.0","622097","psm2bkje7mx","mus","Manatee","21","Female","no","yes","1","3","null","stimuli/sounds/phone_sound_A.wav","null","","","","","","",""
"","","","","","html-keyboard-response","108","2.0.0","623099","psm2bkje7mx","mus","Manatee","21","Female","no","yes","1","3","null","","null","","","","","","",""
"","","","","","image-keyboard-response","109","2.0.0","623607","psm2bkje7mx","mus","Manatee","21","Female","no","yes","1","3","503","stimuli/pictures/phone_rotary_2.jpg","1","1","","true","no","sound","stimuli/sounds/phone_sound_A.wav",""
"","","","","","audio-keyboard-response","110","2.0.0","624609","psm2bkje7mx","mus","Manatee","21","Female","no","yes","1","3","null","stimuli/sounds/bleep.wav","null","","","","","","",""
"","","","","","html-keyboard-response","111","2.0.0","626994","psm2bkje7mx","mus","Manatee","21","Female","no","yes","1","3","2282","<div style=""font-size:30px;"">Press space to start the trial</div>"," ","","","","","","",""
"","","","","","html-keyboard-response","112","2.0.0","627246","psm2bkje7mx","mus","Manatee","21","Female","no","yes","1","3","null","<div style=""font-size:60px;"">+</div>","null","","","","","","",""
"","","","","","audio-keyboard-response","113","2.0.0","627873","psm2bkje7mx","mus","Manatee","21","Female","no","yes","1","3","null","stimuli/sounds/piano_label_A.wav","null","","","","","","",""
"","","","","","html-keyboard-response","114","2.0.0","628875","psm2bkje7mx","mus","Manatee","21","Female","no","yes","1","3","null","","null","","","","","","",""
"","","","","","image-keyboard-response","115","2.0.0","629375","psm2bkje7mx","mus","Manatee","21","Female","no","yes","1","3","498","stimuli/pictures/phone_rotary_1.jpg","0","0","","true","no","sound","stimuli/sounds/piano_label_A.wav",""
"","","","","","audio-keyboard-response","116","2.0.0","630378","psm2bkje7mx","mus","Manatee","21","Female","no","yes","1","3","null","stimuli/sounds/bleep.wav","null","","","","","","",""
"","","","","","html-keyboard-response","117","2.0.0","640510","psm2bkje7mx","mus","Manatee","21","Female","no","yes","1","3","10031","<div style=""font-size:30px;"">Press space to start the trial</div>"," ","","","","","","",""
"","","","","","html-keyboard-response","118","2.0.0","640763","psm2bkje7mx","mus","Manatee","21","Female","no","yes","1","3","null","<div style=""font-size:60px;"">+</div>","null","","","","","","",""
"","","","","","audio-keyboard-response","119","2.0.0","641366","psm2bkje7mx","mus","Manatee","21","Female","no","yes","1","3","null","stimuli/sounds/bird_sound_A.wav","null","","","","","","",""
"","","","","","html-keyboard-response","120","2.0.0","642368","psm2bkje7mx","mus","Manatee","21","Female","no","yes","1","3","null","","null","","","","","","",""
"","","","","","image-keyboard-response","121","2.0.0","643084","psm2bkje7mx","mus","Manatee","21","Female","no","yes","1","3","714","stimuli/pictures/piano_grand_2.jpg","0","0","","true","no","sound","stimuli/sounds/bird_sound_A.wav",""
"","","","","","audio-keyboard-response","122","2.0.0","644087","psm2bkje7mx","mus","Manatee","21","Female","no","yes","1","3","null","stimuli/sounds/bleep.wav","null","","","","","","",""
"","","","","","html-keyboard-response","123","2.0.0","645405","psm2bkje7mx","mus","Manatee","21","Female","no","yes","1","3","1216","<div style=""font-size:30px;"">Press space to start the trial</div>"," ","","","","","","",""
"","","","","","html-keyboard-response","124","2.0.0","645658","psm2bkje7mx","mus","Manatee","21","Female","no","yes","1","3","null","<div style=""font-size:60px;"">+</div>","null","","","","","","",""
"","","","","","audio-keyboard-response","125","2.0.0","646262","psm2bkje7mx","mus","Manatee","21","Female","no","yes","1","3","null","stimuli/sounds/piano_sound_A.wav","null","","","","","","",""
"","","","","","html-keyboard-response","126","2.0.0","647264","psm2bkje7mx","mus","Manatee","21","Female","no","yes","1","3","null","","null","","","","","","",""
"","","","","","image-keyboard-response","127","2.0.0","647754","psm2bkje7mx","mus","Manatee","21","Female","no","yes","1","3","489","stimuli/pictures/piano_electric_1.jpg","1","1","","true","no","sound","stimuli/sounds/piano_sound_A.wav",""
"","","","","","audio-keyboard-response","128","2.0.0","648757","psm2bkje7mx","mus","Manatee","21","Female","no","yes","1","3","null","stimuli/sounds/bleep.wav","null","","","","","","",""
"","","","","","html-keyboard-response","129","2.0.0","650256","psm2bkje7mx","mus","Manatee","21","Female","no","yes","1","3","1398","<div style=""font-size:30px;"">Press space to start the trial</div>"," ","","","","","","",""
"","","","","","html-keyboard-response","130","2.0.0","650509","psm2bkje7mx","mus","Manatee","21","Female","no","yes","1","3","null","<div style=""font-size:60px;"">+</div>","null","","","","","","",""
"","","","","","audio-keyboard-response","131","2.0.0","651116","psm2bkje7mx","mus","Manatee","21","Female","no","yes","1","3","null","stimuli/sounds/flute_label_B.wav","null","","","","","","",""
"","","","","","html-keyboard-response","132","2.0.0","652118","psm2bkje7mx","mus","Manatee","21","Female","no","yes","1","3","null","","null","","","","","","",""
"","","","","","image-keyboard-response","133","2.0.0","652595","psm2bkje7mx","mus","Manatee","21","Female","no","yes","1","3","476","stimuli/pictures/flute_wooden_2.jpg","1","1","","true","yes","sound","stimuli/sounds/flute_label_B.wav",""
"","","","","","audio-keyboard-response","134","2.0.0","653598","psm2bkje7mx","mus","Manatee","21","Female","no","yes","1","3","null","stimuli/sounds/bleep.wav","null","","","","","","",""
"","","","","","html-keyboard-response","135","2.0.0","654212","psm2bkje7mx","mus","Manatee","21","Female","no","yes","1","3","512","<div style=""font-size:30px;"">Press space to start the trial</div>"," ","","","","","","",""
"","","","","","html-keyboard-response","136","2.0.0","654464","psm2bkje7mx","mus","Manatee","21","Female","no","yes","1","3","null","<div style=""font-size:60px;"">+</div>","null","","","","","","",""
"","","","","","audio-keyboard-response","137","2.0.0","655068","psm2bkje7mx","mus","Manatee","21","Female","no","yes","1","3","null","stimuli/sounds/piano_label_B.wav","null","","","","","","",""
"","","","","","html-keyboard-response","138","2.0.0","656070","psm2bkje7mx","mus","Manatee","21","Female","no","yes","1","3","null","","null","","","","","","",""
"","","","","","image-keyboard-response","139","2.0.0","656495","psm2bkje7mx","mus","Manatee","21","Female","no","yes","1","3","424","stimuli/pictures/bird_song_2.jpg","0","0","","true","no","sound","stimuli/sounds/piano_label_B.wav",""
"","","","","","audio-keyboard-response","140","2.0.0","657497","psm2bkje7mx","mus","Manatee","21","Female","no","yes","1","3","null","stimuli/sounds/bleep.wav","null","","","","","","",""
"","","","","","html-keyboard-response","141","2.0.0","658555","psm2bkje7mx","mus","Manatee","21","Female","no","yes","1","3","956","<div style=""font-size:30px;"">Press space to start the trial</div>"," ","","","","","","",""
"","","","","","html-keyboard-response","142","2.0.0","658808","psm2bkje7mx","mus","Manatee","21","Female","no","yes","1","3","null","<div style=""font-size:60px;"">+</div>","null","","","","","","",""
"","","","","","audio-keyboard-response","143","2.0.0","659409","psm2bkje7mx","mus","Manatee","21","Female","no","yes","1","3","null","stimuli/sounds/phone_label_B.wav","null","","","","","","",""
"","","","","","html-keyboard-response","144","2.0.0","660411","psm2bkje7mx","mus","Manatee","21","Female","no","yes","1","3","null","","null","","","","","","",""
"","","","","","image-keyboard-response","145","2.0.0","661012","psm2bkje7mx","mus","Manatee","21","Female","no","yes","1","3","599","stimuli/pictures/flute_metal_1.jpg","0","0","","true","no","sound","stimuli/sounds/phone_label_B.wav",""
"","","","","","audio-keyboard-response","146","2.0.0","662015","psm2bkje7mx","mus","Manatee","21","Female","no","yes","1","3","null","stimuli/sounds/bleep.wav","null","","","","","","",""
"","","","","","html-keyboard-response","147","2.0.0","673694","psm2bkje7mx","mus","Manatee","21","Female","no","yes","1","3","11578","<p>You have completed a block. Press R when you are ready to continue</p>","r","","","","","","",""
"","","","","","html-keyboard-response","148","2.0.0","699259","psm2bkje7mx","mus","Manatee","21","Female","no","yes","1","3","25564","<div style=""font-size:30px;"">Press space to start the trial</div>"," ","","","","","","",""
"","","","","","html-keyboard-response","149","2.0.0","699510","psm2bkje7mx","mus","Manatee","21","Female","no","yes","1","3","null","<div style=""font-size:60px;"">+</div>","null","","","","","","",""
"","","","","","audio-keyboard-response","150","2.0.0","700140","psm2bkje7mx","mus","Manatee","21","Female","no","yes","1","3","null","stimuli/sounds/bird_sound_A.wav","null","","","","","","",""
"","","","","","html-keyboard-response","151","2.0.0","701143","psm2bkje7mx","mus","Manatee","21","Female","no","yes","1","3","null","","null","","","","","","",""
"","","","","","image-keyboard-response","152","2.0.0","701537","psm2bkje7mx","mus","Manatee","21","Female","no","yes","1","3","392","stimuli/pictures/bird_hawk_1.jpg","1","1","","true","yes","sound","stimuli/sounds/bird_sound_A.wav",""
"","","","","","audio-keyboard-response","153","2.0.0","702539","psm2bkje7mx","mus","Manatee","21","Female","no","yes","1","3","null","stimuli/sounds/bleep.wav","null","","","","","","",""
"","","","","","html-keyboard-response","154","2.0.0","703178","psm2bkje7mx","mus","Manatee","21","Female","no","yes","1","3","537","<div style=""font-size:30px;"">Press space to start the trial</div>"," ","","","","","","",""
"","","","","","html-keyboard-response","155","2.0.0","703431","psm2bkje7mx","mus","Manatee","21","Female","no","yes","1","3","null","<div style=""font-size:60px;"">+</div>","null","","","","","","",""
"","","","","","audio-keyboard-response","156","2.0.0","704033","psm2bkje7mx","mus","Manatee","21","Female","no","yes","1","3","null","stimuli/sounds/flute_label_A.wav","null","","","","","","",""
"","","","","","html-keyboard-response","157","2.0.0","705035","psm2bkje7mx","mus","Manatee","21","Female","no","yes","1","3","null","","null","","","","","","",""
"","","","","","image-keyboard-response","158","2.0.0","705434","psm2bkje7mx","mus","Manatee","21","Female","no","yes","1","3","397","stimuli/pictures/flute_wooden_2.jpg","1","1","","true","yes","sound","stimuli/sounds/flute_label_A.wav",""
"","","","","","audio-keyboard-response","159","2.0.0","706436","psm2bkje7mx","mus","Manatee","21","Female","no","yes","1","3","null","stimuli/sounds/bleep.wav","null","","","","","","",""
"","","","","","html-keyboard-response","160","2.0.0","707717","psm2bkje7mx","mus","Manatee","21","Female","no","yes","1","3","1179","<div style=""font-size:30px;"">Press space to start the trial</div>"," ","","","","","","",""
"","","","","","html-keyboard-response","161","2.0.0","707969","psm2bkje7mx","mus","Manatee","21","Female","no","yes","1","3","null","<div style=""font-size:60px;"">+</div>","null","","","","","","",""
"","","","","","audio-keyboard-response","162","2.0.0","708572","psm2bkje7mx","mus","Manatee","21","Female","no","yes","1","3","null","stimuli/sounds/bird_sound_B.wav","null","","","","","","",""
"","","","","","html-keyboard-response","163","2.0.0","709574","psm2bkje7mx","mus","Manatee","21","Female","no","yes","1","3","null","","null","","","","","","",""
"","","","","","image-keyboard-response","164","2.0.0","710035","psm2bkje7mx","mus","Manatee","21","Female","no","yes","1","3","459","stimuli/pictures/drum_kit_2.jpg","0","0","","true","no","sound","stimuli/sounds/bird_sound_B.wav",""
"","","","","","audio-keyboard-response","165","2.0.0","711038","psm2bkje7mx","mus","Manatee","21","Female","no","yes","1","3","null","stimuli/sounds/bleep.wav","null","","","","","","",""
"","","","","","html-keyboard-response","166","2.0.0","717226","psm2bkje7mx","mus","Manatee","21","Female","no","yes","1","3","6086","<div style=""font-size:30px;"">Press space to start the trial</div>"," ","","","","","","",""
"","","","","","html-keyboard-response","167","2.0.0","717478","psm2bkje7mx","mus","Manatee","21","Female","no","yes","1","3","null","<div style=""font-size:60px;"">+</div>","null","","","","","","",""
"","","","","","audio-keyboard-response","168","2.0.0","718076","psm2bkje7mx","mus","Manatee","21","Female","no","yes","1","3","null","stimuli/sounds/drum_label_B.wav","null","","","","","","",""
"","","","","","html-keyboard-response","169","2.0.0","719078","psm2bkje7mx","mus","Manatee","21","Female","no","yes","1","3","null","","null","","","","","","",""
"","","","","","image-keyboard-response","170","2.0.0","719614","psm2bkje7mx","mus","Manatee","21","Female","no","yes","1","3","535","stimuli/pictures/drum_kit_1.jpg","1","1","","true","yes","sound","stimuli/sounds/drum_label_B.wav",""
"","","","","","audio-keyboard-response","171","2.0.0","720617","psm2bkje7mx","mus","Manatee","21","Female","no","yes","1","3","null","stimuli/sounds/bleep.wav","null","","","","","","",""
"","","","","","html-keyboard-response","172","2.0.0","722031","psm2bkje7mx","mus","Manatee","21","Female","no","yes","1","3","1312","<div style=""font-size:30px;"">Press space to start the trial</div>"," ","","","","","","",""
"","","","","","html-keyboard-response","173","2.0.0","722284","psm2bkje7mx","mus","Manatee","21","Female","no","yes","1","3","null","<div style=""font-size:60px;"">+</div>","null","","","","","","",""
"","","","","","audio-keyboard-response","174","2.0.0","722887","psm2bkje7mx","mus","Manatee","21","Female","no","yes","1","3","null","stimuli/sounds/bird_sound_B.wav","null","","","","","","",""
"","","","","","html-keyboard-response","175","2.0.0","723889","psm2bkje7mx","mus","Manatee","21","Female","no","yes","1","3","null","","null","","","","","","",""
"","","","","","image-keyboard-response","176","2.0.0","724603","psm2bkje7mx","mus","Manatee","21","Female","no","yes","1","3","712","stimuli/pictures/drum_bongo_2.jpg","1","0","","false","no","sound","stimuli/sounds/bird_sound_B.wav",""
"","","","","","audio-keyboard-response","177","2.0.0","725605","psm2bkje7mx","mus","Manatee","21","Female","no","yes","1","3","null","stimuli/sounds/buzz.wav","null","","","","","","",""
"","","","","","html-keyboard-response","178","2.0.0","727450","psm2bkje7mx","mus","Manatee","21","Female","no","yes","1","3","1743","<div style=""font-size:30px;"">Press space to start the trial</div>"," ","","","","","","",""
"","","","","","html-keyboard-response","179","2.0.0","727701","psm2bkje7mx","mus","Manatee","21","Female","no","yes","1","3","null","<div style=""font-size:60px;"">+</div>","null","","","","","","",""
"","","","","","audio-keyboard-response","180","2.0.0","728300","psm2bkje7mx","mus","Manatee","21","Female","no","yes","1","3","null","stimuli/sounds/phone_sound_A.wav","null","","","","","","",""
"","","","","","html-keyboard-response","181","2.0.0","729303","psm2bkje7mx","mus","Manatee","21","Female","no","yes","1","3","null","","null","","","","","","",""
"","","","","","image-keyboard-response","182","2.0.0","729842","psm2bkje7mx","mus","Manatee","21","Female","no","yes","1","3","538","stimuli/pictures/bird_song_1.jpg","0","0","","true","no","sound","stimuli/sounds/phone_sound_A.wav",""
"","","","","","audio-keyboard-response","183","2.0.0","730844","psm2bkje7mx","mus","Manatee","21","Female","no","yes","1","3","null","stimuli/sounds/bleep.wav","null","","","","","","",""
"","","","","","html-keyboard-response","184","2.0.0","731463","psm2bkje7mx","mus","Manatee","21","Female","no","yes","1","3","517","<div style=""font-size:30px;"">Press space to start the trial</div>"," ","","","","","","",""
"","","","","","html-keyboard-response","185","2.0.0","731715","psm2bkje7mx","mus","Manatee","21","Female","no","yes","1","3","null","<div style=""font-size:60px;"">+</div>","null","","","","","","",""
"","","","","","audio-keyboard-response","186","2.0.0","732316","psm2bkje7mx","mus","Manatee","21","Female","no","yes","1","3","null","stimuli/sounds/flute_sound_A.wav","null","","","","","","",""
"","","","","","html-keyboard-response","187","2.0.0","733318","psm2bkje7mx","mus","Manatee","21","Female","no","yes","1","3","null","","null","","","","","","",""
"","","","","","image-keyboard-response","188","2.0.0","733890","psm2bkje7mx","mus","Manatee","21","Female","no","yes","1","3","570","stimuli/pictures/phone_rotary_1.jpg","0","0","","true","no","sound","stimuli/sounds/flute_sound_A.wav",""
"","","","","","audio-keyboard-response","189","2.0.0","734892","psm2bkje7mx","mus","Manatee","21","Female","no","yes","1","3","null","stimuli/sounds/bleep.wav","null","","","","","","",""
"","","","","","html-keyboard-response","190","2.0.0","741400","psm2bkje7mx","mus","Manatee","21","Female","no","yes","1","3","6406","<div style=""font-size:30px;"">Press space to start the trial</div>"," ","","","","","","",""
"","","","","","html-keyboard-response","191","2.0.0","741652","psm2bkje7mx","mus","Manatee","21","Female","no","yes","1","3","null","<div style=""font-size:60px;"">+</div>","null","","","","","","",""
"","","","","","audio-keyboard-response","192","2.0.0","742252","psm2bkje7mx","mus","Manatee","21","Female","no","yes","1","3","null","stimuli/sounds/phone_label_A.wav","null","","","","","","",""
"","","","","","html-keyboard-response","193","2.0.0","743255","psm2bkje7mx","mus","Manatee","21","Female","no","yes","1","3","null","","null","","","","","","",""
"","","","","","image-keyboard-response","194","2.0.0","743894","psm2bkje7mx","mus","Manatee","21","Female","no","yes","1","3","638","stimuli/pictures/drum_kit_1.jpg","0","0","","true","no","sound","stimuli/sounds/phone_label_A.wav",""
"","","","","","audio-keyboard-response","195","2.0.0","744896","psm2bkje7mx","mus","Manatee","21","Female","no","yes","1","3","null","stimuli/sounds/bleep.wav","null","","","","","","",""
"","","","","","html-keyboard-response","196","2.0.0","751100","psm2bkje7mx","mus","Manatee","21","Female","no","yes","1","3","6102","<div style=""font-size:30px;"">Press space to start the trial</div>"," ","","","","","","",""
"","","","","","html-keyboard-response","197","2.0.0","751352","psm2bkje7mx","mus","Manatee","21","Female","no","yes","1","3","null","<div style=""font-size:60px;"">+</div>","null","","","","","","",""
"","","","","","audio-keyboard-response","198","2.0.0","751953","psm2bkje7mx","mus","Manatee","21","Female","no","yes","1","3","null","stimuli/sounds/bird_label_A.wav","null","","","","","","",""
"","","","","","html-keyboard-response","199","2.0.0","752955","psm2bkje7mx","mus","Manatee","21","Female","no","yes","1","3","null","","null","","","","","","",""
"","","","","","image-keyboard-response","200","2.0.0","753697","psm2bkje7mx","mus","Manatee","21","Female","no","yes","1","3","740","stimuli/pictures/bird_song_2.jpg","1","1","","true","yes","sound","stimuli/sounds/bird_label_A.wav",""
"","","","","","audio-keyboard-response","201","2.0.0","754700","psm2bkje7mx","mus","Manatee","21","Female","no","yes","1","3","null","stimuli/sounds/bleep.wav","null","","","","","","",""
"","","","","","html-keyboard-response","202","2.0.0","755684","psm2bkje7mx","mus","Manatee","21","Female","no","yes","1","3","883","<div style=""font-size:30px;"">Press space to start the trial</div>"," ","","","","","","",""
"","","","","","html-keyboard-response","203","2.0.0","755936","psm2bkje7mx","mus","Manatee","21","Female","no","yes","1","3","null","<div style=""font-size:60px;"">+</div>","null","","","","","","",""
"","","","","","audio-keyboard-response","204","2.0.0","756535","psm2bkje7mx","mus","Manatee","21","Female","no","yes","1","3","null","stimuli/sounds/phone_sound_B.wav","null","","","","","","",""
"","","","","","html-keyboard-response","205","2.0.0","757536","psm2bkje7mx","mus","Manatee","21","Female","no","yes","1","3","null","","null","","","","","","",""
"","","","","","image-keyboard-response","206","2.0.0","758126","psm2bkje7mx","mus","Manatee","21","Female","no","yes","1","3","588","stimuli/pictures/piano_electric_1.jpg","0","0","","true","no","sound","stimuli/sounds/phone_sound_B.wav",""
"","","","","","audio-keyboard-response","207","2.0.0","759129","psm2bkje7mx","mus","Manatee","21","Female","no","yes","1","3","null","stimuli/sounds/bleep.wav","null","","","","","","",""
"","","","","","html-keyboard-response","208","2.0.0","770421","psm2bkje7mx","mus","Manatee","21","Female","no","yes","1","3","11190","<div style=""font-size:30px;"">Press space to start the trial</div>"," ","","","","","","",""
"","","","","","html-keyboard-response","209","2.0.0","770673","psm2bkje7mx","mus","Manatee","21","Female","no","yes","1","3","null","<div style=""font-size:60px;"">+</div>","null","","","","","","",""
"","","","","","audio-keyboard-response","210","2.0.0","771276","psm2bkje7mx","mus","Manatee","21","Female","no","yes","1","3","null","stimuli/sounds/phone_sound_A.wav","null","","","","","","",""
"","","","","","html-keyboard-response","211","2.0.0","772278","psm2bkje7mx","mus","Manatee","21","Female","no","yes","1","3","null","","null","","","","","","",""
"","","","","","image-keyboard-response","212","2.0.0","772774","psm2bkje7mx","mus","Manatee","21","Female","no","yes","1","3","494","stimuli/pictures/phone_cell_1.jpg","1","1","","true","yes","sound","stimuli/sounds/phone_sound_A.wav",""
"","","","","","audio-keyboard-response","213","2.0.0","773777","psm2bkje7mx","mus","Manatee","21","Female","no","yes","1","3","null","stimuli/sounds/bleep.wav","null","","","","","","",""
"","","","","","html-keyboard-response","214","2.0.0","779687","psm2bkje7mx","mus","Manatee","21","Female","no","yes","1","3","5809","<div style=""font-size:30px;"">Press space to start the trial</div>"," ","","","","","","",""
"","","","","","html-keyboard-response","215","2.0.0","779940","psm2bkje7mx","mus","Manatee","21","Female","no","yes","1","3","null","<div style=""font-size:60px;"">+</div>","null","","","","","","",""
"","","","","","audio-keyboard-response","216","2.0.0","780540","psm2bkje7mx","mus","Manatee","21","Female","no","yes","1","3","null","stimuli/sounds/drum_sound_A.wav","null","","","","","","",""
"","","","","","html-keyboard-response","217","2.0.0","781543","psm2bkje7mx","mus","Manatee","21","Female","no","yes","1","3","null","","null","","","","","","",""
"","","","","","image-keyboard-response","218","2.0.0","783051","psm2bkje7mx","mus","Manatee","21","Female","no","yes","1","3","1507","stimuli/pictures/flute_metal_2.jpg","0","0","","true","no","sound","stimuli/sounds/drum_sound_A.wav",""
"","","","","","audio-keyboard-response","219","2.0.0","784054","psm2bkje7mx","mus","Manatee","21","Female","no","yes","1","3","null","stimuli/sounds/bleep.wav","null","","","","","","",""
"","","","","","html-keyboard-response","220","2.0.0","787433","psm2bkje7mx","mus","Manatee","21","Female","no","yes","1","3","3277","<div style=""font-size:30px;"">Press space to start the trial</div>"," ","","","","","","",""
"","","","","","html-keyboard-response","221","2.0.0","787686","psm2bkje7mx","mus","Manatee","21","Female","no","yes","1","3","null","<div style=""font-size:60px;"">+</div>","null","","","","","","",""
"","","","","","audio-keyboard-response","222","2.0.0","788289","psm2bkje7mx","mus","Manatee","21","Female","no","yes","1","3","null","stimuli/sounds/phone_label_A.wav","null","","","","","","",""
"","","","","","html-keyboard-response","223","2.0.0","789291","psm2bkje7mx","mus","Manatee","21","Female","no","yes","1","3","null","","null","","","","","","",""
"","","","","","image-keyboard-response","224","2.0.0","789884","psm2bkje7mx","mus","Manatee","21","Female","no","yes","1","3","591","stimuli/pictures/phone_rotary_1.jpg","1","1","","true","yes","sound","stimuli/sounds/phone_label_A.wav",""
"","","","","","audio-keyboard-response","225","2.0.0","790887","psm2bkje7mx","mus","Manatee","21","Female","no","yes","1","3","null","stimuli/sounds/bleep.wav","null","","","","","","",""
"","","","","","html-keyboard-response","226","2.0.0","792150","psm2bkje7mx","mus","Manatee","21","Female","no","yes","1","3","1161","<div style=""font-size:30px;"">Press space to start the trial</div>"," ","","","","","","",""
"","","","","","html-keyboard-response","227","2.0.0","792402","psm2bkje7mx","mus","Manatee","21","Female","no","yes","1","3","null","<div style=""font-size:60px;"">+</div>","null","","","","","","",""
"","","","","","audio-keyboard-response","228","2.0.0","793004","psm2bkje7mx","mus","Manatee","21","Female","no","yes","1","3","null","stimuli/sounds/bird_sound_B.wav","null","","","","","","",""
"","","","","","html-keyboard-response","229","2.0.0","794005","psm2bkje7mx","mus","Manatee","21","Female","no","yes","1","3","null","","null","","","","","","",""
"","","","","","image-keyboard-response","230","2.0.0","794638","psm2bkje7mx","mus","Manatee","21","Female","no","yes","1","3","631","stimuli/pictures/drum_kit_1.jpg","0","0","","true","no","sound","stimuli/sounds/bird_sound_B.wav",""
"","","","","","audio-keyboard-response","231","2.0.0","795640","psm2bkje7mx","mus","Manatee","21","Female","no","yes","1","3","null","stimuli/sounds/bleep.wav","null","","","","","","",""
"","","","","","html-keyboard-response","232","2.0.0","798000","psm2bkje7mx","mus","Manatee","21","Female","no","yes","1","3","2258","<div style=""font-size:30px;"">Press space to start the trial</div>"," ","","","","","","",""
"","","","","","html-keyboard-response","233","2.0.0","798252","psm2bkje7mx","mus","Manatee","21","Female","no","yes","1","3","null","<div style=""font-size:60px;"">+</div>","null","","","","","","",""
"","","","","","audio-keyboard-response","234","2.0.0","798854","psm2bkje7mx","mus","Manatee","21","Female","no","yes","1","3","null","stimuli/sounds/piano_label_B.wav","null","","","","","","",""
"","","","","","html-keyboard-response","235","2.0.0","799857","psm2bkje7mx","mus","Manatee","21","Female","no","yes","1","3","null","","null","","","","","","",""
"","","","","","image-keyboard-response","236","2.0.0","800337","psm2bkje7mx","mus","Manatee","21","Female","no","yes","1","3","479","stimuli/pictures/piano_electric_1.jpg","1","1","","true","yes","sound","stimuli/sounds/piano_label_B.wav",""
"","","","","","audio-keyboard-response","237","2.0.0","801340","psm2bkje7mx","mus","Manatee","21","Female","no","yes","1","3","null","stimuli/sounds/bleep.wav","null","","","","","","",""
"","","","","","html-keyboard-response","238","2.0.0","802783","psm2bkje7mx","mus","Manatee","21","Female","no","yes","1","3","1341","<div style=""font-size:30px;"">Press space to start the trial</div>"," ","","","","","","",""
"","","","","","html-keyboard-response","239","2.0.0","803035","psm2bkje7mx","mus","Manatee","21","Female","no","yes","1","3","null","<div style=""font-size:60px;"">+</div>","null","","","","","","",""
"","","","","","audio-keyboard-response","240","2.0.0","803633","psm2bkje7mx","mus","Manatee","21","Female","no","yes","1","3","null","stimuli/sounds/drum_sound_A.wav","null","","","","","","",""
"","","","","","html-keyboard-response","241","2.0.0","804636","psm2bkje7mx","mus","Manatee","21","Female","no","yes","1","3","null","","null","","","","","","",""
"","","","","","image-keyboard-response","242","2.0.0","805322","psm2bkje7mx","mus","Manatee","21","Female","no","yes","1","3","685","stimuli/pictures/flute_wooden_2.jpg","0","0","","true","no","sound","stimuli/sounds/drum_sound_A.wav",""
"","","","","","audio-keyboard-response","243","2.0.0","806325","psm2bkje7mx","mus","Manatee","21","Female","no","yes","1","3","null","stimuli/sounds/bleep.wav","null","","","","","","",""
"","","","","","html-keyboard-response","244","2.0.0","807166","psm2bkje7mx","mus","Manatee","21","Female","no","yes","1","3","741","<div style=""font-size:30px;"">Press space to start the trial</div>"," ","","","","","","",""
"","","","","","html-keyboard-response","245","2.0.0","807419","psm2bkje7mx","mus","Manatee","21","Female","no","yes","1","3","null","<div style=""font-size:60px;"">+</div>","null","","","","","","",""
"","","","","","audio-keyboard-response","246","2.0.0","808022","psm2bkje7mx","mus","Manatee","21","Female","no","yes","1","3","null","stimuli/sounds/phone_label_A.wav","null","","","","","","",""
"","","","","","html-keyboard-response","247","2.0.0","809025","psm2bkje7mx","mus","Manatee","21","Female","no","yes","1","3","null","","null","","","","","","",""
"","","","","","image-keyboard-response","248","2.0.0","809451","psm2bkje7mx","mus","Manatee","21","Female","no","yes","1","3","424","stimuli/pictures/drum_kit_2.jpg","0","0","","true","no","sound","stimuli/sounds/phone_label_A.wav",""
"","","","","","audio-keyboard-response","249","2.0.0","810453","psm2bkje7mx","mus","Manatee","21","Female","no","yes","1","3","null","stimuli/sounds/bleep.wav","null","","","","","","",""
"","","","","","html-keyboard-response","250","2.0.0","811340","psm2bkje7mx","mus","Manatee","21","Female","no","yes","1","3","784","<div style=""font-size:30px;"">Press space to start the trial</div>"," ","","","","","","",""
"","","","","","html-keyboard-response","251","2.0.0","811592","psm2bkje7mx","mus","Manatee","21","Female","no","yes","1","3","null","<div style=""font-size:60px;"">+</div>","null","","","","","","",""
"","","","","","audio-keyboard-response","252","2.0.0","812193","psm2bkje7mx","mus","Manatee","21","Female","no","yes","1","3","null","stimuli/sounds/drum_label_B.wav","null","","","","","","",""
"","","","","","html-keyboard-response","253","2.0.0","813195","psm2bkje7mx","mus","Manatee","21","Female","no","yes","1","3","null","","null","","","","","","",""
"","","","","","image-keyboard-response","254","2.0.0","814097","psm2bkje7mx","mus","Manatee","21","Female","no","yes","1","3","900","stimuli/pictures/piano_electric_2.jpg","0","0","","true","no","sound","stimuli/sounds/drum_label_B.wav",""
"","","","","","audio-keyboard-response","255","2.0.0","815100","psm2bkje7mx","mus","Manatee","21","Female","no","yes","1","3","null","stimuli/sounds/bleep.wav","null","","","","","","",""
"","","","","","html-keyboard-response","256","2.0.0","818000","psm2bkje7mx","mus","Manatee","21","Female","no","yes","1","3","2799","<div style=""font-size:30px;"">Press space to start the trial</div>"," ","","","","","","",""
"","","","","","html-keyboard-response","257","2.0.0","818252","psm2bkje7mx","mus","Manatee","21","Female","no","yes","1","3","null","<div style=""font-size:60px;"">+</div>","null","","","","","","",""
"","","","","","audio-keyboard-response","258","2.0.0","818860","psm2bkje7mx","mus","Manatee","21","Female","no","yes","1","3","null","stimuli/sounds/piano_sound_B.wav","null","","","","","","",""
"","","","","","html-keyboard-response","259","2.0.0","819862","psm2bkje7mx","mus","Manatee","21","Female","no","yes","1","3","null","","null","","","","","","",""
"","","","","","image-keyboard-response","260","2.0.0","820468","psm2bkje7mx","mus","Manatee","21","Female","no","yes","1","3","605","stimuli/pictures/flute_wooden_2.jpg","0","0","","true","no","sound","stimuli/sounds/piano_sound_B.wav",""
"","","","","","audio-keyboard-response","261","2.0.0","821471","psm2bkje7mx","mus","Manatee","21","Female","no","yes","1","3","null","stimuli/sounds/bleep.wav","null","","","","","","",""
"","","","","","html-keyboard-response","262","2.0.0","822133","psm2bkje7mx","mus","Manatee","21","Female","no","yes","1","3","560","<div style=""font-size:30px;"">Press space to start the trial</div>"," ","","","","","","",""
"","","","","","html-keyboard-response","263","2.0.0","822386","psm2bkje7mx","mus","Manatee","21","Female","no","yes","1","3","null","<div style=""font-size:60px;"">+</div>","null","","","","","","",""
"","","","","","audio-keyboard-response","264","2.0.0","822993","psm2bkje7mx","mus","Manatee","21","Female","no","yes","1","3","null","stimuli/sounds/piano_sound_A.wav","null","","","","","","",""
"","","","","","html-keyboard-response","265","2.0.0","823995","psm2bkje7mx","mus","Manatee","21","Female","no","yes","1","3","null","","null","","","","","","",""
"","","","","","image-keyboard-response","266","2.0.0","825045","psm2bkje7mx","mus","Manatee","21","Female","no","yes","1","3","1049","stimuli/pictures/piano_grand_1.jpg","1","1","","true","yes","sound","stimuli/sounds/piano_sound_A.wav",""
"","","","","","audio-keyboard-response","267","2.0.0","826048","psm2bkje7mx","mus","Manatee","21","Female","no","yes","1","3","null","stimuli/sounds/bleep.wav","null","","","","","","",""
"","","","","","html-keyboard-response","268","2.0.0","827427","psm2bkje7mx","mus","Manatee","21","Female","no","yes","1","3","1277","<p>You have completed a block. Press R when you are ready to continue</p>","r","","","","","","",""
"","","","","","html-keyboard-response","269","2.0.0","828117","psm2bkje7mx","mus","Manatee","21","Female","no","yes","1","3","688","<div style=""font-size:30px;"">Press space to start the trial</div>"," ","","","","","","",""
"","","","","","html-keyboard-response","270","2.0.0","828369","psm2bkje7mx","mus","Manatee","21","Female","no","yes","1","3","null","<div style=""font-size:60px;"">+</div>","null","","","","","","",""
"","","","","","audio-keyboard-response","271","2.0.0","828972","psm2bkje7mx","mus","Manatee","21","Female","no","yes","1","3","null","stimuli/sounds/bird_sound_A.wav","null","","","","","","",""
"","","","","","html-keyboard-response","272","2.0.0","829974","psm2bkje7mx","mus","Manatee","21","Female","no","yes","1","3","null","","null","","","","","","",""
"","","","","","image-keyboard-response","273","2.0.0","830672","psm2bkje7mx","mus","Manatee","21","Female","no","yes","1","3","697","stimuli/pictures/bird_song_1.jpg","1","1","","true","no","sound","stimuli/sounds/bird_sound_A.wav",""
"","","","","","audio-keyboard-response","274","2.0.0","831675","psm2bkje7mx","mus","Manatee","21","Female","no","yes","1","3","null","stimuli/sounds/bleep.wav","null","","","","","","",""
"","","","","","html-keyboard-response","275","2.0.0","832336","psm2bkje7mx","mus","Manatee","21","Female","no","yes","1","3","558","<div style=""font-size:30px;"">Press space to start the trial</div>"," ","","","","","","",""
"","","","","","html-keyboard-response","276","2.0.0","832588","psm2bkje7mx","mus","Manatee","21","Female","no","yes","1","3","null","<div style=""font-size:60px;"">+</div>","null","","","","","","",""
"","","","","","audio-keyboard-response","277","2.0.0","833190","psm2bkje7mx","mus","Manatee","21","Female","no","yes","1","3","null","stimuli/sounds/phone_sound_A.wav","null","","","","","","",""
"","","","","","html-keyboard-response","278","2.0.0","834193","psm2bkje7mx","mus","Manatee","21","Female","no","yes","1","3","null","","null","","","","","","",""
"","","","","","image-keyboard-response","279","2.0.0","834703","psm2bkje7mx","mus","Manatee","21","Female","no","yes","1","3","509","stimuli/pictures/bird_hawk_1.jpg","0","0","","true","no","sound","stimuli/sounds/phone_sound_A.wav",""
"","","","","","audio-keyboard-response","280","2.0.0","835705","psm2bkje7mx","mus","Manatee","21","Female","no","yes","1","3","null","stimuli/sounds/bleep.wav","null","","","","","","",""
"","","","","","html-keyboard-response","281","2.0.0","836450","psm2bkje7mx","mus","Manatee","21","Female","no","yes","1","3","643","<div style=""font-size:30px;"">Press space to start the trial</div>"," ","","","","","","",""
"","","","","","html-keyboard-response","282","2.0.0","836702","psm2bkje7mx","mus","Manatee","21","Female","no","yes","1","3","null","<div style=""font-size:60px;"">+</div>","null","","","","","","",""
"","","","","","audio-keyboard-response","283","2.0.0","837302","psm2bkje7mx","mus","Manatee","21","Female","no","yes","1","3","null","stimuli/sounds/drum_sound_B.wav","null","","","","","","",""
"","","","","","html-keyboard-response","284","2.0.0","838304","psm2bkje7mx","mus","Manatee","21","Female","no","yes","1","3","null","","null","","","","","","",""
"","","","","","image-keyboard-response","285","2.0.0","838802","psm2bkje7mx","mus","Manatee","21","Female","no","yes","1","3","497","stimuli/pictures/drum_kit_1.jpg","1","1","","true","no","sound","stimuli/sounds/drum_sound_B.wav",""
"","","","","","audio-keyboard-response","286","2.0.0","839805","psm2bkje7mx","mus","Manatee","21","Female","no","yes","1","3","null","stimuli/sounds/bleep.wav","null","","","","","","",""
"","","","","","html-keyboard-response","287","2.0.0","840393","psm2bkje7mx","mus","Manatee","21","Female","no","yes","1","3","486","<div style=""font-size:30px;"">Press space to start the trial</div>"," ","","","","","","",""
"","","","","","html-keyboard-response","288","2.0.0","840645","psm2bkje7mx","mus","Manatee","21","Female","no","yes","1","3","null","<div style=""font-size:60px;"">+</div>","null","","","","","","",""
"","","","","","audio-keyboard-response","289","2.0.0","841244","psm2bkje7mx","mus","Manatee","21","Female","no","yes","1","3","null","stimuli/sounds/drum_label_A.wav","null","","","","","","",""
"","","","","","html-keyboard-response","290","2.0.0","842245","psm2bkje7mx","mus","Manatee","21","Female","no","yes","1","3","null","","null","","","","","","",""
"","","","","","image-keyboard-response","291","2.0.0","842584","psm2bkje7mx","mus","Manatee","21","Female","no","yes","1","3","338","stimuli/pictures/bird_hawk_1.jpg","0","0","","true","no","sound","stimuli/sounds/drum_label_A.wav",""
"","","","","","audio-keyboard-response","292","2.0.0","843586","psm2bkje7mx","mus","Manatee","21","Female","no","yes","1","3","null","stimuli/sounds/bleep.wav","null","","","","","","",""
"","","","","","html-keyboard-response","293","2.0.0","844725","psm2bkje7mx","mus","Manatee","21","Female","no","yes","1","3","1037","<div style=""font-size:30px;"">Press space to start the trial</div>"," ","","","","","","",""
"","","","","","html-keyboard-response","294","2.0.0","844977","psm2bkje7mx","mus","Manatee","21","Female","no","yes","1","3","null","<div style=""font-size:60px;"">+</div>","null","","","","","","",""
"","","","","","audio-keyboard-response","295","2.0.0","845580","psm2bkje7mx","mus","Manatee","21","Female","no","yes","1","3","null","stimuli/sounds/flute_sound_A.wav","null","","","","","","",""
"","","","","","html-keyboard-response","296","2.0.0","846582","psm2bkje7mx","mus","Manatee","21","Female","no","yes","1","3","null","","null","","","","","","",""
"","","","","","image-keyboard-response","297","2.0.0","847152","psm2bkje7mx","mus","Manatee","21","Female","no","yes","1","3","568","stimuli/pictures/flute_wooden_2.jpg","1","1","","true","no","sound","stimuli/sounds/flute_sound_A.wav",""
"","","","","","audio-keyboard-response","298","2.0.0","848155","psm2bkje7mx","mus","Manatee","21","Female","no","yes","1","3","null","stimuli/sounds/bleep.wav","null","","","","","","",""
"","","","","","html-keyboard-response","299","2.0.0","850050","psm2bkje7mx","mus","Manatee","21","Female","no","yes","1","3","1794","<div style=""font-size:30px;"">Press space to start the trial</div>"," ","","","","","","",""
"","","","","","html-keyboard-response","300","2.0.0","850302","psm2bkje7mx","mus","Manatee","21","Female","no","yes","1","3","null","<div style=""font-size:60px;"">+</div>","null","","","","","","",""
"","","","","","audio-keyboard-response","301","2.0.0","850908","psm2bkje7mx","mus","Manatee","21","Female","no","yes","1","3","null","stimuli/sounds/flute_label_B.wav","null","","","","","","",""
"","","","","","html-keyboard-response","302","2.0.0","851910","psm2bkje7mx","mus","Manatee","21","Female","no","yes","1","3","null","","null","","","","","","",""
"","","","","","image-keyboard-response","303","2.0.0","852416","psm2bkje7mx","mus","Manatee","21","Female","no","yes","1","3","505","stimuli/pictures/drum_kit_2.jpg","0","0","","true","no","sound","stimuli/sounds/flute_label_B.wav",""
"","","","","","audio-keyboard-response","304","2.0.0","853418","psm2bkje7mx","mus","Manatee","21","Female","no","yes","1","3","null","stimuli/sounds/bleep.wav","null","","","","","","",""
"","","","","","html-keyboard-response","305","2.0.0","854397","psm2bkje7mx","mus","Manatee","21","Female","no","yes","1","3","877","<div style=""font-size:30px;"">Press space to start the trial</div>"," ","","","","","","",""
"","","","","","html-keyboard-response","306","2.0.0","854649","psm2bkje7mx","mus","Manatee","21","Female","no","yes","1","3","null","<div style=""font-size:60px;"">+</div>","null","","","","","","",""
"","","","","","audio-keyboard-response","307","2.0.0","855249","psm2bkje7mx","mus","Manatee","21","Female","no","yes","1","3","null","stimuli/sounds/flute_sound_A.wav","null","","","","","","",""
"","","","","","html-keyboard-response","308","2.0.0","856251","psm2bkje7mx","mus","Manatee","21","Female","no","yes","1","3","null","","null","","","","","","",""
"","","","","","image-keyboard-response","309","2.0.0","857022","psm2bkje7mx","mus","Manatee","21","Female","no","yes","1","3","769","stimuli/pictures/phone_cell_2.jpg","0","0","","true","no","sound","stimuli/sounds/flute_sound_A.wav",""
"","","","","","audio-keyboard-response","310","2.0.0","858024","psm2bkje7mx","mus","Manatee","21","Female","no","yes","1","3","null","stimuli/sounds/bleep.wav","null","","","","","","",""
"","","","","","html-keyboard-response","311","2.0.0","858924","psm2bkje7mx","mus","Manatee","21","Female","no","yes","1","3","798","<div style=""font-size:30px;"">Press space to start the trial</div>"," ","","","","","","",""
"","","","","","html-keyboard-response","312","2.0.0","859176","psm2bkje7mx","mus","Manatee","21","Female","no","yes","1","3","null","<div style=""font-size:60px;"">+</div>","null","","","","","","",""
"","","","","","audio-keyboard-response","313","2.0.0","859777","psm2bkje7mx","mus","Manatee","21","Female","no","yes","1","3","null","stimuli/sounds/bird_label_A.wav","null","","","","","","",""
"","","","","","html-keyboard-response","314","2.0.0","860779","psm2bkje7mx","mus","Manatee","21","Female","no","yes","1","3","null","","null","","","","","","",""
"","","","","","image-keyboard-response","315","2.0.0","861354","psm2bkje7mx","mus","Manatee","21","Female","no","yes","1","3","573","stimuli/pictures/flute_wooden_1.jpg","0","0","","true","no","sound","stimuli/sounds/bird_label_A.wav",""
"","","","","","audio-keyboard-response","316","2.0.0","862356","psm2bkje7mx","mus","Manatee","21","Female","no","yes","1","3","null","stimuli/sounds/bleep.wav","null","","","","","","",""
"","","","","","html-keyboard-response","317","2.0.0","863916","psm2bkje7mx","mus","Manatee","21","Female","no","yes","1","3","1458","<div style=""font-size:30px;"">Press space to start the trial</div>"," ","","","","","","",""
"","","","","","html-keyboard-response","318","2.0.0","864168","psm2bkje7mx","mus","Manatee","21","Female","no","yes","1","3","null","<div style=""font-size:60px;"">+</div>","null","","","","","","",""
"","","","","","audio-keyboard-response","319","2.0.0","864769","psm2bkje7mx","mus","Manatee","21","Female","no","yes","1","3","null","stimuli/sounds/bird_label_B.wav","null","","","","","","",""
"","","","","","html-keyboard-response","320","2.0.0","865771","psm2bkje7mx","mus","Manatee","21","Female","no","yes","1","3","null","","null","","","","","","",""
"","","","","","image-keyboard-response","321","2.0.0","866404","psm2bkje7mx","mus","Manatee","21","Female","no","yes","1","3","632","stimuli/pictures/phone_cell_2.jpg","0","0","","true","no","sound","stimuli/sounds/bird_label_B.wav",""
"","","","","","audio-keyboard-response","322","2.0.0","867407","psm2bkje7mx","mus","Manatee","21","Female","no","yes","1","3","null","stimuli/sounds/bleep.wav","null","","","","","","",""
"","","","","","html-keyboard-response","323","2.0.0","868391","psm2bkje7mx","mus","Manatee","21","Female","no","yes","1","3","882","<div style=""font-size:30px;"">Press space to start the trial</div>"," ","","","","","","",""
"","","","","","html-keyboard-response","324","2.0.0","868642","psm2bkje7mx","mus","Manatee","21","Female","no","yes","1","3","null","<div style=""font-size:60px;"">+</div>","null","","","","","","",""
"","","","","","audio-keyboard-response","325","2.0.0","869243","psm2bkje7mx","mus","Manatee","21","Female","no","yes","1","3","null","stimuli/sounds/phone_label_B.wav","null","","","","","","",""
"","","","","","html-keyboard-response","326","2.0.0","870246","psm2bkje7mx","mus","Manatee","21","Female","no","yes","1","3","null","","null","","","","","","",""
"","","","","","image-keyboard-response","327","2.0.0","871012","psm2bkje7mx","mus","Manatee","21","Female","no","yes","1","3","765","stimuli/pictures/flute_wooden_2.jpg","0","0","","true","no","sound","stimuli/sounds/phone_label_B.wav",""
"","","","","","audio-keyboard-response","328","2.0.0","872015","psm2bkje7mx","mus","Manatee","21","Female","no","yes","1","3","null","stimuli/sounds/bleep.wav","null","","","","","","",""
"","","","","","html-keyboard-response","329","2.0.0","873966","psm2bkje7mx","mus","Manatee","21","Female","no","yes","1","3","1850","<div style=""font-size:30px;"">Press space to start the trial</div>"," ","","","","","","",""
"","","","","","html-keyboard-response","330","2.0.0","874219","psm2bkje7mx","mus","Manatee","21","Female","no","yes","1","3","null","<div style=""font-size:60px;"">+</div>","null","","","","","","",""
"","","","","","audio-keyboard-response","331","2.0.0","874827","psm2bkje7mx","mus","Manatee","21","Female","no","yes","1","3","null","stimuli/sounds/flute_sound_B.wav","null","","","","","","",""
"","","","","","html-keyboard-response","332","2.0.0","875830","psm2bkje7mx","mus","Manatee","21","Female","no","yes","1","3","null","","null","","","","","","",""
"","","","","","image-keyboard-response","333","2.0.0","876272","psm2bkje7mx","mus","Manatee","21","Female","no","yes","1","3","441","stimuli/pictures/bird_song_2.jpg","0","0","","true","no","sound","stimuli/sounds/flute_sound_B.wav",""
"","","","","","audio-keyboard-response","334","2.0.0","877275","psm2bkje7mx","mus","Manatee","21","Female","no","yes","1","3","null","stimuli/sounds/bleep.wav","null","","","","","","",""
"","","","","","html-keyboard-response","335","2.0.0","882633","psm2bkje7mx","mus","Manatee","21","Female","no","yes","1","3","5256","<div style=""font-size:30px;"">Press space to start the trial</div>"," ","","","","","","",""
"","","","","","html-keyboard-response","336","2.0.0","882885","psm2bkje7mx","mus","Manatee","21","Female","no","yes","1","3","null","<div style=""font-size:60px;"">+</div>","null","","","","","","",""
"","","","","","audio-keyboard-response","337","2.0.0","883489","psm2bkje7mx","mus","Manatee","21","Female","no","yes","1","3","null","stimuli/sounds/bird_sound_B.wav","null","","","","","","",""
"","","","","","html-keyboard-response","338","2.0.0","884491","psm2bkje7mx","mus","Manatee","21","Female","no","yes","1","3","null","","null","","","","","","",""
"","","","","","image-keyboard-response","339","2.0.0","884896","psm2bkje7mx","mus","Manatee","21","Female","no","yes","1","3","404","stimuli/pictures/bird_hawk_1.jpg","1","1","","true","no","sound","stimuli/sounds/bird_sound_B.wav",""
"","","","","","audio-keyboard-response","340","2.0.0","885899","psm2bkje7mx","mus","Manatee","21","Female","no","yes","1","3","null","stimuli/sounds/bleep.wav","null","","","","","","",""
"","","","","","html-keyboard-response","341","2.0.0","891773","psm2bkje7mx","mus","Manatee","21","Female","no","yes","1","3","5773","<div style=""font-size:30px;"">Press space to start the trial</div>"," ","","","","","","",""
"","","","","","html-keyboard-response","342","2.0.0","892026","psm2bkje7mx","mus","Manatee","21","Female","no","yes","1","3","null","<div style=""font-size:60px;"">+</div>","null","","","","","","",""
"","","","","","audio-keyboard-response","343","2.0.0","892625","psm2bkje7mx","mus","Manatee","21","Female","no","yes","1","3","null","stimuli/sounds/bird_label_A.wav","null","","","","","","",""
"","","","","","html-keyboard-response","344","2.0.0","893627","psm2bkje7mx","mus","Manatee","21","Female","no","yes","1","3","null","","null","","","","","","",""
"","","","","","image-keyboard-response","345","2.0.0","894046","psm2bkje7mx","mus","Manatee","21","Female","no","yes","1","3","417","stimuli/pictures/flute_wooden_2.jpg","0","0","","true","no","sound","stimuli/sounds/bird_label_A.wav",""
"","","","","","audio-keyboard-response","346","2.0.0","895048","psm2bkje7mx","mus","Manatee","21","Female","no","yes","1","3","null","stimuli/sounds/bleep.wav","null","","","","","","",""
"","","","","","html-keyboard-response","347","2.0.0","916216","psm2bkje7mx","mus","Manatee","21","Female","no","yes","1","3","21066","<div style=""font-size:30px;"">Press space to start the trial</div>"," ","","","","","","",""
"","","","","","html-keyboard-response","348","2.0.0","916469","psm2bkje7mx","mus","Manatee","21","Female","no","yes","1","3","null","<div style=""font-size:60px;"">+</div>","null","","","","","","",""
"","","","","","audio-keyboard-response","349","2.0.0","917067","psm2bkje7mx","mus","Manatee","21","Female","no","yes","1","3","null","stimuli/sounds/phone_label_A.wav","null","","","","","","",""
"","","","","","html-keyboard-response","350","2.0.0","918070","psm2bkje7mx","mus","Manatee","21","Female","no","yes","1","3","null","","null","","","","","","",""
"","","","","","image-keyboard-response","351","2.0.0","918529","psm2bkje7mx","mus","Manatee","21","Female","no","yes","1","3","457","stimuli/pictures/phone_rotary_2.jpg","1","1","","true","yes","sound","stimuli/sounds/phone_label_A.wav",""
"","","","","","audio-keyboard-response","352","2.0.0","919531","psm2bkje7mx","mus","Manatee","21","Female","no","yes","1","3","null","stimuli/sounds/bleep.wav","null","","","","","","",""
"","","","","","html-keyboard-response","353","2.0.0","925468","psm2bkje7mx","mus","Manatee","21","Female","no","yes","1","3","5835","<div style=""font-size:30px;"">Press space to start the trial</div>"," ","","","","","","",""
"","","","","","html-keyboard-response","354","2.0.0","925720","psm2bkje7mx","mus","Manatee","21","Female","no","yes","1","3","null","<div style=""font-size:60px;"">+</div>","null","","","","","","",""
"","","","","","audio-keyboard-response","355","2.0.0","926321","psm2bkje7mx","mus","Manatee","21","Female","no","yes","1","3","null","stimuli/sounds/drum_sound_B.wav","null","","","","","","",""
"","","","","","html-keyboard-response","356","2.0.0","927323","psm2bkje7mx","mus","Manatee","21","Female","no","yes","1","3","null","","null","","","","","","",""
"","","","","","image-keyboard-response","357","2.0.0","928291","psm2bkje7mx","mus","Manatee","21","Female","no","yes","1","3","967","stimuli/pictures/phone_cell_2.jpg","0","0","","true","no","sound","stimuli/sounds/drum_sound_B.wav",""
"","","","","","audio-keyboard-response","358","2.0.0","929293","psm2bkje7mx","mus","Manatee","21","Female","no","yes","1","3","null","stimuli/sounds/bleep.wav","null","","","","","","",""
"","","","","","html-keyboard-response","359","2.0.0","931215","psm2bkje7mx","mus","Manatee","21","Female","no","yes","1","3","1820","<div style=""font-size:30px;"">Press space to start the trial</div>"," ","","","","","","",""
"","","","","","html-keyboard-response","360","2.0.0","931468","psm2bkje7mx","mus","Manatee","21","Female","no","yes","1","3","null","<div style=""font-size:60px;"">+</div>","null","","","","","","",""
"","","","","","audio-keyboard-response","361","2.0.0","932070","psm2bkje7mx","mus","Manatee","21","Female","no","yes","1","3","null","stimuli/sounds/phone_label_B.wav","null","","","","","","",""
"","","","","","html-keyboard-response","362","2.0.0","933072","psm2bkje7mx","mus","Manatee","21","Female","no","yes","1","3","null","","null","","","","","","",""
"","","","","","image-keyboard-response","363","2.0.0","933639","psm2bkje7mx","mus","Manatee","21","Female","no","yes","1","3","565","stimuli/pictures/phone_cell_2.jpg","1","1","","true","yes","sound","stimuli/sounds/phone_label_B.wav",""
"","","","","","audio-keyboard-response","364","2.0.0","934641","psm2bkje7mx","mus","Manatee","21","Female","no","yes","1","3","null","stimuli/sounds/bleep.wav","null","","","","","","",""
"","","","","","html-keyboard-response","365","2.0.0","936665","psm2bkje7mx","mus","Manatee","21","Female","no","yes","1","3","1923","<div style=""font-size:30px;"">Press space to start the trial</div>"," ","","","","","","",""
"","","","","","html-keyboard-response","366","2.0.0","936918","psm2bkje7mx","mus","Manatee","21","Female","no","yes","1","3","null","<div style=""font-size:60px;"">+</div>","null","","","","","","",""
"","","","","","audio-keyboard-response","367","2.0.0","937520","psm2bkje7mx","mus","Manatee","21","Female","no","yes","1","3","null","stimuli/sounds/drum_sound_A.wav","null","","","","","","",""
"","","","","","html-keyboard-response","368","2.0.0","938523","psm2bkje7mx","mus","Manatee","21","Female","no","yes","1","3","null","","null","","","","","","",""
"","","","","","image-keyboard-response","369","2.0.0","939258","psm2bkje7mx","mus","Manatee","21","Female","no","yes","1","3","734","stimuli/pictures/drum_bongo_2.jpg","1","1","","true","no","sound","stimuli/sounds/drum_sound_A.wav",""
"","","","","","audio-keyboard-response","370","2.0.0","940260","psm2bkje7mx","mus","Manatee","21","Female","no","yes","1","3","null","stimuli/sounds/bleep.wav","null","","","","","","",""
"","","","","","html-keyboard-response","371","2.0.0","946087","psm2bkje7mx","mus","Manatee","21","Female","no","yes","1","3","5725","<div style=""font-size:30px;"">Press space to start the trial</div>"," ","","","","","","",""
"","","","","","html-keyboard-response","372","2.0.0","946339","psm2bkje7mx","mus","Manatee","21","Female","no","yes","1","3","null","<div style=""font-size:60px;"">+</div>","null","","","","","","",""
"","","","","","audio-keyboard-response","373","2.0.0","946939","psm2bkje7mx","mus","Manatee","21","Female","no","yes","1","3","null","stimuli/sounds/drum_label_A.wav","null","","","","","","",""
"","","","","","html-keyboard-response","374","2.0.0","947941","psm2bkje7mx","mus","Manatee","21","Female","no","yes","1","3","null","","null","","","","","","",""
"","","","","","image-keyboard-response","375","2.0.0","948400","psm2bkje7mx","mus","Manatee","21","Female","no","yes","1","3","458","stimuli/pictures/bird_hawk_1.jpg","0","0","","true","no","sound","stimuli/sounds/drum_label_A.wav",""
"","","","","","audio-keyboard-response","376","2.0.0","949402","psm2bkje7mx","mus","Manatee","21","Female","no","yes","1","3","null","stimuli/sounds/bleep.wav","null","","","","","","",""
"","","","","","html-keyboard-response","377","2.0.0","951049","psm2bkje7mx","mus","Manatee","21","Female","no","yes","1","3","1545","<div style=""font-size:30px;"">Press space to start the trial</div>"," ","","","","","","",""
"","","","","","html-keyboard-response","378","2.0.0","951300","psm2bkje7mx","mus","Manatee","21","Female","no","yes","1","3","null","<div style=""font-size:60px;"">+</div>","null","","","","","","",""
"","","","","","audio-keyboard-response","379","2.0.0","951904","psm2bkje7mx","mus","Manatee","21","Female","no","yes","1","3","null","stimuli/sounds/flute_sound_B.wav","null","","","","","","",""
"","","","","","html-keyboard-response","380","2.0.0","952907","psm2bkje7mx","mus","Manatee","21","Female","no","yes","1","3","null","","null","","","","","","",""
"","","","","","image-keyboard-response","381","2.0.0","953468","psm2bkje7mx","mus","Manatee","21","Female","no","yes","1","3","560","stimuli/pictures/flute_metal_2.jpg","1","1","","true","no","sound","stimuli/sounds/flute_sound_B.wav",""
"","","","","","audio-keyboard-response","382","2.0.0","954471","psm2bkje7mx","mus","Manatee","21","Female","no","yes","1","3","null","stimuli/sounds/bleep.wav","null","","","","","","",""
"","","","","","html-keyboard-response","383","2.0.0","956165","psm2bkje7mx","mus","Manatee","21","Female","no","yes","1","3","1593","<div style=""font-size:30px;"">Press space to start the trial</div>"," ","","","","","","",""
"","","","","","html-keyboard-response","384","2.0.0","956418","psm2bkje7mx","mus","Manatee","21","Female","no","yes","1","3","null","<div style=""font-size:60px;"">+</div>","null","","","","","","",""
"","","","","","audio-keyboard-response","385","2.0.0","957019","psm2bkje7mx","mus","Manatee","21","Female","no","yes","1","3","null","stimuli/sounds/phone_label_B.wav","null","","","","","","",""
"","","","","","html-keyboard-response","386","2.0.0","958021","psm2bkje7mx","mus","Manatee","21","Female","no","yes","1","3","null","","null","","","","","","",""
"","","","","","image-keyboard-response","387","2.0.0","958549","psm2bkje7mx","mus","Manatee","21","Female","no","yes","1","3","527","stimuli/pictures/flute_metal_2.jpg","0","0","","true","no","sound","stimuli/sounds/phone_label_B.wav",""
"","","","","","audio-keyboard-response","388","2.0.0","959552","psm2bkje7mx","mus","Manatee","21","Female","no","yes","1","3","null","stimuli/sounds/bleep.wav","null","","","","","","",""
"","","","","","html-keyboard-response","389","2.0.0","973279","psm2bkje7mx","mus","Manatee","21","Female","no","yes","1","3","13626","<p>You have completed a block. Press R when you are ready to continue</p>","r","","","","","","",""
"","","","","","html-keyboard-response","390","2.0.0","974599","psm2bkje7mx","mus","Manatee","21","Female","no","yes","1","3","1319","<div style=""font-size:30px;"">Press space to start the trial</div>"," ","","","","","","",""
"","","","","","html-keyboard-response","391","2.0.0","974851","psm2bkje7mx","mus","Manatee","21","Female","no","yes","1","3","null","<div style=""font-size:60px;"">+</div>","null","","","","","","",""
"","","","","","audio-keyboard-response","392","2.0.0","975451","psm2bkje7mx","mus","Manatee","21","Female","no","yes","1","3","null","stimuli/sounds/bird_label_A.wav","null","","","","","","",""
"","","","","","html-keyboard-response","393","2.0.0","976454","psm2bkje7mx","mus","Manatee","21","Female","no","yes","1","3","null","","null","","","","","","",""
"","","","","","image-keyboard-response","394","2.0.0","976866","psm2bkje7mx","mus","Manatee","21","Female","no","yes","1","3","411","stimuli/pictures/flute_metal_2.jpg","0","0","","true","no","sound","stimuli/sounds/bird_label_A.wav",""
"","","","","","audio-keyboard-response","395","2.0.0","977868","psm2bkje7mx","mus","Manatee","21","Female","no","yes","1","3","null","stimuli/sounds/bleep.wav","null","","","","","","",""
"","","","","","html-keyboard-response","396","2.0.0","979066","psm2bkje7mx","mus","Manatee","21","Female","no","yes","1","3","1096","<div style=""font-size:30px;"">Press space to start the trial</div>"," ","","","","","","",""
"","","","","","html-keyboard-response","397","2.0.0","979318","psm2bkje7mx","mus","Manatee","21","Female","no","yes","1","3","null","<div style=""font-size:60px;"">+</div>","null","","","","","","",""
"","","","","","audio-keyboard-response","398","2.0.0","979926","psm2bkje7mx","mus","Manatee","21","Female","no","yes","1","3","null","stimuli/sounds/piano_sound_B.wav","null","","","","","","",""
"","","","","","html-keyboard-response","399","2.0.0","980928","psm2bkje7mx","mus","Manatee","21","Female","no","yes","1","3","null","","null","","","","","","",""
"","","","","","image-keyboard-response","400","2.0.0","981449","psm2bkje7mx","mus","Manatee","21","Female","no","yes","1","3","520","stimuli/pictures/flute_metal_1.jpg","0","0","","true","no","sound","stimuli/sounds/piano_sound_B.wav",""
"","","","","","audio-keyboard-response","401","2.0.0","982451","psm2bkje7mx","mus","Manatee","21","Female","no","yes","1","3","null","stimuli/sounds/bleep.wav","null","","","","","","",""
"","","","","","html-keyboard-response","402","2.0.0","983182","psm2bkje7mx","mus","Manatee","21","Female","no","yes","1","3","628","<div style=""font-size:30px;"">Press space to start the trial</div>"," ","","","","","","",""
"","","","","","html-keyboard-response","403","2.0.0","983434","psm2bkje7mx","mus","Manatee","21","Female","no","yes","1","3","null","<div style=""font-size:60px;"">+</div>","null","","","","","","",""
"","","","","","audio-keyboard-response","404","2.0.0","984043","psm2bkje7mx","mus","Manatee","21","Female","no","yes","1","3","null","stimuli/sounds/flute_sound_B.wav","null","","","","","","",""
"","","","","","html-keyboard-response","405","2.0.0","985046","psm2bkje7mx","mus","Manatee","21","Female","no","yes","1","3","null","","null","","","","","","",""
"","","","","","image-keyboard-response","406","2.0.0","985554","psm2bkje7mx","mus","Manatee","21","Female","no","yes","1","3","507","stimuli/pictures/flute_wooden_2.jpg","1","1","","true","yes","sound","stimuli/sounds/flute_sound_B.wav",""
"","","","","","audio-keyboard-response","407","2.0.0","986556","psm2bkje7mx","mus","Manatee","21","Female","no","yes","1","3","null","stimuli/sounds/bleep.wav","null","","","","","","",""
"","","","","","html-keyboard-response","408","2.0.0","987444","psm2bkje7mx","mus","Manatee","21","Female","no","yes","1","3","786","<div style=""font-size:30px;"">Press space to start the trial</div>"," ","","","","","","",""
"","","","","","html-keyboard-response","409","2.0.0","987697","psm2bkje7mx","mus","Manatee","21","Female","no","yes","1","3","null","<div style=""font-size:60px;"">+</div>","null","","","","","","",""
"","","","","","audio-keyboard-response","410","2.0.0","988299","psm2bkje7mx","mus","Manatee","21","Female","no","yes","1","3","null","stimuli/sounds/drum_label_B.wav","null","","","","","","",""
"","","","","","html-keyboard-response","411","2.0.0","989301","psm2bkje7mx","mus","Manatee","21","Female","no","yes","1","3","null","","null","","","","","","",""
"","","","","","image-keyboard-response","412","2.0.0","989649","psm2bkje7mx","mus","Manatee","21","Female","no","yes","1","3","346","stimuli/pictures/drum_bongo_1.jpg","1","1","","true","yes","sound","stimuli/sounds/drum_label_B.wav",""
"","","","","","audio-keyboard-response","413","2.0.0","990652","psm2bkje7mx","mus","Manatee","21","Female","no","yes","1","3","null","stimuli/sounds/bleep.wav","null","","","","","","",""
"","","","","","html-keyboard-response","414","2.0.0","991465","psm2bkje7mx","mus","Manatee","21","Female","no","yes","1","3","712","<div style=""font-size:30px;"">Press space to start the trial</div>"," ","","","","","","",""
"","","","","","html-keyboard-response","415","2.0.0","991718","psm2bkje7mx","mus","Manatee","21","Female","no","yes","1","3","null","<div style=""font-size:60px;"">+</div>","null","","","","","","",""
"","","","","","audio-keyboard-response","416","2.0.0","992320","psm2bkje7mx","mus","Manatee","21","Female","no","yes","1","3","null","stimuli/sounds/drum_sound_A.wav","null","","","","","","",""
"","","","","","html-keyboard-response","417","2.0.0","993322","psm2bkje7mx","mus","Manatee","21","Female","no","yes","1","3","null","","null","","","","","","",""
"","","","","","image-keyboard-response","418","2.0.0","993786","psm2bkje7mx","mus","Manatee","21","Female","no","yes","1","3","462","stimuli/pictures/flute_wooden_1.jpg","0","0","","true","no","sound","stimuli/sounds/drum_sound_A.wav",""
"","","","","","audio-keyboard-response","419","2.0.0","994789","psm2bkje7mx","mus","Manatee","21","Female","no","yes","1","3","null","stimuli/sounds/bleep.wav","null","","","","","","",""
"","","","","","html-keyboard-response","420","2.0.0","995916","psm2bkje7mx","mus","Manatee","21","Female","no","yes","1","3","1025","<div style=""font-size:30px;"">Press space to start the trial</div>"," ","","","","","","",""
"","","","","","html-keyboard-response","421","2.0.0","996168","psm2bkje7mx","mus","Manatee","21","Female","no","yes","1","3","null","<div style=""font-size:60px;"">+</div>","null","","","","","","",""
"","","","","","audio-keyboard-response","422","2.0.0","996768","psm2bkje7mx","mus","Manatee","21","Female","no","yes","1","3","null","stimuli/sounds/piano_label_B.wav","null","","","","","","",""
"","","","","","html-keyboard-response","423","2.0.0","997770","psm2bkje7mx","mus","Manatee","21","Female","no","yes","1","3","null","","null","","","","","","",""
"","","","","","image-keyboard-response","424","2.0.0","998351","psm2bkje7mx","mus","Manatee","21","Female","no","yes","1","3","579","stimuli/pictures/piano_electric_2.jpg","1","1","","true","yes","sound","stimuli/sounds/piano_label_B.wav",""
"","","","","","audio-keyboard-response","425","2.0.0","999353","psm2bkje7mx","mus","Manatee","21","Female","no","yes","1","3","null","stimuli/sounds/bleep.wav","null","","","","","","",""
"","","","","","html-keyboard-response","426","2.0.0","1000035","psm2bkje7mx","mus","Manatee","21","Female","no","yes","1","3","580","<div style=""font-size:30px;"">Press space to start the trial</div>"," ","","","","","","",""
"","","","","","html-keyboard-response","427","2.0.0","1000287","psm2bkje7mx","mus","Manatee","21","Female","no","yes","1","3","null","<div style=""font-size:60px;"">+</div>","null","","","","","","",""
"","","","","","audio-keyboard-response","428","2.0.0","1000896","psm2bkje7mx","mus","Manatee","21","Female","no","yes","1","3","null","stimuli/sounds/piano_sound_B.wav","null","","","","","","",""
"","","","","","html-keyboard-response","429","2.0.0","1001899","psm2bkje7mx","mus","Manatee","21","Female","no","yes","1","3","null","","null","","","","","","",""
"","","","","","image-keyboard-response","430","2.0.0","1002249","psm2bkje7mx","mus","Manatee","21","Female","no","yes","1","3","349","stimuli/pictures/piano_electric_1.jpg","1","1","","true","yes","sound","stimuli/sounds/piano_sound_B.wav",""
"","","","","","audio-keyboard-response","431","2.0.0","1003252","psm2bkje7mx","mus","Manatee","21","Female","no","yes","1","3","null","stimuli/sounds/bleep.wav","null","","","","","","",""
"","","","","","html-keyboard-response","432","2.0.0","1003874","psm2bkje7mx","mus","Manatee","21","Female","no","yes","1","3","520","<div style=""font-size:30px;"">Press space to start the trial</div>"," ","","","","","","",""
"","","","","","html-keyboard-response","433","2.0.0","1004126","psm2bkje7mx","mus","Manatee","21","Female","no","yes","1","3","null","<div style=""font-size:60px;"">+</div>","null","","","","","","",""
"","","","","","audio-keyboard-response","434","2.0.0","1004725","psm2bkje7mx","mus","Manatee","21","Female","no","yes","1","3","null","stimuli/sounds/bird_label_B.wav","null","","","","","","",""
"","","","","","html-keyboard-response","435","2.0.0","1005728","psm2bkje7mx","mus","Manatee","21","Female","no","yes","1","3","null","","null","","","","","","",""
"","","","","","image-keyboard-response","436","2.0.0","1006376","psm2bkje7mx","mus","Manatee","21","Female","no","yes","1","3","647","stimuli/pictures/bird_hawk_1.jpg","1","1","","true","yes","sound","stimuli/sounds/bird_label_B.wav",""
"","","","","","audio-keyboard-response","437","2.0.0","1007378","psm2bkje7mx","mus","Manatee","21","Female","no","yes","1","3","null","stimuli/sounds/bleep.wav","null","","","","","","",""
"","","","","","html-keyboard-response","438","2.0.0","1008219","psm2bkje7mx","mus","Manatee","21","Female","no","yes","1","3","739","<div style=""font-size:30px;"">Press space to start the trial</div>"," ","","","","","","",""
"","","","","","html-keyboard-response","439","2.0.0","1008472","psm2bkje7mx","mus","Manatee","21","Female","no","yes","1","3","null","<div style=""font-size:60px;"">+</div>","null","","","","","","",""
"","","","","","audio-keyboard-response","440","2.0.0","1009072","psm2bkje7mx","mus","Manatee","21","Female","no","yes","1","3","null","stimuli/sounds/drum_sound_B.wav","null","","","","","","",""
"","","","","","html-keyboard-response","441","2.0.0","1010074","psm2bkje7mx","mus","Manatee","21","Female","no","yes","1","3","null","","null","","","","","","",""
"","","","","","image-keyboard-response","442","2.0.0","1010582","psm2bkje7mx","mus","Manatee","21","Female","no","yes","1","3","506","stimuli/pictures/phone_rotary_2.jpg","0","0","","true","no","sound","stimuli/sounds/drum_sound_B.wav",""
"","","","","","audio-keyboard-response","443","2.0.0","1011585","psm2bkje7mx","mus","Manatee","21","Female","no","yes","1","3","null","stimuli/sounds/bleep.wav","null","","","","","","",""
"","","","","","html-keyboard-response","444","2.0.0","1012132","psm2bkje7mx","mus","Manatee","21","Female","no","yes","1","3","445","<div style=""font-size:30px;"">Press space to start the trial</div>"," ","","","","","","",""
"","","","","","html-keyboard-response","445","2.0.0","1012384","psm2bkje7mx","mus","Manatee","21","Female","no","yes","1","3","null","<div style=""font-size:60px;"">+</div>","null","","","","","","",""
"","","","","","audio-keyboard-response","446","2.0.0","1012987","psm2bkje7mx","mus","Manatee","21","Female","no","yes","1","3","null","stimuli/sounds/phone_sound_B.wav","null","","","","","","",""
"","","","","","html-keyboard-response","447","2.0.0","1013989","psm2bkje7mx","mus","Manatee","21","Female","no","yes","1","3","null","","null","","","","","","",""
"","","","","","image-keyboard-response","448","2.0.0","1014418","psm2bkje7mx","mus","Manatee","21","Female","no","yes","1","3","427","stimuli/pictures/phone_rotary_1.jpg","1","1","","true","yes","sound","stimuli/sounds/phone_sound_B.wav",""
"","","","","","audio-keyboard-response","449","2.0.0","1015420","psm2bkje7mx","mus","Manatee","21","Female","no","yes","1","3","null","stimuli/sounds/bleep.wav","null","","","","","","",""
"","","","","","html-keyboard-response","450","2.0.0","1016352","psm2bkje7mx","mus","Manatee","21","Female","no","yes","1","3","830","<div style=""font-size:30px;"">Press space to start the trial</div>"," ","","","","","","",""
"","","","","","html-keyboard-response","451","2.0.0","1016604","psm2bkje7mx","mus","Manatee","21","Female","no","yes","1","3","null","<div style=""font-size:60px;"">+</div>","null","","","","","","",""
"","","","","","audio-keyboard-response","452","2.0.0","1017205","psm2bkje7mx","mus","Manatee","21","Female","no","yes","1","3","null","stimuli/sounds/drum_label_B.wav","null","","","","","","",""
"","","","","","html-keyboard-response","453","2.0.0","1018207","psm2bkje7mx","mus","Manatee","21","Female","no","yes","1","3","null","","null","","","","","","",""
"","","","","","image-keyboard-response","454","2.0.0","1018903","psm2bkje7mx","mus","Manatee","21","Female","no","yes","1","3","694","stimuli/pictures/drum_kit_2.jpg","1","1","","true","yes","sound","stimuli/sounds/drum_label_B.wav",""
"","","","","","audio-keyboard-response","455","2.0.0","1019905","psm2bkje7mx","mus","Manatee","21","Female","no","yes","1","3","null","stimuli/sounds/bleep.wav","null","","","","","","",""
"","","","","","html-keyboard-response","456","2.0.0","1025331","psm2bkje7mx","mus","Manatee","21","Female","no","yes","1","3","5324","<div style=""font-size:30px;"">Press space to start the trial</div>"," ","","","","","","",""
"","","","","","html-keyboard-response","457","2.0.0","1025582","psm2bkje7mx","mus","Manatee","21","Female","no","yes","1","3","null","<div style=""font-size:60px;"">+</div>","null","","","","","","",""
"","","","","","audio-keyboard-response","458","2.0.0","1026181","psm2bkje7mx","mus","Manatee","21","Female","no","yes","1","3","null","stimuli/sounds/phone_label_B.wav","null","","","","","","",""
"","","","","","html-keyboard-response","459","2.0.0","1027184","psm2bkje7mx","mus","Manatee","21","Female","no","yes","1","3","null","","null","","","","","","",""
"","","","","","image-keyboard-response","460","2.0.0","1027550","psm2bkje7mx","mus","Manatee","21","Female","no","yes","1","3","365","stimuli/pictures/phone_rotary_1.jpg","1","1","","true","yes","sound","stimuli/sounds/phone_label_B.wav",""
"","","","","","audio-keyboard-response","461","2.0.0","1028553","psm2bkje7mx","mus","Manatee","21","Female","no","yes","1","3","null","stimuli/sounds/bleep.wav","null","","","","","","",""
"","","","","","html-keyboard-response","462","2.0.0","1029265","psm2bkje7mx","mus","Manatee","21","Female","no","yes","1","3","610","<div style=""font-size:30px;"">Press space to start the trial</div>"," ","","","","","","",""
"","","","","","html-keyboard-response","463","2.0.0","1029518","psm2bkje7mx","mus","Manatee","21","Female","no","yes","1","3","null","<div style=""font-size:60px;"">+</div>","null","","","","","","",""
"","","","","","audio-keyboard-response","464","2.0.0","1030117","psm2bkje7mx","mus","Manatee","21","Female","no","yes","1","3","null","stimuli/sounds/bird_sound_A.wav","null","","","","","","",""
"","","","","","html-keyboard-response","465","2.0.0","1031119","psm2bkje7mx","mus","Manatee","21","Female","no","yes","1","3","null","","null","","","","","","",""
"","","","","","image-keyboard-response","466","2.0.0","1031445","psm2bkje7mx","mus","Manatee","21","Female","no","yes","1","3","325","stimuli/pictures/bird_hawk_1.jpg","1","1","","true","yes","sound","stimuli/sounds/bird_sound_A.wav",""
"","","","","","audio-keyboard-response","467","2.0.0","1032448","psm2bkje7mx","mus","Manatee","21","Female","no","yes","1","3","null","stimuli/sounds/bleep.wav","null","","","","","","",""
"","","","","","html-keyboard-response","468","2.0.0","1033166","psm2bkje7mx","mus","Manatee","21","Female","no","yes","1","3","616","<div style=""font-size:30px;"">Press space to start the trial</div>"," ","","","","","","",""
"","","","","","html-keyboard-response","469","2.0.0","1033419","psm2bkje7mx","mus","Manatee","21","Female","no","yes","1","3","null","<div style=""font-size:60px;"">+</div>","null","","","","","","",""
"","","","","","audio-keyboard-response","470","2.0.0","1034021","psm2bkje7mx","mus","Manatee","21","Female","no","yes","1","3","null","stimuli/sounds/bird_label_A.wav","null","","","","","","",""
"","","","","","html-keyboard-response","471","2.0.0","1035023","psm2bkje7mx","mus","Manatee","21","Female","no","yes","1","3","null","","null","","","","","","",""
"","","","","","image-keyboard-response","472","2.0.0","1035628","psm2bkje7mx","mus","Manatee","21","Female","no","yes","1","3","604","stimuli/pictures/bird_song_1.jpg","1","1","","true","yes","sound","stimuli/sounds/bird_label_A.wav",""
"","","","","","audio-keyboard-response","473","2.0.0","1036631","psm2bkje7mx","mus","Manatee","21","Female","no","yes","1","3","null","stimuli/sounds/bleep.wav","null","","","","","","",""
"","","","","","html-keyboard-response","474","2.0.0","1038665","psm2bkje7mx","mus","Manatee","21","Female","no","yes","1","3","1933","<div style=""font-size:30px;"">Press space to start the trial</div>"," ","","","","","","",""
"","","","","","html-keyboard-response","475","2.0.0","1038917","psm2bkje7mx","mus","Manatee","21","Female","no","yes","1","3","null","<div style=""font-size:60px;"">+</div>","null","","","","","","",""
"","","","","","audio-keyboard-response","476","2.0.0","1039520","psm2bkje7mx","mus","Manatee","21","Female","no","yes","1","3","null","stimuli/sounds/drum_sound_B.wav","null","","","","","","",""
"","","","","","html-keyboard-response","477","2.0.0","1040523","psm2bkje7mx","mus","Manatee","21","Female","no","yes","1","3","null","","null","","","","","","",""
"","","","","","image-keyboard-response","478","2.0.0","1041132","psm2bkje7mx","mus","Manatee","21","Female","no","yes","1","3","608","stimuli/pictures/drum_bongo_2.jpg","1","1","","true","yes","sound","stimuli/sounds/drum_sound_B.wav",""
"","","","","","audio-keyboard-response","479","2.0.0","1042135","psm2bkje7mx","mus","Manatee","21","Female","no","yes","1","3","null","stimuli/sounds/bleep.wav","null","","","","","","",""
"","","","","","html-keyboard-response","480","2.0.0","1043188","psm2bkje7mx","mus","Manatee","21","Female","no","yes","1","3","951","<div style=""font-size:30px;"">Press space to start the trial</div>"," ","","","","","","",""
"","","","","","html-keyboard-response","481","2.0.0","1043440","psm2bkje7mx","mus","Manatee","21","Female","no","yes","1","3","null","<div style=""font-size:60px;"">+</div>","null","","","","","","",""
"","","","","","audio-keyboard-response","482","2.0.0","1044048","psm2bkje7mx","mus","Manatee","21","Female","no","yes","1","3","null","stimuli/sounds/piano_sound_B.wav","null","","","","","","",""
"","","","","","html-keyboard-response","483","2.0.0","1045050","psm2bkje7mx","mus","Manatee","21","Female","no","yes","1","3","null","","null","","","","","","",""
"","","","","","image-keyboard-response","484","2.0.0","1045661","psm2bkje7mx","mus","Manatee","21","Female","no","yes","1","3","610","stimuli/pictures/flute_wooden_1.jpg","0","0","","true","no","sound","stimuli/sounds/piano_sound_B.wav",""
"","","","","","audio-keyboard-response","485","2.0.0","1046664","psm2bkje7mx","mus","Manatee","21","Female","no","yes","1","3","null","stimuli/sounds/bleep.wav","null","","","","","","",""
