"success","timeout","failed_images","failed_audio","failed_video","trial_type","trial_index","plugin_version","time_elapsed","random_id","condition","participant","age","gender_id","mus_exp","inst_exp","years_exp","mus_listening","rt","stimulus","response","correct_response","practice","correct","congruent","sound_type","audio","question_order"
"true","false","[]","[]","[]","preload","0","2.0.0","968","pssvz2ql31k","ono","A18552625","21","mae","no","no","0","1","","","","","","","","","",""
"","","","","","html-keyboard-response","1","2.0.0","2620","pssvz2ql31k","ono","A18552625","21","mae","no","no","0","1","1650","Welcome to the experiment! Press any key to begin.","Enter","","","","","","",""
"true","","","","","fullscreen","2","null","6464","pssvz2ql31k","ono","A18552625","21","mae","no","no","0","1","2841","","","","","","","","",""
"","","","","","survey-text","3","2.0.0","17168","pssvz2ql31k","ono","A18552625","21","mae","no","no","0","1","10678","","{""participant_id"":""A18552625""}","","","","","","",""
"","","","","","html-keyboard-response","4","2.0.0","22855","pssvz2ql31k","ono","A18552625","21","mae","no","no","0","1","5687","
    <p> Please use headphones for the duration of the study.</p>
    <p> Within each trial, you will hear a sound and then be presented with an image in the center of your screen.</p>
    <p>Press the <b>'1'</b> key if what you hear <u>matches</u> what you see.</p>
    <p>Press the <b>'0'</b> key if what you hear <u>does not match</u> what you see.</p>
    <p>Try to respond as quickly and accurately as you can.</p>
    <p> Press any key to begin.</p>
    ","Enter","","","","","","",""
"","","","","","html-keyboard-response","5","2.0.0","23887","pssvz2ql31k","ono","A18552625","21","mae","no","no","0","1","1031","
    <div style=""font-size:28px;"">
      <p>You will now complete 4 short practice trials.</p>
      <p>This is just to help you get familiar with the task.</p>
      <p>Press any key to begin.</p>
    </div>
  ","Enter","","","","","","",""
"","","","","","html-keyboard-response","6","2.0.0","24389","pssvz2ql31k","ono","A18552625","21","mae","no","no","0","1","null","<div style=""font-size:60px;"">+</div>","null","","","","","","",""
"","","","","","audio-keyboard-response","7","2.0.0","25263","pssvz2ql31k","ono","A18552625","21","mae","no","no","0","1","null","stimuli/sounds/guitar_label_A.wav","null","","","","","","",""
"","","","","","image-keyboard-response","8","2.0.0","25815","pssvz2ql31k","ono","A18552625","21","mae","no","no","0","1","548","stimuli/pictures/guitar_acoustic_1.jpg","1","1","true","true","","","",""
"","","","","","audio-keyboard-response","9","2.0.0","26617","pssvz2ql31k","ono","A18552625","21","mae","no","no","0","1","null","stimuli/sounds/bleep.wav","null","","","","","","",""
"","","","","","html-keyboard-response","10","2.0.0","27320","pssvz2ql31k","ono","A18552625","21","mae","no","no","0","1","null","<p style='color:green; font-size:30px;'>Correct!</p>","null","","","","","","",""
"","","","","","html-keyboard-response","11","2.0.0","27821","pssvz2ql31k","ono","A18552625","21","mae","no","no","0","1","null","<div style=""font-size:60px;"">+</div>","null","","","","","","",""
"","","","","","audio-keyboard-response","12","2.0.0","28420","pssvz2ql31k","ono","A18552625","21","mae","no","no","0","1","null","stimuli/sounds/guitar_sound_B.wav","null","","","","","","",""
"","","","","","image-keyboard-response","13","2.0.0","29153","pssvz2ql31k","ono","A18552625","21","mae","no","no","0","1","729","stimuli/pictures/guitar_acoustic_2.jpg","1","1","true","true","","","",""
"","","","","","audio-keyboard-response","14","2.0.0","29955","pssvz2ql31k","ono","A18552625","21","mae","no","no","0","1","null","stimuli/sounds/bleep.wav","null","","","","","","",""
"","","","","","html-keyboard-response","15","2.0.0","30656","pssvz2ql31k","ono","A18552625","21","mae","no","no","0","1","null","<p style='color:green; font-size:30px;'>Correct!</p>","null","","","","","","",""
"","","","","","html-keyboard-response","16","2.0.0","31158","pssvz2ql31k","ono","A18552625","21","mae","no","no","0","1","null","<div style=""font-size:60px;"">+</div>","null","","","","","","",""
"","","","","","audio-keyboard-response","17","2.0.0","31762","pssvz2ql31k","ono","A18552625","21","mae","no","no","0","1","null","stimuli/sounds/flute_sound_A.wav","null","","","","","","",""
"","","","","","image-keyboard-response","18","2.0.0","32567","pssvz2ql31k","ono","A18552625","21","mae","no","no","0","1","800","stimuli/pictures/guitar_electric_1.jpg","0","0","true","true","","","",""
"","","","","","audio-keyboard-response","19","2.0.0","33368","pssvz2ql31k","ono","A18552625","21","mae","no","no","0","1","null","stimuli/sounds/bleep.wav","null","","","","","","",""
"","","","","","html-keyboard-response","20","2.0.0","34069","pssvz2ql31k","ono","A18552625","21","mae","no","no","0","1","null","<p style='color:green; font-size:30px;'>Correct!</p>","null","","","","","","",""
"","","","","","html-keyboard-response","21","2.0.0","34571","pssvz2ql31k","ono","A18552625","21","mae","no","no","0","1","null","<div style=""font-size:60px;"">+</div>","null","","","","","","",""
"","","","","","audio-keyboard-response","22","2.0.0","35170","pssvz2ql31k","ono","A18552625","21","mae","no","no","0","1","null","stimuli/sounds/guitar_sound_A.wav","null","","","","","","",""
"","","","","","image-keyboard-response","23","2.0.0","36174","pssvz2ql31k","ono","A18552625","21","mae","no","no","0","1","1004","stimuli/pictures/guitar_acoustic_1.jpg","0","1","true","false","","","",""
"","","","","","audio-keyboard-response","24","2.0.0","36976","pssvz2ql31k","ono","A18552625","21","mae","no","no","0","1","null","stimuli/sounds/buzz.wav","null","","","","","","",""
"","","","","","html-keyboard-response","25","2.0.0","37677","pssvz2ql31k","ono","A18552625","21","mae","no","no","0","1","null","<p style='color:red; font-size:30px;'>Incorrect</p>","null","","","","","","",""
"","","","","","html-keyboard-response","26","2.0.0","48328","pssvz2ql31k","ono","A18552625","21","mae","no","no","0","1","10650","<p>Practice complete. Press any key to begin the real experiment.</p>"," ","","","","","","",""
"","","","","","html-keyboard-response","27","2.0.0","49669","pssvz2ql31k","ono","A18552625","21","mae","no","no","0","1","1341","<div style=""font-size:30px;"">Press space to start the trial</div>"," ","","","","","","",""
"","","","","","html-keyboard-response","28","2.0.0","49921","pssvz2ql31k","ono","A18552625","21","mae","no","no","0","1","null","<div style=""font-size:60px;"">+</div>","null","","","","","","",""
"","","","","","audio-keyboard-response","29","2.0.0","50527","pssvz2ql31k","ono","A18552625","21","mae","no","no","0","1","null","stimuli/sounds/drop_sound_B.wav","null","","","","","","",""
"","","","","","html-keyboard-response","30","2.0.0","51528","pssvz2ql31k","ono","A18552625","21","mae","no","no","0","1","null","","null","","","","","","",""
"","","","","","image-keyboard-response","31","2.0.0","52232","pssvz2ql31k","ono","A18552625","21","mae","no","no","0","1","700","stimuli/pictures/drop_multi_1.jpg","1","1","","true","yes","sound","stimuli/sounds/drop_sound_B.wav",""
"","","","","","audio-keyboard-response","32","2.0.0","53233","pssvz2ql31k","ono","A18552625","21","mae","no","no","0","1","null","stimuli/sounds/bleep.wav","null","","","","","","",""
"","","","","","html-keyboard-response","33","2.0.0","54332","pssvz2ql31k","ono","A18552625","21","mae","no","no","0","1","997","<div style=""font-size:30px;"">Press space to start the trial</div>"," ","","","","","","",""
"","","","","","html-keyboard-response","34","2.0.0","54584","pssvz2ql31k","ono","A18552625","21","mae","no","no","0","1","null","<div style=""font-size:60px;"">+</div>","null","","","","","","",""
"","","","","","audio-keyboard-response","35","2.0.0","55183","pssvz2ql31k","ono","A18552625","21","mae","no","no","0","1","null","stimuli/sounds/motor_sound_B.wav","null","","","","","","",""
"","","","","","html-keyboard-response","36","2.0.0","56184","pssvz2ql31k","ono","A18552625","21","mae","no","no","0","1","null","","null","","","","","","",""
"","","","","","image-keyboard-response","37","2.0.0","56949","pssvz2ql31k","ono","A18552625","21","mae","no","no","0","1","761","stimuli/pictures/motor_harley_1.jpg","1","1","","true","yes","sound","stimuli/sounds/motor_sound_B.wav",""
"","","","","","audio-keyboard-response","38","2.0.0","57951","pssvz2ql31k","ono","A18552625","21","mae","no","no","0","1","null","stimuli/sounds/bleep.wav","null","","","","","","",""
"","","","","","html-keyboard-response","39","2.0.0","58345","pssvz2ql31k","ono","A18552625","21","mae","no","no","0","1","293","<div style=""font-size:30px;"">Press space to start the trial</div>"," ","","","","","","",""
"","","","","","html-keyboard-response","40","2.0.0","58596","pssvz2ql31k","ono","A18552625","21","mae","no","no","0","1","null","<div style=""font-size:60px;"">+</div>","null","","","","","","",""
"","","","","","audio-keyboard-response","41","2.0.0","59196","pssvz2ql31k","ono","A18552625","21","mae","no","no","0","1","null","stimuli/sounds/motor_sound_B.wav","null","","","","","","",""
"","","","","","html-keyboard-response","42","2.0.0","60197","pssvz2ql31k","ono","A18552625","21","mae","no","no","0","1","null","","null","","","","","","",""
"","","","","","image-keyboard-response","43","2.0.0","60632","pssvz2ql31k","ono","A18552625","21","mae","no","no","0","1","430","stimuli/pictures/motor_dirt_2.jpg","1","1","","true","no","sound","stimuli/sounds/motor_sound_B.wav",""
"","","","","","audio-keyboard-response","44","2.0.0","61571","pssvz2ql31k","ono","A18552625","21","mae","no","no","0","1","939","stimuli/sounds/bleep.wav"," ","","","","","","",""
"","","","","","html-keyboard-response","45","2.0.0","61951","pssvz2ql31k","ono","A18552625","21","mae","no","no","0","1","278","<div style=""font-size:30px;"">Press space to start the trial</div>"," ","","","","","","",""
"","","","","","html-keyboard-response","46","2.0.0","62202","pssvz2ql31k","ono","A18552625","21","mae","no","no","0","1","null","<div style=""font-size:60px;"">+</div>","null","","","","","","",""
"","","","","","audio-keyboard-response","47","2.0.0","62810","pssvz2ql31k","ono","A18552625","21","mae","no","no","0","1","null","stimuli/sounds/cough_label_B.wav","null","","","","","","",""
"","","","","","html-keyboard-response","48","2.0.0","63811","pssvz2ql31k","ono","A18552625","21","mae","no","no","0","1","null","","null","","","","","","",""
"","","","","","image-keyboard-response","49","2.0.0","64551","pssvz2ql31k","ono","A18552625","21","mae","no","no","0","1","736","stimuli/pictures/drop_single_2.jpg","0","0","","true","no","sound","stimuli/sounds/cough_label_B.wav",""
"","","","","","audio-keyboard-response","50","2.0.0","65552","pssvz2ql31k","ono","A18552625","21","mae","no","no","0","1","null","stimuli/sounds/bleep.wav","null","","","","","","",""
"","","","","","html-keyboard-response","51","2.0.0","65947","pssvz2ql31k","ono","A18552625","21","mae","no","no","0","1","294","<div style=""font-size:30px;"">Press space to start the trial</div>"," ","","","","","","",""
"","","","","","html-keyboard-response","52","2.0.0","66199","pssvz2ql31k","ono","A18552625","21","mae","no","no","0","1","null","<div style=""font-size:60px;"">+</div>","null","","","","","","",""
"","","","","","audio-keyboard-response","53","2.0.0","66799","pssvz2ql31k","ono","A18552625","21","mae","no","no","0","1","null","stimuli/sounds/motor_sound_A.wav","null","","","","","","",""
"","","","","","html-keyboard-response","54","2.0.0","67800","pssvz2ql31k","ono","A18552625","21","mae","no","no","0","1","null","","null","","","","","","",""
"","","","","","image-keyboard-response","55","2.0.0","68673","pssvz2ql31k","ono","A18552625","21","mae","no","no","0","1","872","stimuli/pictures/motor_harley_1.jpg","1","1","","true","no","sound","stimuli/sounds/motor_sound_A.wav",""
"","","","","","audio-keyboard-response","56","2.0.0","69675","pssvz2ql31k","ono","A18552625","21","mae","no","no","0","1","null","stimuli/sounds/bleep.wav","null","","","","","","",""
"","","","","","html-keyboard-response","57","2.0.0","69876","pssvz2ql31k","ono","A18552625","21","mae","no","no","0","1","100","<div style=""font-size:30px;"">Press space to start the trial</div>"," ","","","","","","",""
"","","","","","html-keyboard-response","58","2.0.0","70127","pssvz2ql31k","ono","A18552625","21","mae","no","no","0","1","null","<div style=""font-size:60px;"">+</div>","null","","","","","","",""
"","","","","","audio-keyboard-response","59","2.0.0","70676","pssvz2ql31k","ono","A18552625","21","mae","no","no","0","1","null","stimuli/sounds/drop_label_A.wav","null","","","","","","",""
"","","","","","html-keyboard-response","60","2.0.0","71678","pssvz2ql31k","ono","A18552625","21","mae","no","no","0","1","null","","null","","","","","","",""
"","","","","","image-keyboard-response","61","2.0.0","72628","pssvz2ql31k","ono","A18552625","21","mae","no","no","0","1","950","stimuli/pictures/drop_single_2.jpg","1","1","","true","yes","sound","stimuli/sounds/drop_label_A.wav",""
"","","","","","audio-keyboard-response","62","2.0.0","73630","pssvz2ql31k","ono","A18552625","21","mae","no","no","0","1","null","stimuli/sounds/bleep.wav","null","","","","","","",""
"","","","","","html-keyboard-response","63","2.0.0","73959","pssvz2ql31k","ono","A18552625","21","mae","no","no","0","1","227","<div style=""font-size:30px;"">Press space to start the trial</div>"," ","","","","","","",""
"","","","","","html-keyboard-response","64","2.0.0","74210","pssvz2ql31k","ono","A18552625","21","mae","no","no","0","1","null","<div style=""font-size:60px;"">+</div>","null","","","","","","",""
"","","","","","audio-keyboard-response","65","2.0.0","74810","pssvz2ql31k","ono","A18552625","21","mae","no","no","0","1","null","stimuli/sounds/motor_label_A.wav","null","","","","","","",""
"","","","","","html-keyboard-response","66","2.0.0","75811","pssvz2ql31k","ono","A18552625","21","mae","no","no","0","1","null","","null","","","","","","",""
"","","","","","image-keyboard-response","67","2.0.0","76243","pssvz2ql31k","ono","A18552625","21","mae","no","no","0","1","428","stimuli/pictures/motor_harley_2.jpg","1","1","","true","yes","sound","stimuli/sounds/motor_label_A.wav",""
"","","","","","audio-keyboard-response","68","2.0.0","77244","pssvz2ql31k","ono","A18552625","21","mae","no","no","0","1","null","stimuli/sounds/bleep.wav","null","","","","","","",""
"","","","","","html-keyboard-response","69","2.0.0","78954","pssvz2ql31k","ono","A18552625","21","mae","no","no","0","1","1609","<div style=""font-size:30px;"">Press space to start the trial</div>"," ","","","","","","",""
"","","","","","html-keyboard-response","70","2.0.0","79205","pssvz2ql31k","ono","A18552625","21","mae","no","no","0","1","null","<div style=""font-size:60px;"">+</div>","null","","","","","","",""
"","","","","","audio-keyboard-response","71","2.0.0","79807","pssvz2ql31k","ono","A18552625","21","mae","no","no","0","1","null","stimuli/sounds/dog_sound_B.wav","null","","","","","","",""
"","","","","","html-keyboard-response","72","2.0.0","80807","pssvz2ql31k","ono","A18552625","21","mae","no","no","0","1","null","","null","","","","","","",""
"","","","","","image-keyboard-response","73","2.0.0","81382","pssvz2ql31k","ono","A18552625","21","mae","no","no","0","1","572","stimuli/pictures/motor_dirt_1.jpg","0","0","","true","no","sound","stimuli/sounds/dog_sound_B.wav",""
"","","","","","audio-keyboard-response","74","2.0.0","82384","pssvz2ql31k","ono","A18552625","21","mae","no","no","0","1","null","stimuli/sounds/bleep.wav","null","","","","","","",""
"","","","","","html-keyboard-response","75","2.0.0","82620","pssvz2ql31k","ono","A18552625","21","mae","no","no","0","1","134","<div style=""font-size:30px;"">Press space to start the trial</div>"," ","","","","","","",""
"","","","","","html-keyboard-response","76","2.0.0","82871","pssvz2ql31k","ono","A18552625","21","mae","no","no","0","1","null","<div style=""font-size:60px;"">+</div>","null","","","","","","",""
"","","","","","audio-keyboard-response","77","2.0.0","83471","pssvz2ql31k","ono","A18552625","21","mae","no","no","0","1","null","stimuli/sounds/motor_sound_A.wav","null","","","","","","",""
"","","","","","html-keyboard-response","78","2.0.0","84472","pssvz2ql31k","ono","A18552625","21","mae","no","no","0","1","null","","null","","","","","","",""
"","","","","","image-keyboard-response","79","2.0.0","85136","pssvz2ql31k","ono","A18552625","21","mae","no","no","0","1","660","stimuli/pictures/drop_multi_2.jpg","0","0","","true","no","sound","stimuli/sounds/motor_sound_A.wav",""
"","","","","","audio-keyboard-response","80","2.0.0","86137","pssvz2ql31k","ono","A18552625","21","mae","no","no","0","1","null","stimuli/sounds/bleep.wav","null","","","","","","",""
"","","","","","html-keyboard-response","81","2.0.0","86351","pssvz2ql31k","ono","A18552625","21","mae","no","no","0","1","112","<div style=""font-size:30px;"">Press space to start the trial</div>"," ","","","","","","",""
"","","","","","html-keyboard-response","82","2.0.0","86602","pssvz2ql31k","ono","A18552625","21","mae","no","no","0","1","null","<div style=""font-size:60px;"">+</div>","null","","","","","","",""
"","","","","","audio-keyboard-response","83","2.0.0","87204","pssvz2ql31k","ono","A18552625","21","mae","no","no","0","1","null","stimuli/sounds/dog_sound_A.wav","null","","","","","","",""
"","","","","","html-keyboard-response","84","2.0.0","88206","pssvz2ql31k","ono","A18552625","21","mae","no","no","0","1","null","","null","","","","","","",""
"","","","","","image-keyboard-response","85","2.0.0","89114","pssvz2ql31k","ono","A18552625","21","mae","no","no","0","1","906","stimuli/pictures/hiccup_man_2.jpg","0","0","","true","no","sound","stimuli/sounds/dog_sound_A.wav",""
"","","","","","audio-keyboard-response","86","2.0.0","90116","pssvz2ql31k","ono","A18552625","21","mae","no","no","0","1","null","stimuli/sounds/bleep.wav","null","","","","","","",""
"","","","","","html-keyboard-response","87","2.0.0","90322","pssvz2ql31k","ono","A18552625","21","mae","no","no","0","1","105","<div style=""font-size:30px;"">Press space to start the trial</div>"," ","","","","","","",""
"","","","","","html-keyboard-response","88","2.0.0","90573","pssvz2ql31k","ono","A18552625","21","mae","no","no","0","1","null","<div style=""font-size:60px;"">+</div>","null","","","","","","",""
"","","","","","audio-keyboard-response","89","2.0.0","91172","pssvz2ql31k","ono","A18552625","21","mae","no","no","0","1","null","stimuli/sounds/dog_label_A.wav","null","","","","","","",""
"","","","","","html-keyboard-response","90","2.0.0","92174","pssvz2ql31k","ono","A18552625","21","mae","no","no","0","1","null","","null","","","","","","",""
"","","","","","image-keyboard-response","91","2.0.0","92787","pssvz2ql31k","ono","A18552625","21","mae","no","no","0","1","611","stimuli/pictures/drop_single_1.jpg","0","0","","true","no","sound","stimuli/sounds/dog_label_A.wav",""
"","","","","","audio-keyboard-response","92","2.0.0","93788","pssvz2ql31k","ono","A18552625","21","mae","no","no","0","1","null","stimuli/sounds/bleep.wav","null","","","","","","",""
"","","","","","html-keyboard-response","93","2.0.0","93970","pssvz2ql31k","ono","A18552625","21","mae","no","no","0","1","80","<div style=""font-size:30px;"">Press space to start the trial</div>"," ","","","","","","",""
"","","","","","html-keyboard-response","94","2.0.0","94222","pssvz2ql31k","ono","A18552625","21","mae","no","no","0","1","null","<div style=""font-size:60px;"">+</div>","null","","","","","","",""
"","","","","","audio-keyboard-response","95","2.0.0","94828","pssvz2ql31k","ono","A18552625","21","mae","no","no","0","1","null","stimuli/sounds/hiccup_label_B.wav","null","","","","","","",""
"","","","","","html-keyboard-response","96","2.0.0","95830","pssvz2ql31k","ono","A18552625","21","mae","no","no","0","1","null","","null","","","","","","",""
"","","","","","image-keyboard-response","97","2.0.0","96655","pssvz2ql31k","ono","A18552625","21","mae","no","no","0","1","818","stimuli/pictures/dog_york_2.jpg","0","0","","true","no","sound","stimuli/sounds/hiccup_label_B.wav",""
"","","","","","audio-keyboard-response","98","2.0.0","97656","pssvz2ql31k","ono","A18552625","21","mae","no","no","0","1","null","stimuli/sounds/bleep.wav","null","","","","","","",""
"","","","","","html-keyboard-response","99","2.0.0","97795","pssvz2ql31k","ono","A18552625","21","mae","no","no","0","1","38","<div style=""font-size:30px;"">Press space to start the trial</div>"," ","","","","","","",""
"","","","","","html-keyboard-response","100","2.0.0","98046","pssvz2ql31k","ono","A18552625","21","mae","no","no","0","1","null","<div style=""font-size:60px;"">+</div>","null","","","","","","",""
"","","","","","audio-keyboard-response","101","2.0.0","98596","pssvz2ql31k","ono","A18552625","21","mae","no","no","0","1","null","stimuli/sounds/drop_label_A.wav","null","","","","","","",""
"","","","","","html-keyboard-response","102","2.0.0","99598","pssvz2ql31k","ono","A18552625","21","mae","no","no","0","1","null","","null","","","","","","",""
"","","","","","image-keyboard-response","103","2.0.0","100068","pssvz2ql31k","ono","A18552625","21","mae","no","no","0","1","469","stimuli/pictures/hiccup_man_2.jpg","0","0","","true","no","sound","stimuli/sounds/drop_label_A.wav",""
"","","","","","audio-keyboard-response","104","2.0.0","101070","pssvz2ql31k","ono","A18552625","21","mae","no","no","0","1","null","stimuli/sounds/bleep.wav","null","","","","","","",""
"","","","","","html-keyboard-response","105","2.0.0","101320","pssvz2ql31k","ono","A18552625","21","mae","no","no","0","1","150","<div style=""font-size:30px;"">Press space to start the trial</div>"," ","","","","","","",""
"","","","","","html-keyboard-response","106","2.0.0","101572","pssvz2ql31k","ono","A18552625","21","mae","no","no","0","1","null","<div style=""font-size:60px;"">+</div>","null","","","","","","",""
"","","","","","audio-keyboard-response","107","2.0.0","102236","pssvz2ql31k","ono","A18552625","21","mae","no","no","0","1","null","stimuli/sounds/cough_sound_A.wav","null","","","","","","",""
"","","","","","html-keyboard-response","108","2.0.0","103237","pssvz2ql31k","ono","A18552625","21","mae","no","no","0","1","null","","null","","","","","","",""
"","","","","","image-keyboard-response","109","2.0.0","103835","pssvz2ql31k","ono","A18552625","21","mae","no","no","0","1","595","stimuli/pictures/cough_wom_2.jpg","1","1","","true","yes","sound","stimuli/sounds/cough_sound_A.wav",""
"","","","","","audio-keyboard-response","110","2.0.0","104836","pssvz2ql31k","ono","A18552625","21","mae","no","no","0","1","null","stimuli/sounds/bleep.wav","null","","","","","","",""
"","","","","","html-keyboard-response","111","2.0.0","105024","pssvz2ql31k","ono","A18552625","21","mae","no","no","0","1","88","<div style=""font-size:30px;"">Press space to start the trial</div>"," ","","","","","","",""
"","","","","","html-keyboard-response","112","2.0.0","105276","pssvz2ql31k","ono","A18552625","21","mae","no","no","0","1","null","<div style=""font-size:60px;"">+</div>","null","","","","","","",""
"","","","","","audio-keyboard-response","113","2.0.0","105876","pssvz2ql31k","ono","A18552625","21","mae","no","no","0","1","null","stimuli/sounds/motor_label_A.wav","null","","","","","","",""
"","","","","","html-keyboard-response","114","2.0.0","106877","pssvz2ql31k","ono","A18552625","21","mae","no","no","0","1","null","","null","","","","","","",""
"","","","","","image-keyboard-response","115","2.0.0","107476","pssvz2ql31k","ono","A18552625","21","mae","no","no","0","1","594","stimuli/pictures/dog_rott_1.jpg","0","0","","true","no","sound","stimuli/sounds/motor_label_A.wav",""
"","","","","","audio-keyboard-response","116","2.0.0","108477","pssvz2ql31k","ono","A18552625","21","mae","no","no","0","1","null","stimuli/sounds/bleep.wav","null","","","","","","",""
"","","","","","html-keyboard-response","117","2.0.0","108621","pssvz2ql31k","ono","A18552625","21","mae","no","no","0","1","43","<div style=""font-size:30px;"">Press space to start the trial</div>"," ","","","","","","",""
"","","","","","html-keyboard-response","118","2.0.0","108873","pssvz2ql31k","ono","A18552625","21","mae","no","no","0","1","null","<div style=""font-size:60px;"">+</div>","null","","","","","","",""
"","","","","","audio-keyboard-response","119","2.0.0","109471","pssvz2ql31k","ono","A18552625","21","mae","no","no","0","1","null","stimuli/sounds/dog_label_B.wav","null","","","","","","",""
"","","","","","html-keyboard-response","120","2.0.0","110472","pssvz2ql31k","ono","A18552625","21","mae","no","no","0","1","null","","null","","","","","","",""
"","","","","","image-keyboard-response","121","2.0.0","110943","pssvz2ql31k","ono","A18552625","21","mae","no","no","0","1","468","stimuli/pictures/dog_rott_2.jpg","1","1","","true","yes","sound","stimuli/sounds/dog_label_B.wav",""
"","","","","","audio-keyboard-response","122","2.0.0","111945","pssvz2ql31k","ono","A18552625","21","mae","no","no","0","1","null","stimuli/sounds/bleep.wav","null","","","","","","",""
"","","","","","html-keyboard-response","123","2.0.0","112361","pssvz2ql31k","ono","A18552625","21","mae","no","no","0","1","315","<div style=""font-size:30px;"">Press space to start the trial</div>"," ","","","","","","",""
"","","","","","html-keyboard-response","124","2.0.0","112612","pssvz2ql31k","ono","A18552625","21","mae","no","no","0","1","null","<div style=""font-size:60px;"">+</div>","null","","","","","","",""
"","","","","","audio-keyboard-response","125","2.0.0","113215","pssvz2ql31k","ono","A18552625","21","mae","no","no","0","1","null","stimuli/sounds/dog_sound_B.wav","null","","","","","","",""
"","","","","","html-keyboard-response","126","2.0.0","114217","pssvz2ql31k","ono","A18552625","21","mae","no","no","0","1","null","","null","","","","","","",""
"","","","","","image-keyboard-response","127","2.0.0","114867","pssvz2ql31k","ono","A18552625","21","mae","no","no","0","1","649","stimuli/pictures/motor_harley_1.jpg","0","0","","true","no","sound","stimuli/sounds/dog_sound_B.wav",""
"","","","","","audio-keyboard-response","128","2.0.0","115868","pssvz2ql31k","ono","A18552625","21","mae","no","no","0","1","null","stimuli/sounds/bleep.wav","null","","","","","","",""
"","","","","","html-keyboard-response","129","2.0.0","116104","pssvz2ql31k","ono","A18552625","21","mae","no","no","0","1","135","<div style=""font-size:30px;"">Press space to start the trial</div>"," ","","","","","","",""
"","","","","","html-keyboard-response","130","2.0.0","116356","pssvz2ql31k","ono","A18552625","21","mae","no","no","0","1","null","<div style=""font-size:60px;"">+</div>","null","","","","","","",""
"","","","","","audio-keyboard-response","131","2.0.0","116956","pssvz2ql31k","ono","A18552625","21","mae","no","no","0","1","null","stimuli/sounds/motor_sound_A.wav","null","","","","","","",""
"","","","","","html-keyboard-response","132","2.0.0","117958","pssvz2ql31k","ono","A18552625","21","mae","no","no","0","1","null","","null","","","","","","",""
"","","","","","image-keyboard-response","133","2.0.0","118441","pssvz2ql31k","ono","A18552625","21","mae","no","no","0","1","482","stimuli/pictures/motor_harley_2.jpg","1","1","","true","no","sound","stimuli/sounds/motor_sound_A.wav",""
"","","","","","audio-keyboard-response","134","2.0.0","119443","pssvz2ql31k","ono","A18552625","21","mae","no","no","0","1","null","stimuli/sounds/bleep.wav","null","","","","","","",""
"","","","","","html-keyboard-response","135","2.0.0","119702","pssvz2ql31k","ono","A18552625","21","mae","no","no","0","1","159","<div style=""font-size:30px;"">Press space to start the trial</div>"," ","","","","","","",""
"","","","","","html-keyboard-response","136","2.0.0","119953","pssvz2ql31k","ono","A18552625","21","mae","no","no","0","1","null","<div style=""font-size:60px;"">+</div>","null","","","","","","",""
"","","","","","audio-keyboard-response","137","2.0.0","120618","pssvz2ql31k","ono","A18552625","21","mae","no","no","0","1","null","stimuli/sounds/cough_sound_A.wav","null","","","","","","",""
"","","","","","html-keyboard-response","138","2.0.0","121619","pssvz2ql31k","ono","A18552625","21","mae","no","no","0","1","null","","null","","","","","","",""
"","","","","","image-keyboard-response","139","2.0.0","122235","pssvz2ql31k","ono","A18552625","21","mae","no","no","0","1","613","stimuli/pictures/cough_man_1.jpg","1","1","","true","no","sound","stimuli/sounds/cough_sound_A.wav",""
"","","","","","audio-keyboard-response","140","2.0.0","123236","pssvz2ql31k","ono","A18552625","21","mae","no","no","0","1","null","stimuli/sounds/bleep.wav","null","","","","","","",""
"","","","","","html-keyboard-response","141","2.0.0","123361","pssvz2ql31k","ono","A18552625","21","mae","no","no","0","1","24","<div style=""font-size:30px;"">Press space to start the trial</div>"," ","","","","","","",""
"","","","","","html-keyboard-response","142","2.0.0","123611","pssvz2ql31k","ono","A18552625","21","mae","no","no","0","1","null","<div style=""font-size:60px;"">+</div>","null","","","","","","",""
"","","","","","audio-keyboard-response","143","2.0.0","124210","pssvz2ql31k","ono","A18552625","21","mae","no","no","0","1","null","stimuli/sounds/motor_sound_A.wav","null","","","","","","",""
"","","","","","html-keyboard-response","144","2.0.0","125211","pssvz2ql31k","ono","A18552625","21","mae","no","no","0","1","null","","null","","","","","","",""
"","","","","","image-keyboard-response","145","2.0.0","126179","pssvz2ql31k","ono","A18552625","21","mae","no","no","0","1","967","stimuli/pictures/drop_single_2.jpg","0","0","","true","no","sound","stimuli/sounds/motor_sound_A.wav",""
"","","","","","audio-keyboard-response","146","2.0.0","127180","pssvz2ql31k","ono","A18552625","21","mae","no","no","0","1","null","stimuli/sounds/bleep.wav","null","","","","","","",""
"","","","","","html-keyboard-response","147","2.0.0","133092","pssvz2ql31k","ono","A18552625","21","mae","no","no","0","1","5810","<p>You have completed a block. Press R when you are ready to continue</p>","r","","","","","","",""
"","","","","","html-keyboard-response","148","2.0.0","134241","pssvz2ql31k","ono","A18552625","21","mae","no","no","0","1","1148","<div style=""font-size:30px;"">Press space to start the trial</div>"," ","","","","","","",""
"","","","","","html-keyboard-response","149","2.0.0","134492","pssvz2ql31k","ono","A18552625","21","mae","no","no","0","1","null","<div style=""font-size:60px;"">+</div>","null","","","","","","",""
"","","","","","audio-keyboard-response","150","2.0.0","135098","pssvz2ql31k","ono","A18552625","21","mae","no","no","0","1","null","stimuli/sounds/hiccup_sound_A.wav","null","","","","","","",""
"","","","","","html-keyboard-response","151","2.0.0","136098","pssvz2ql31k","ono","A18552625","21","mae","no","no","0","1","null","","null","","","","","","",""
"","","","","","image-keyboard-response","152","2.0.0","136688","pssvz2ql31k","ono","A18552625","21","mae","no","no","0","1","589","stimuli/pictures/motor_dirt_1.jpg","0","0","","true","no","sound","stimuli/sounds/hiccup_sound_A.wav",""
"","","","","","audio-keyboard-response","153","2.0.0","137690","pssvz2ql31k","ono","A18552625","21","mae","no","no","0","1","null","stimuli/sounds/bleep.wav","null","","","","","","",""
"","","","","","html-keyboard-response","154","2.0.0","138222","pssvz2ql31k","ono","A18552625","21","mae","no","no","0","1","432","<div style=""font-size:30px;"">Press space to start the trial</div>"," ","","","","","","",""
"","","","","","html-keyboard-response","155","2.0.0","138474","pssvz2ql31k","ono","A18552625","21","mae","no","no","0","1","null","<div style=""font-size:60px;"">+</div>","null","","","","","","",""
"","","","","","audio-keyboard-response","156","2.0.0","139074","pssvz2ql31k","ono","A18552625","21","mae","no","no","0","1","null","stimuli/sounds/dog_label_A.wav","null","","","","","","",""
"","","","","","html-keyboard-response","157","2.0.0","140075","pssvz2ql31k","ono","A18552625","21","mae","no","no","0","1","null","","null","","","","","","",""
"","","","","","image-keyboard-response","158","2.0.0","140519","pssvz2ql31k","ono","A18552625","21","mae","no","no","0","1","442","stimuli/pictures/dog_rott_1.jpg","1","1","","true","yes","sound","stimuli/sounds/dog_label_A.wav",""
"","","","","","audio-keyboard-response","159","2.0.0","141520","pssvz2ql31k","ono","A18552625","21","mae","no","no","0","1","null","stimuli/sounds/bleep.wav","null","","","","","","",""
"","","","","","html-keyboard-response","160","2.0.0","141710","pssvz2ql31k","ono","A18552625","21","mae","no","no","0","1","89","<div style=""font-size:30px;"">Press space to start the trial</div>"," ","","","","","","",""
"","","","","","html-keyboard-response","161","2.0.0","141961","pssvz2ql31k","ono","A18552625","21","mae","no","no","0","1","null","<div style=""font-size:60px;"">+</div>","null","","","","","","",""
"","","","","","audio-keyboard-response","162","2.0.0","142594","pssvz2ql31k","ono","A18552625","21","mae","no","no","0","1","null","stimuli/sounds/cough_label_A.wav","null","","","","","","",""
"","","","","","html-keyboard-response","163","2.0.0","143595","pssvz2ql31k","ono","A18552625","21","mae","no","no","0","1","null","","null","","","","","","",""
"","","","","","image-keyboard-response","164","2.0.0","144108","pssvz2ql31k","ono","A18552625","21","mae","no","no","0","1","512","stimuli/pictures/motor_dirt_1.jpg","0","0","","true","no","sound","stimuli/sounds/cough_label_A.wav",""
"","","","","","audio-keyboard-response","165","2.0.0","145108","pssvz2ql31k","ono","A18552625","21","mae","no","no","0","1","null","stimuli/sounds/bleep.wav","null","","","","","","",""
"","","","","","html-keyboard-response","166","2.0.0","145568","pssvz2ql31k","ono","A18552625","21","mae","no","no","0","1","358","<div style=""font-size:30px;"">Press space to start the trial</div>"," ","","","","","","",""
"","","","","","html-keyboard-response","167","2.0.0","145819","pssvz2ql31k","ono","A18552625","21","mae","no","no","0","1","null","<div style=""font-size:60px;"">+</div>","null","","","","","","",""
"","","","","","audio-keyboard-response","168","2.0.0","146418","pssvz2ql31k","ono","A18552625","21","mae","no","no","0","1","null","stimuli/sounds/motor_label_A.wav","null","","","","","","",""
"","","","","","html-keyboard-response","169","2.0.0","147419","pssvz2ql31k","ono","A18552625","21","mae","no","no","0","1","null","","null","","","","","","",""
"","","","","","image-keyboard-response","170","2.0.0","148151","pssvz2ql31k","ono","A18552625","21","mae","no","no","0","1","730","stimuli/pictures/dog_rott_1.jpg","0","0","","true","no","sound","stimuli/sounds/motor_label_A.wav",""
"","","","","","audio-keyboard-response","171","2.0.0","149154","pssvz2ql31k","ono","A18552625","21","mae","no","no","0","1","null","stimuli/sounds/bleep.wav","null","","","","","","",""
"","","","","","html-keyboard-response","172","2.0.0","149282","pssvz2ql31k","ono","A18552625","21","mae","no","no","0","1","27","<div style=""font-size:30px;"">Press space to start the trial</div>"," ","","","","","","",""
"","","","","","html-keyboard-response","173","2.0.0","149534","pssvz2ql31k","ono","A18552625","21","mae","no","no","0","1","null","<div style=""font-size:60px;"">+</div>","null","","","","","","",""
"","","","","","audio-keyboard-response","174","2.0.0","150138","pssvz2ql31k","ono","A18552625","21","mae","no","no","0","1","null","stimuli/sounds/hiccup_sound_A.wav","null","","","","","","",""
"","","","","","html-keyboard-response","175","2.0.0","151139","pssvz2ql31k","ono","A18552625","21","mae","no","no","0","1","null","","null","","","","","","",""
"","","","","","image-keyboard-response","176","2.0.0","152075","pssvz2ql31k","ono","A18552625","21","mae","no","no","0","1","931","stimuli/pictures/hiccup_wom_1.jpg","1","1","","true","yes","sound","stimuli/sounds/hiccup_sound_A.wav",""
"","","","","","audio-keyboard-response","177","2.0.0","153077","pssvz2ql31k","ono","A18552625","21","mae","no","no","0","1","null","stimuli/sounds/bleep.wav","null","","","","","","",""
"","","","","","html-keyboard-response","178","2.0.0","153295","pssvz2ql31k","ono","A18552625","21","mae","no","no","0","1","116","<div style=""font-size:30px;"">Press space to start the trial</div>"," ","","","","","","",""
"","","","","","html-keyboard-response","179","2.0.0","153546","pssvz2ql31k","ono","A18552625","21","mae","no","no","0","1","null","<div style=""font-size:60px;"">+</div>","null","","","","","","",""
"","","","","","audio-keyboard-response","180","2.0.0","154095","pssvz2ql31k","ono","A18552625","21","mae","no","no","0","1","null","stimuli/sounds/drop_label_A.wav","null","","","","","","",""
"","","","","","html-keyboard-response","181","2.0.0","155096","pssvz2ql31k","ono","A18552625","21","mae","no","no","0","1","null","","null","","","","","","",""
"","","","","","image-keyboard-response","182","2.0.0","155751","pssvz2ql31k","ono","A18552625","21","mae","no","no","0","1","653","stimuli/pictures/hiccup_wom_1.jpg","0","0","","true","no","sound","stimuli/sounds/drop_label_A.wav",""
"","","","","","audio-keyboard-response","183","2.0.0","156753","pssvz2ql31k","ono","A18552625","21","mae","no","no","0","1","null","stimuli/sounds/bleep.wav","null","","","","","","",""
"","","","","","html-keyboard-response","184","2.0.0","156961","pssvz2ql31k","ono","A18552625","21","mae","no","no","0","1","108","<div style=""font-size:30px;"">Press space to start the trial</div>"," ","","","","","","",""
"","","","","","html-keyboard-response","185","2.0.0","157212","pssvz2ql31k","ono","A18552625","21","mae","no","no","0","1","null","<div style=""font-size:60px;"">+</div>","null","","","","","","",""
"","","","","","audio-keyboard-response","186","2.0.0","157812","pssvz2ql31k","ono","A18552625","21","mae","no","no","0","1","null","stimuli/sounds/dog_label_B.wav","null","","","","","","",""
"","","","","","html-keyboard-response","187","2.0.0","158813","pssvz2ql31k","ono","A18552625","21","mae","no","no","0","1","null","","null","","","","","","",""
"","","","","","image-keyboard-response","188","2.0.0","159414","pssvz2ql31k","ono","A18552625","21","mae","no","no","0","1","599","stimuli/pictures/cough_man_2.jpg","0","0","","true","no","sound","stimuli/sounds/dog_label_B.wav",""
"","","","","","audio-keyboard-response","189","2.0.0","160415","pssvz2ql31k","ono","A18552625","21","mae","no","no","0","1","null","stimuli/sounds/bleep.wav","null","","","","","","",""
"","","","","","html-keyboard-response","190","2.0.0","160822","pssvz2ql31k","ono","A18552625","21","mae","no","no","0","1","307","<div style=""font-size:30px;"">Press space to start the trial</div>"," ","","","","","","",""
"","","","","","html-keyboard-response","191","2.0.0","161074","pssvz2ql31k","ono","A18552625","21","mae","no","no","0","1","null","<div style=""font-size:60px;"">+</div>","null","","","","","","",""
"","","","","","audio-keyboard-response","192","2.0.0","161676","pssvz2ql31k","ono","A18552625","21","mae","no","no","0","1","null","stimuli/sounds/dog_sound_A.wav","null","","","","","","",""
"","","","","","html-keyboard-response","193","2.0.0","162678","pssvz2ql31k","ono","A18552625","21","mae","no","no","0","1","null","","null","","","","","","",""
"","","","","","image-keyboard-response","194","2.0.0","163336","pssvz2ql31k","ono","A18552625","21","mae","no","no","0","1","654","stimuli/pictures/hiccup_wom_2.jpg","0","0","","true","no","sound","stimuli/sounds/dog_sound_A.wav",""
"","","","","","audio-keyboard-response","195","2.0.0","164337","pssvz2ql31k","ono","A18552625","21","mae","no","no","0","1","null","stimuli/sounds/bleep.wav","null","","","","","","",""
"","","","","","html-keyboard-response","196","2.0.0","164474","pssvz2ql31k","ono","A18552625","21","mae","no","no","0","1","36","<div style=""font-size:30px;"">Press space to start the trial</div>"," ","","","","","","",""
"","","","","","html-keyboard-response","197","2.0.0","164725","pssvz2ql31k","ono","A18552625","21","mae","no","no","0","1","null","<div style=""font-size:60px;"">+</div>","null","","","","","","",""
"","","","","","audio-keyboard-response","198","2.0.0","165263","pssvz2ql31k","ono","A18552625","21","mae","no","no","0","1","null","stimuli/sounds/hiccup_label_A.wav","null","","","","","","",""
"","","","","","html-keyboard-response","199","2.0.0","166264","pssvz2ql31k","ono","A18552625","21","mae","no","no","0","1","null","","null","","","","","","",""
"","","","","","image-keyboard-response","200","2.0.0","167640","pssvz2ql31k","ono","A18552625","21","mae","no","no","0","1","1373","stimuli/pictures/cough_wom_1.jpg","0","0","","true","no","sound","stimuli/sounds/hiccup_label_A.wav",""
"","","","","","audio-keyboard-response","201","2.0.0","168642","pssvz2ql31k","ono","A18552625","21","mae","no","no","0","1","null","stimuli/sounds/bleep.wav","null","","","","","","",""
"","","","","","html-keyboard-response","202","2.0.0","168854","pssvz2ql31k","ono","A18552625","21","mae","no","no","0","1","112","<div style=""font-size:30px;"">Press space to start the trial</div>"," ","","","","","","",""
"","","","","","html-keyboard-response","203","2.0.0","169106","pssvz2ql31k","ono","A18552625","21","mae","no","no","0","1","null","<div style=""font-size:60px;"">+</div>","null","","","","","","",""
"","","","","","audio-keyboard-response","204","2.0.0","169706","pssvz2ql31k","ono","A18552625","21","mae","no","no","0","1","null","stimuli/sounds/motor_label_A.wav","null","","","","","","",""
"","","","","","html-keyboard-response","205","2.0.0","170707","pssvz2ql31k","ono","A18552625","21","mae","no","no","0","1","null","","null","","","","","","",""
"","","","","","image-keyboard-response","206","2.0.0","171273","pssvz2ql31k","ono","A18552625","21","mae","no","no","0","1","561","stimuli/pictures/dog_york_1.jpg","0","0","","true","no","sound","stimuli/sounds/motor_label_A.wav",""
"","","","","","audio-keyboard-response","207","2.0.0","172274","pssvz2ql31k","ono","A18552625","21","mae","no","no","0","1","null","stimuli/sounds/bleep.wav","null","","","","","","",""
"","","","","","html-keyboard-response","208","2.0.0","172491","pssvz2ql31k","ono","A18552625","21","mae","no","no","0","1","116","<div style=""font-size:30px;"">Press space to start the trial</div>"," ","","","","","","",""
"","","","","","html-keyboard-response","209","2.0.0","172743","pssvz2ql31k","ono","A18552625","21","mae","no","no","0","1","null","<div style=""font-size:60px;"">+</div>","null","","","","","","",""
"","","","","","audio-keyboard-response","210","2.0.0","173343","pssvz2ql31k","ono","A18552625","21","mae","no","no","0","1","null","stimuli/sounds/dog_label_A.wav","null","","","","","","",""
"","","","","","html-keyboard-response","211","2.0.0","174344","pssvz2ql31k","ono","A18552625","21","mae","no","no","0","1","null","","null","","","","","","",""
"","","","","","image-keyboard-response","212","2.0.0","174839","pssvz2ql31k","ono","A18552625","21","mae","no","no","0","1","493","stimuli/pictures/drop_multi_1.jpg","0","0","","true","no","sound","stimuli/sounds/dog_label_A.wav",""
"","","","","","audio-keyboard-response","213","2.0.0","175840","pssvz2ql31k","ono","A18552625","21","mae","no","no","0","1","null","stimuli/sounds/bleep.wav","null","","","","","","",""
"","","","","","html-keyboard-response","214","2.0.0","176090","pssvz2ql31k","ono","A18552625","21","mae","no","no","0","1","148","<div style=""font-size:30px;"">Press space to start the trial</div>"," ","","","","","","",""
"","","","","","html-keyboard-response","215","2.0.0","176341","pssvz2ql31k","ono","A18552625","21","mae","no","no","0","1","null","<div style=""font-size:60px;"">+</div>","null","","","","","","",""
"","","","","","audio-keyboard-response","216","2.0.0","176948","pssvz2ql31k","ono","A18552625","21","mae","no","no","0","1","null","stimuli/sounds/hiccup_label_B.wav","null","","","","","","",""
"","","","","","html-keyboard-response","217","2.0.0","177950","pssvz2ql31k","ono","A18552625","21","mae","no","no","0","1","null","","null","","","","","","",""
"","","","","","image-keyboard-response","218","2.0.0","178764","pssvz2ql31k","ono","A18552625","21","mae","no","no","0","1","814","stimuli/pictures/hiccup_wom_2.jpg","1","1","","true","yes","sound","stimuli/sounds/hiccup_label_B.wav",""
"","","","","","audio-keyboard-response","219","2.0.0","179765","pssvz2ql31k","ono","A18552625","21","mae","no","no","0","1","null","stimuli/sounds/bleep.wav","null","","","","","","",""
"","","","","","html-keyboard-response","220","2.0.0","179923","pssvz2ql31k","ono","A18552625","21","mae","no","no","0","1","56","<div style=""font-size:30px;"">Press space to start the trial</div>"," ","","","","","","",""
"","","","","","html-keyboard-response","221","2.0.0","180174","pssvz2ql31k","ono","A18552625","21","mae","no","no","0","1","null","<div style=""font-size:60px;"">+</div>","null","","","","","","",""
"","","","","","audio-keyboard-response","222","2.0.0","180778","pssvz2ql31k","ono","A18552625","21","mae","no","no","0","1","null","stimuli/sounds/hiccup_sound_B.wav","null","","","","","","",""
"","","","","","html-keyboard-response","223","2.0.0","181779","pssvz2ql31k","ono","A18552625","21","mae","no","no","0","1","null","","null","","","","","","",""
"","","","","","image-keyboard-response","224","2.0.0","182375","pssvz2ql31k","ono","A18552625","21","mae","no","no","0","1","595","stimuli/pictures/drop_multi_1.jpg","0","0","","true","no","sound","stimuli/sounds/hiccup_sound_B.wav",""
"","","","","","audio-keyboard-response","225","2.0.0","183376","pssvz2ql31k","ono","A18552625","21","mae","no","no","0","1","null","stimuli/sounds/bleep.wav","null","","","","","","",""
"","","","","","html-keyboard-response","226","2.0.0","183561","pssvz2ql31k","ono","A18552625","21","mae","no","no","0","1","84","<div style=""font-size:30px;"">Press space to start the trial</div>"," ","","","","","","",""
"","","","","","html-keyboard-response","227","2.0.0","183812","pssvz2ql31k","ono","A18552625","21","mae","no","no","0","1","null","<div style=""font-size:60px;"">+</div>","null","","","","","","",""
"","","","","","audio-keyboard-response","228","2.0.0","184362","pssvz2ql31k","ono","A18552625","21","mae","no","no","0","1","null","stimuli/sounds/drop_label_A.wav","null","","","","","","",""
"","","","","","html-keyboard-response","229","2.0.0","185363","pssvz2ql31k","ono","A18552625","21","mae","no","no","0","1","null","","null","","","","","","",""
"","","","","","image-keyboard-response","230","2.0.0","185905","pssvz2ql31k","ono","A18552625","21","mae","no","no","0","1","541","stimuli/pictures/drop_multi_1.jpg","1","1","","true","yes","sound","stimuli/sounds/drop_label_A.wav",""
"","","","","","audio-keyboard-response","231","2.0.0","186906","pssvz2ql31k","ono","A18552625","21","mae","no","no","0","1","null","stimuli/sounds/bleep.wav","null","","","","","","",""
"","","","","","html-keyboard-response","232","2.0.0","187310","pssvz2ql31k","ono","A18552625","21","mae","no","no","0","1","302","<div style=""font-size:30px;"">Press space to start the trial</div>"," ","","","","","","",""
"","","","","","html-keyboard-response","233","2.0.0","187562","pssvz2ql31k","ono","A18552625","21","mae","no","no","0","1","null","<div style=""font-size:60px;"">+</div>","null","","","","","","",""
"","","","","","audio-keyboard-response","234","2.0.0","188226","pssvz2ql31k","ono","A18552625","21","mae","no","no","0","1","null","stimuli/sounds/cough_sound_A.wav","null","","","","","","",""
"","","","","","html-keyboard-response","235","2.0.0","189226","pssvz2ql31k","ono","A18552625","21","mae","no","no","0","1","null","","null","","","","","","",""
"","","","","","image-keyboard-response","236","2.0.0","189740","pssvz2ql31k","ono","A18552625","21","mae","no","no","0","1","512","stimuli/pictures/dog_rott_1.jpg","0","0","","true","no","sound","stimuli/sounds/cough_sound_A.wav",""
"","","","","","audio-keyboard-response","237","2.0.0","190742","pssvz2ql31k","ono","A18552625","21","mae","no","no","0","1","null","stimuli/sounds/bleep.wav","null","","","","","","",""
"","","","","","html-keyboard-response","238","2.0.0","191136","pssvz2ql31k","ono","A18552625","21","mae","no","no","0","1","293","<div style=""font-size:30px;"">Press space to start the trial</div>"," ","","","","","","",""
"","","","","","html-keyboard-response","239","2.0.0","191387","pssvz2ql31k","ono","A18552625","21","mae","no","no","0","1","null","<div style=""font-size:60px;"">+</div>","null","","","","","","",""
"","","","","","audio-keyboard-response","240","2.0.0","191988","pssvz2ql31k","ono","A18552625","21","mae","no","no","0","1","null","stimuli/sounds/hiccup_sound_B.wav","null","","","","","","",""
"","","","","","html-keyboard-response","241","2.0.0","192990","pssvz2ql31k","ono","A18552625","21","mae","no","no","0","1","null","","null","","","","","","",""
"","","","","","image-keyboard-response","242","2.0.0","193569","pssvz2ql31k","ono","A18552625","21","mae","no","no","0","1","578","stimuli/pictures/hiccup_wom_1.jpg","1","1","","true","no","sound","stimuli/sounds/hiccup_sound_B.wav",""
"","","","","","audio-keyboard-response","243","2.0.0","194570","pssvz2ql31k","ono","A18552625","21","mae","no","no","0","1","null","stimuli/sounds/bleep.wav","null","","","","","","",""
"","","","","","html-keyboard-response","244","2.0.0","194878","pssvz2ql31k","ono","A18552625","21","mae","no","no","0","1","207","<div style=""font-size:30px;"">Press space to start the trial</div>"," ","","","","","","",""
"","","","","","html-keyboard-response","245","2.0.0","195129","pssvz2ql31k","ono","A18552625","21","mae","no","no","0","1","null","<div style=""font-size:60px;"">+</div>","null","","","","","","",""
"","","","","","audio-keyboard-response","246","2.0.0","195735","pssvz2ql31k","ono","A18552625","21","mae","no","no","0","1","null","stimuli/sounds/drop_sound_B.wav","null","","","","","","",""
"","","","","","html-keyboard-response","247","2.0.0","196736","pssvz2ql31k","ono","A18552625","21","mae","no","no","0","1","null","","null","","","","","","",""
"","","","","","image-keyboard-response","248","2.0.0","197136","pssvz2ql31k","ono","A18552625","21","mae","no","no","0","1","400","stimuli/pictures/drop_single_2.jpg","1","1","","true","no","sound","stimuli/sounds/drop_sound_B.wav",""
"","","","","","audio-keyboard-response","249","2.0.0","198138","pssvz2ql31k","ono","A18552625","21","mae","no","no","0","1","null","stimuli/sounds/bleep.wav","null","","","","","","",""
"","","","","","html-keyboard-response","250","2.0.0","198420","pssvz2ql31k","ono","A18552625","21","mae","no","no","0","1","181","<div style=""font-size:30px;"">Press space to start the trial</div>"," ","","","","","","",""
"","","","","","html-keyboard-response","251","2.0.0","198671","pssvz2ql31k","ono","A18552625","21","mae","no","no","0","1","null","<div style=""font-size:60px;"">+</div>","null","","","","","","",""
"","","","","","audio-keyboard-response","252","2.0.0","199271","pssvz2ql31k","ono","A18552625","21","mae","no","no","0","1","null","stimuli/sounds/motor_label_A.wav","null","","","","","","",""
"","","","","","html-keyboard-response","253","2.0.0","200272","pssvz2ql31k","ono","A18552625","21","mae","no","no","0","1","null","","null","","","","","","",""
"","","","","","image-keyboard-response","254","2.0.0","200712","pssvz2ql31k","ono","A18552625","21","mae","no","no","0","1","438","stimuli/pictures/motor_harley_1.jpg","1","1","","true","yes","sound","stimuli/sounds/motor_label_A.wav",""
"","","","","","audio-keyboard-response","255","2.0.0","201713","pssvz2ql31k","ono","A18552625","21","mae","no","no","0","1","null","stimuli/sounds/bleep.wav","null","","","","","","",""
"","","","","","html-keyboard-response","256","2.0.0","201963","pssvz2ql31k","ono","A18552625","21","mae","no","no","0","1","149","<div style=""font-size:30px;"">Press space to start the trial</div>"," ","","","","","","",""
"","","","","","html-keyboard-response","257","2.0.0","202214","pssvz2ql31k","ono","A18552625","21","mae","no","no","0","1","null","<div style=""font-size:60px;"">+</div>","null","","","","","","",""
"","","","","","audio-keyboard-response","258","2.0.0","202823","pssvz2ql31k","ono","A18552625","21","mae","no","no","0","1","null","stimuli/sounds/drop_label_B.wav","null","","","","","","",""
"","","","","","html-keyboard-response","259","2.0.0","203823","pssvz2ql31k","ono","A18552625","21","mae","no","no","0","1","null","","null","","","","","","",""
"","","","","","image-keyboard-response","260","2.0.0","204270","pssvz2ql31k","ono","A18552625","21","mae","no","no","0","1","445","stimuli/pictures/drop_single_2.jpg","1","1","","true","yes","sound","stimuli/sounds/drop_label_B.wav",""
"","","","","","audio-keyboard-response","261","2.0.0","205271","pssvz2ql31k","ono","A18552625","21","mae","no","no","0","1","null","stimuli/sounds/bleep.wav","null","","","","","","",""
"","","","","","html-keyboard-response","262","2.0.0","205711","pssvz2ql31k","ono","A18552625","21","mae","no","no","0","1","339","<div style=""font-size:30px;"">Press space to start the trial</div>"," ","","","","","","",""
"","","","","","html-keyboard-response","263","2.0.0","205962","pssvz2ql31k","ono","A18552625","21","mae","no","no","0","1","null","<div style=""font-size:60px;"">+</div>","null","","","","","","",""
"","","","","","audio-keyboard-response","264","2.0.0","206562","pssvz2ql31k","ono","A18552625","21","mae","no","no","0","1","null","stimuli/sounds/dog_label_B.wav","null","","","","","","",""
"","","","","","html-keyboard-response","265","2.0.0","207563","pssvz2ql31k","ono","A18552625","21","mae","no","no","0","1","null","","null","","","","","","",""
"","","","","","image-keyboard-response","266","2.0.0","208067","pssvz2ql31k","ono","A18552625","21","mae","no","no","0","1","503","stimuli/pictures/dog_york_1.jpg","1","1","","true","yes","sound","stimuli/sounds/dog_label_B.wav",""
"","","","","","audio-keyboard-response","267","2.0.0","209068","pssvz2ql31k","ono","A18552625","21","mae","no","no","0","1","null","stimuli/sounds/bleep.wav","null","","","","","","",""
"","","","","","html-keyboard-response","268","2.0.0","211382","pssvz2ql31k","ono","A18552625","21","mae","no","no","0","1","2213","<p>You have completed a block. Press R when you are ready to continue</p>","r","","","","","","",""
"","","","","","html-keyboard-response","269","2.0.0","211830","pssvz2ql31k","ono","A18552625","21","mae","no","no","0","1","447","<div style=""font-size:30px;"">Press space to start the trial</div>"," ","","","","","","",""
"","","","","","html-keyboard-response","270","2.0.0","212082","pssvz2ql31k","ono","A18552625","21","mae","no","no","0","1","null","<div style=""font-size:60px;"">+</div>","null","","","","","","",""
"","","","","","audio-keyboard-response","271","2.0.0","212620","pssvz2ql31k","ono","A18552625","21","mae","no","no","0","1","null","stimuli/sounds/hiccup_label_A.wav","null","","","","","","",""
"","","","","","html-keyboard-response","272","2.0.0","213622","pssvz2ql31k","ono","A18552625","21","mae","no","no","0","1","null","","null","","","","","","",""
"","","","","","image-keyboard-response","273","2.0.0","215168","pssvz2ql31k","ono","A18552625","21","mae","no","no","0","1","1545","stimuli/pictures/cough_wom_2.jpg","0","0","","true","no","sound","stimuli/sounds/hiccup_label_A.wav",""
"","","","","","audio-keyboard-response","274","2.0.0","216168","pssvz2ql31k","ono","A18552625","21","mae","no","no","0","1","null","stimuli/sounds/bleep.wav","null","","","","","","",""
"","","","","","html-keyboard-response","275","2.0.0","216415","pssvz2ql31k","ono","A18552625","21","mae","no","no","0","1","147","<div style=""font-size:30px;"">Press space to start the trial</div>"," ","","","","","","",""
"","","","","","html-keyboard-response","276","2.0.0","216666","pssvz2ql31k","ono","A18552625","21","mae","no","no","0","1","null","<div style=""font-size:60px;"">+</div>","null","","","","","","",""
"","","","","","audio-keyboard-response","277","2.0.0","217266","pssvz2ql31k","ono","A18552625","21","mae","no","no","0","1","null","stimuli/sounds/dog_label_A.wav","null","","","","","","",""
"","","","","","html-keyboard-response","278","2.0.0","218267","pssvz2ql31k","ono","A18552625","21","mae","no","no","0","1","null","","null","","","","","","",""
"","","","","","image-keyboard-response","279","2.0.0","218717","pssvz2ql31k","ono","A18552625","21","mae","no","no","0","1","449","stimuli/pictures/dog_york_1.jpg","1","1","","true","yes","sound","stimuli/sounds/dog_label_A.wav",""
"","","","","","audio-keyboard-response","280","2.0.0","219719","pssvz2ql31k","ono","A18552625","21","mae","no","no","0","1","null","stimuli/sounds/bleep.wav","null","","","","","","",""
"","","","","","html-keyboard-response","281","2.0.0","220032","pssvz2ql31k","ono","A18552625","21","mae","no","no","0","1","211","<div style=""font-size:30px;"">Press space to start the trial</div>"," ","","","","","","",""
"","","","","","html-keyboard-response","282","2.0.0","220283","pssvz2ql31k","ono","A18552625","21","mae","no","no","0","1","null","<div style=""font-size:60px;"">+</div>","null","","","","","","",""
"","","","","","audio-keyboard-response","283","2.0.0","220892","pssvz2ql31k","ono","A18552625","21","mae","no","no","0","1","null","stimuli/sounds/drop_label_B.wav","null","","","","","","",""
"","","","","","html-keyboard-response","284","2.0.0","221893","pssvz2ql31k","ono","A18552625","21","mae","no","no","0","1","null","","null","","","","","","",""
"","","","","","image-keyboard-response","285","2.0.0","222515","pssvz2ql31k","ono","A18552625","21","mae","no","no","0","1","621","stimuli/pictures/motor_dirt_1.jpg","0","0","","true","no","sound","stimuli/sounds/drop_label_B.wav",""
"","","","","","audio-keyboard-response","286","2.0.0","223517","pssvz2ql31k","ono","A18552625","21","mae","no","no","0","1","null","stimuli/sounds/bleep.wav","null","","","","","","",""
"","","","","","html-keyboard-response","287","2.0.0","223744","pssvz2ql31k","ono","A18552625","21","mae","no","no","0","1","126","<div style=""font-size:30px;"">Press space to start the trial</div>"," ","","","","","","",""
"","","","","","html-keyboard-response","288","2.0.0","223996","pssvz2ql31k","ono","A18552625","21","mae","no","no","0","1","null","<div style=""font-size:60px;"">+</div>","null","","","","","","",""
"","","","","","audio-keyboard-response","289","2.0.0","224604","pssvz2ql31k","ono","A18552625","21","mae","no","no","0","1","null","stimuli/sounds/cough_label_B.wav","null","","","","","","",""
"","","","","","html-keyboard-response","290","2.0.0","225606","pssvz2ql31k","ono","A18552625","21","mae","no","no","0","1","null","","null","","","","","","",""
"","","","","","image-keyboard-response","291","2.0.0","226424","pssvz2ql31k","ono","A18552625","21","mae","no","no","0","1","817","stimuli/pictures/cough_wom_2.jpg","1","1","","true","yes","sound","stimuli/sounds/cough_label_B.wav",""
"","","","","","audio-keyboard-response","292","2.0.0","227424","pssvz2ql31k","ono","A18552625","21","mae","no","no","0","1","null","stimuli/sounds/bleep.wav","null","","","","","","",""
"","","","","","html-keyboard-response","293","2.0.0","227849","pssvz2ql31k","ono","A18552625","21","mae","no","no","0","1","323","<div style=""font-size:30px;"">Press space to start the trial</div>"," ","","","","","","",""
"","","","","","html-keyboard-response","294","2.0.0","228101","pssvz2ql31k","ono","A18552625","21","mae","no","no","0","1","null","<div style=""font-size:60px;"">+</div>","null","","","","","","",""
"","","","","","audio-keyboard-response","295","2.0.0","228706","pssvz2ql31k","ono","A18552625","21","mae","no","no","0","1","null","stimuli/sounds/hiccup_sound_A.wav","null","","","","","","",""
"","","","","","html-keyboard-response","296","2.0.0","229707","pssvz2ql31k","ono","A18552625","21","mae","no","no","0","1","null","","null","","","","","","",""
"","","","","","image-keyboard-response","297","2.0.0","230958","pssvz2ql31k","ono","A18552625","21","mae","no","no","0","1","1248","stimuli/pictures/hiccup_man_1.jpg","1","1","","true","no","sound","stimuli/sounds/hiccup_sound_A.wav",""
"","","","","","audio-keyboard-response","298","2.0.0","231959","pssvz2ql31k","ono","A18552625","21","mae","no","no","0","1","null","stimuli/sounds/bleep.wav","null","","","","","","",""
"","","","","","html-keyboard-response","299","2.0.0","235425","pssvz2ql31k","ono","A18552625","21","mae","no","no","0","1","3365","<div style=""font-size:30px;"">Press space to start the trial</div>"," ","","","","","","",""
"","","","","","html-keyboard-response","300","2.0.0","235677","pssvz2ql31k","ono","A18552625","21","mae","no","no","0","1","null","<div style=""font-size:60px;"">+</div>","null","","","","","","",""
"","","","","","audio-keyboard-response","301","2.0.0","236282","pssvz2ql31k","ono","A18552625","21","mae","no","no","0","1","null","stimuli/sounds/hiccup_sound_A.wav","null","","","","","","",""
"","","","","","html-keyboard-response","302","2.0.0","237282","pssvz2ql31k","ono","A18552625","21","mae","no","no","0","1","null","","null","","","","","","",""
"","","","","","image-keyboard-response","303","2.0.0","237929","pssvz2ql31k","ono","A18552625","21","mae","no","no","0","1","646","stimuli/pictures/motor_dirt_2.jpg","0","0","","true","no","sound","stimuli/sounds/hiccup_sound_A.wav",""
"","","","","","audio-keyboard-response","304","2.0.0","238930","pssvz2ql31k","ono","A18552625","21","mae","no","no","0","1","null","stimuli/sounds/bleep.wav","null","","","","","","",""
"","","","","","html-keyboard-response","305","2.0.0","239580","pssvz2ql31k","ono","A18552625","21","mae","no","no","0","1","549","<div style=""font-size:30px;"">Press space to start the trial</div>"," ","","","","","","",""
"","","","","","html-keyboard-response","306","2.0.0","239831","pssvz2ql31k","ono","A18552625","21","mae","no","no","0","1","null","<div style=""font-size:60px;"">+</div>","null","","","","","","",""
"","","","","","audio-keyboard-response","307","2.0.0","240434","pssvz2ql31k","ono","A18552625","21","mae","no","no","0","1","null","stimuli/sounds/hiccup_sound_B.wav","null","","","","","","",""
"","","","","","html-keyboard-response","308","2.0.0","241435","pssvz2ql31k","ono","A18552625","21","mae","no","no","0","1","null","","null","","","","","","",""
"","","","","","image-keyboard-response","309","2.0.0","242111","pssvz2ql31k","ono","A18552625","21","mae","no","no","0","1","675","stimuli/pictures/hiccup_man_2.jpg","1","1","","true","yes","sound","stimuli/sounds/hiccup_sound_B.wav",""
"","","","","","audio-keyboard-response","310","2.0.0","243112","pssvz2ql31k","ono","A18552625","21","mae","no","no","0","1","null","stimuli/sounds/bleep.wav","null","","","","","","",""
"","","","","","html-keyboard-response","311","2.0.0","243846","pssvz2ql31k","ono","A18552625","21","mae","no","no","0","1","632","<div style=""font-size:30px;"">Press space to start the trial</div>"," ","","","","","","",""
"","","","","","html-keyboard-response","312","2.0.0","244097","pssvz2ql31k","ono","A18552625","21","mae","no","no","0","1","null","<div style=""font-size:60px;"">+</div>","null","","","","","","",""
"","","","","","audio-keyboard-response","313","2.0.0","244636","pssvz2ql31k","ono","A18552625","21","mae","no","no","0","1","null","stimuli/sounds/hiccup_label_A.wav","null","","","","","","",""
"","","","","","html-keyboard-response","314","2.0.0","245638","pssvz2ql31k","ono","A18552625","21","mae","no","no","0","1","null","","null","","","","","","",""
"","","","","","image-keyboard-response","315","2.0.0","246451","pssvz2ql31k","ono","A18552625","21","mae","no","no","0","1","813","stimuli/pictures/hiccup_man_1.jpg","1","1","","true","yes","sound","stimuli/sounds/hiccup_label_A.wav",""
"","","","","","audio-keyboard-response","316","2.0.0","247452","pssvz2ql31k","ono","A18552625","21","mae","no","no","0","1","null","stimuli/sounds/bleep.wav","null","","","","","","",""
"","","","","","html-keyboard-response","317","2.0.0","247581","pssvz2ql31k","ono","A18552625","21","mae","no","no","0","1","27","<div style=""font-size:30px;"">Press space to start the trial</div>"," ","","","","","","",""
"","","","","","html-keyboard-response","318","2.0.0","247833","pssvz2ql31k","ono","A18552625","21","mae","no","no","0","1","null","<div style=""font-size:60px;"">+</div>","null","","","","","","",""
"","","","","","audio-keyboard-response","319","2.0.0","248415","pssvz2ql31k","ono","A18552625","21","mae","no","no","0","1","null","stimuli/sounds/drop_sound_A.wav","null","","","","","","",""
"","","","","","html-keyboard-response","320","2.0.0","249417","pssvz2ql31k","ono","A18552625","21","mae","no","no","0","1","null","","null","","","","","","",""
"","","","","","image-keyboard-response","321","2.0.0","250056","pssvz2ql31k","ono","A18552625","21","mae","no","no","0","1","637","stimuli/pictures/drop_single_1.jpg","1","1","","true","yes","sound","stimuli/sounds/drop_sound_A.wav",""
"","","","","","audio-keyboard-response","322","2.0.0","251058","pssvz2ql31k","ono","A18552625","21","mae","no","no","0","1","null","stimuli/sounds/bleep.wav","null","","","","","","",""
"","","","","","html-keyboard-response","323","2.0.0","251789","pssvz2ql31k","ono","A18552625","21","mae","no","no","0","1","630","<div style=""font-size:30px;"">Press space to start the trial</div>"," ","","","","","","",""
"","","","","","html-keyboard-response","324","2.0.0","252040","pssvz2ql31k","ono","A18552625","21","mae","no","no","0","1","null","<div style=""font-size:60px;"">+</div>","null","","","","","","",""
"","","","","","audio-keyboard-response","325","2.0.0","252719","pssvz2ql31k","ono","A18552625","21","mae","no","no","0","1","null","stimuli/sounds/cough_sound_B.wav","null","","","","","","",""
"","","","","","html-keyboard-response","326","2.0.0","253721","pssvz2ql31k","ono","A18552625","21","mae","no","no","0","1","null","","null","","","","","","",""
"","","","","","image-keyboard-response","327","2.0.0","254446","pssvz2ql31k","ono","A18552625","21","mae","no","no","0","1","724","stimuli/pictures/cough_man_2.jpg","1","1","","true","yes","sound","stimuli/sounds/cough_sound_B.wav",""
"","","","","","audio-keyboard-response","328","2.0.0","255447","pssvz2ql31k","ono","A18552625","21","mae","no","no","0","1","null","stimuli/sounds/bleep.wav","null","","","","","","",""
"","","","","","html-keyboard-response","329","2.0.0","255774","pssvz2ql31k","ono","A18552625","21","mae","no","no","0","1","225","<div style=""font-size:30px;"">Press space to start the trial</div>"," ","","","","","","",""
"","","","","","html-keyboard-response","330","2.0.0","256025","pssvz2ql31k","ono","A18552625","21","mae","no","no","0","1","null","<div style=""font-size:60px;"">+</div>","null","","","","","","",""
"","","","","","audio-keyboard-response","331","2.0.0","256658","pssvz2ql31k","ono","A18552625","21","mae","no","no","0","1","null","stimuli/sounds/cough_label_A.wav","null","","","","","","",""
"","","","","","html-keyboard-response","332","2.0.0","257659","pssvz2ql31k","ono","A18552625","21","mae","no","no","0","1","null","","null","","","","","","",""
"","","","","","image-keyboard-response","333","2.0.0","258330","pssvz2ql31k","ono","A18552625","21","mae","no","no","0","1","671","stimuli/pictures/cough_wom_1.jpg","1","1","","true","yes","sound","stimuli/sounds/cough_label_A.wav",""
"","","","","","audio-keyboard-response","334","2.0.0","259332","pssvz2ql31k","ono","A18552625","21","mae","no","no","0","1","null","stimuli/sounds/bleep.wav","null","","","","","","",""
"","","","","","html-keyboard-response","335","2.0.0","259698","pssvz2ql31k","ono","A18552625","21","mae","no","no","0","1","265","<div style=""font-size:30px;"">Press space to start the trial</div>"," ","","","","","","",""
"","","","","","html-keyboard-response","336","2.0.0","259950","pssvz2ql31k","ono","A18552625","21","mae","no","no","0","1","null","<div style=""font-size:60px;"">+</div>","null","","","","","","",""
"","","","","","audio-keyboard-response","337","2.0.0","260548","pssvz2ql31k","ono","A18552625","21","mae","no","no","0","1","null","stimuli/sounds/motor_sound_B.wav","null","","","","","","",""
"","","","","","html-keyboard-response","338","2.0.0","261550","pssvz2ql31k","ono","A18552625","21","mae","no","no","0","1","null","","null","","","","","","",""
"","","","","","image-keyboard-response","339","2.0.0","262258","pssvz2ql31k","ono","A18552625","21","mae","no","no","0","1","707","stimuli/pictures/cough_man_2.jpg","0","0","","true","no","sound","stimuli/sounds/motor_sound_B.wav",""
"","","","","","audio-keyboard-response","340","2.0.0","263260","pssvz2ql31k","ono","A18552625","21","mae","no","no","0","1","null","stimuli/sounds/bleep.wav","null","","","","","","",""
"","","","","","html-keyboard-response","341","2.0.0","263900","pssvz2ql31k","ono","A18552625","21","mae","no","no","0","1","538","<div style=""font-size:30px;"">Press space to start the trial</div>"," ","","","","","","",""
"","","","","","html-keyboard-response","342","2.0.0","264152","pssvz2ql31k","ono","A18552625","21","mae","no","no","0","1","null","<div style=""font-size:60px;"">+</div>","null","","","","","","",""
"","","","","","audio-keyboard-response","343","2.0.0","264831","pssvz2ql31k","ono","A18552625","21","mae","no","no","0","1","null","stimuli/sounds/cough_sound_B.wav","null","","","","","","",""
"","","","","","html-keyboard-response","344","2.0.0","265832","pssvz2ql31k","ono","A18552625","21","mae","no","no","0","1","null","","null","","","","","","",""
"","","","","","image-keyboard-response","345","2.0.0","266437","pssvz2ql31k","ono","A18552625","21","mae","no","no","0","1","603","stimuli/pictures/cough_wom_1.jpg","1","1","","true","no","sound","stimuli/sounds/cough_sound_B.wav",""
"","","","","","audio-keyboard-response","346","2.0.0","267439","pssvz2ql31k","ono","A18552625","21","mae","no","no","0","1","null","stimuli/sounds/bleep.wav","null","","","","","","",""
"","","","","","html-keyboard-response","347","2.0.0","267870","pssvz2ql31k","ono","A18552625","21","mae","no","no","0","1","331","<div style=""font-size:30px;"">Press space to start the trial</div>"," ","","","","","","",""
"","","","","","html-keyboard-response","348","2.0.0","268122","pssvz2ql31k","ono","A18552625","21","mae","no","no","0","1","null","<div style=""font-size:60px;"">+</div>","null","","","","","","",""
"","","","","","audio-keyboard-response","349","2.0.0","268724","pssvz2ql31k","ono","A18552625","21","mae","no","no","0","1","null","stimuli/sounds/dog_sound_B.wav","null","","","","","","",""
"","","","","","html-keyboard-response","350","2.0.0","269726","pssvz2ql31k","ono","A18552625","21","mae","no","no","0","1","null","","null","","","","","","",""
"","","","","","image-keyboard-response","351","2.0.0","270305","pssvz2ql31k","ono","A18552625","21","mae","no","no","0","1","578","stimuli/pictures/motor_harley_2.jpg","0","0","","true","no","sound","stimuli/sounds/dog_sound_B.wav",""
"","","","","","audio-keyboard-response","352","2.0.0","271307","pssvz2ql31k","ono","A18552625","21","mae","no","no","0","1","null","stimuli/sounds/bleep.wav","null","","","","","","",""
"","","","","","html-keyboard-response","353","2.0.0","271883","pssvz2ql31k","ono","A18552625","21","mae","no","no","0","1","475","<div style=""font-size:30px;"">Press space to start the trial</div>"," ","","","","","","",""
"","","","","","html-keyboard-response","354","2.0.0","272135","pssvz2ql31k","ono","A18552625","21","mae","no","no","0","1","null","<div style=""font-size:60px;"">+</div>","null","","","","","","",""
"","","","","","audio-keyboard-response","355","2.0.0","272738","pssvz2ql31k","ono","A18552625","21","mae","no","no","0","1","null","stimuli/sounds/hiccup_sound_B.wav","null","","","","","","",""
"","","","","","html-keyboard-response","356","2.0.0","273738","pssvz2ql31k","ono","A18552625","21","mae","no","no","0","1","null","","null","","","","","","",""
"","","","","","image-keyboard-response","357","2.0.0","274377","pssvz2ql31k","ono","A18552625","21","mae","no","no","0","1","638","stimuli/pictures/hiccup_wom_2.jpg","1","1","","true","no","sound","stimuli/sounds/hiccup_sound_B.wav",""
"","","","","","audio-keyboard-response","358","2.0.0","275378","pssvz2ql31k","ono","A18552625","21","mae","no","no","0","1","null","stimuli/sounds/bleep.wav","null","","","","","","",""
"","","","","","html-keyboard-response","359","2.0.0","275851","pssvz2ql31k","ono","A18552625","21","mae","no","no","0","1","373","<div style=""font-size:30px;"">Press space to start the trial</div>"," ","","","","","","",""
"","","","","","html-keyboard-response","360","2.0.0","276103","pssvz2ql31k","ono","A18552625","21","mae","no","no","0","1","null","<div style=""font-size:60px;"">+</div>","null","","","","","","",""
"","","","","","audio-keyboard-response","361","2.0.0","276714","pssvz2ql31k","ono","A18552625","21","mae","no","no","0","1","null","stimuli/sounds/drop_label_B.wav","null","","","","","","",""
"","","","","","html-keyboard-response","362","2.0.0","277715","pssvz2ql31k","ono","A18552625","21","mae","no","no","0","1","null","","null","","","","","","",""
"","","","","","image-keyboard-response","363","2.0.0","278324","pssvz2ql31k","ono","A18552625","21","mae","no","no","0","1","608","stimuli/pictures/motor_harley_2.jpg","0","0","","true","no","sound","stimuli/sounds/drop_label_B.wav",""
"","","","","","audio-keyboard-response","364","2.0.0","279325","pssvz2ql31k","ono","A18552625","21","mae","no","no","0","1","null","stimuli/sounds/bleep.wav","null","","","","","","",""
"","","","","","html-keyboard-response","365","2.0.0","279757","pssvz2ql31k","ono","A18552625","21","mae","no","no","0","1","331","<div style=""font-size:30px;"">Press space to start the trial</div>"," ","","","","","","",""
"","","","","","html-keyboard-response","366","2.0.0","280008","pssvz2ql31k","ono","A18552625","21","mae","no","no","0","1","null","<div style=""font-size:60px;"">+</div>","null","","","","","","",""
"","","","","","audio-keyboard-response","367","2.0.0","280612","pssvz2ql31k","ono","A18552625","21","mae","no","no","0","1","null","stimuli/sounds/drop_sound_B.wav","null","","","","","","",""
"","","","","","html-keyboard-response","368","2.0.0","281613","pssvz2ql31k","ono","A18552625","21","mae","no","no","0","1","null","","null","","","","","","",""
"","","","","","image-keyboard-response","369","2.0.0","282224","pssvz2ql31k","ono","A18552625","21","mae","no","no","0","1","611","stimuli/pictures/drop_multi_2.jpg","1","1","","true","yes","sound","stimuli/sounds/drop_sound_B.wav",""
"","","","","","audio-keyboard-response","370","2.0.0","283226","pssvz2ql31k","ono","A18552625","21","mae","no","no","0","1","null","stimuli/sounds/bleep.wav","null","","","","","","",""
"","","","","","html-keyboard-response","371","2.0.0","283687","pssvz2ql31k","ono","A18552625","21","mae","no","no","0","1","360","<div style=""font-size:30px;"">Press space to start the trial</div>"," ","","","","","","",""
"","","","","","html-keyboard-response","372","2.0.0","283938","pssvz2ql31k","ono","A18552625","21","mae","no","no","0","1","null","<div style=""font-size:60px;"">+</div>","null","","","","","","",""
"","","","","","audio-keyboard-response","373","2.0.0","284543","pssvz2ql31k","ono","A18552625","21","mae","no","no","0","1","null","stimuli/sounds/hiccup_sound_A.wav","null","","","","","","",""
"","","","","","html-keyboard-response","374","2.0.0","285544","pssvz2ql31k","ono","A18552625","21","mae","no","no","0","1","null","","null","","","","","","",""
"","","","","","image-keyboard-response","375","2.0.0","286057","pssvz2ql31k","ono","A18552625","21","mae","no","no","0","1","513","stimuli/pictures/motor_harley_1.jpg","0","0","","true","no","sound","stimuli/sounds/hiccup_sound_A.wav",""
"","","","","","audio-keyboard-response","376","2.0.0","287060","pssvz2ql31k","ono","A18552625","21","mae","no","no","0","1","null","stimuli/sounds/bleep.wav","null","","","","","","",""
"","","","","","html-keyboard-response","377","2.0.0","287600","pssvz2ql31k","ono","A18552625","21","mae","no","no","0","1","438","<div style=""font-size:30px;"">Press space to start the trial</div>"," ","","","","","","",""
"","","","","","html-keyboard-response","378","2.0.0","287851","pssvz2ql31k","ono","A18552625","21","mae","no","no","0","1","null","<div style=""font-size:60px;"">+</div>","null","","","","","","",""
"","","","","","audio-keyboard-response","379","2.0.0","288453","pssvz2ql31k","ono","A18552625","21","mae","no","no","0","1","null","stimuli/sounds/hiccup_sound_B.wav","null","","","","","","",""
"","","","","","html-keyboard-response","380","2.0.0","289454","pssvz2ql31k","ono","A18552625","21","mae","no","no","0","1","null","","null","","","","","","",""
"","","","","","image-keyboard-response","381","2.0.0","290580","pssvz2ql31k","ono","A18552625","21","mae","no","no","0","1","1125","stimuli/pictures/drop_multi_2.jpg","0","0","","true","no","sound","stimuli/sounds/hiccup_sound_B.wav",""
"","","","","","audio-keyboard-response","382","2.0.0","291582","pssvz2ql31k","ono","A18552625","21","mae","no","no","0","1","null","stimuli/sounds/bleep.wav","null","","","","","","",""
"","","","","","html-keyboard-response","383","2.0.0","292022","pssvz2ql31k","ono","A18552625","21","mae","no","no","0","1","339","<div style=""font-size:30px;"">Press space to start the trial</div>"," ","","","","","","",""
"","","","","","html-keyboard-response","384","2.0.0","292274","pssvz2ql31k","ono","A18552625","21","mae","no","no","0","1","null","<div style=""font-size:60px;"">+</div>","null","","","","","","",""
"","","","","","audio-keyboard-response","385","2.0.0","292812","pssvz2ql31k","ono","A18552625","21","mae","no","no","0","1","null","stimuli/sounds/hiccup_label_A.wav","null","","","","","","",""
"","","","","","html-keyboard-response","386","2.0.0","293813","pssvz2ql31k","ono","A18552625","21","mae","no","no","0","1","null","","null","","","","","","",""
"","","","","","image-keyboard-response","387","2.0.0","294522","pssvz2ql31k","ono","A18552625","21","mae","no","no","0","1","707","stimuli/pictures/hiccup_wom_2.jpg","1","1","","true","yes","sound","stimuli/sounds/hiccup_label_A.wav",""
"","","","","","audio-keyboard-response","388","2.0.0","295523","pssvz2ql31k","ono","A18552625","21","mae","no","no","0","1","null","stimuli/sounds/bleep.wav","null","","","","","","",""
"","","","","","html-keyboard-response","389","2.0.0","297347","pssvz2ql31k","ono","A18552625","21","mae","no","no","0","1","1722","<p>You have completed a block. Press R when you are ready to continue</p>","r","","","","","","",""
"","","","","","html-keyboard-response","390","2.0.0","297812","pssvz2ql31k","ono","A18552625","21","mae","no","no","0","1","464","<div style=""font-size:30px;"">Press space to start the trial</div>"," ","","","","","","",""
"","","","","","html-keyboard-response","391","2.0.0","298064","pssvz2ql31k","ono","A18552625","21","mae","no","no","0","1","null","<div style=""font-size:60px;"">+</div>","null","","","","","","",""
"","","","","","audio-keyboard-response","392","2.0.0","298668","pssvz2ql31k","ono","A18552625","21","mae","no","no","0","1","null","stimuli/sounds/drop_sound_B.wav","null","","","","","","",""
"","","","","","html-keyboard-response","393","2.0.0","299670","pssvz2ql31k","ono","A18552625","21","mae","no","no","0","1","null","","null","","","","","","",""
"","","","","","image-keyboard-response","394","2.0.0","300316","pssvz2ql31k","ono","A18552625","21","mae","no","no","0","1","646","stimuli/pictures/dog_rott_1.jpg","0","0","","true","no","sound","stimuli/sounds/drop_sound_B.wav",""
"","","","","","audio-keyboard-response","395","2.0.0","301317","pssvz2ql31k","ono","A18552625","21","mae","no","no","0","1","null","stimuli/sounds/bleep.wav","null","","","","","","",""
"","","","","","html-keyboard-response","396","2.0.0","301744","pssvz2ql31k","ono","A18552625","21","mae","no","no","0","1","325","<div style=""font-size:30px;"">Press space to start the trial</div>"," ","","","","","","",""
"","","","","","html-keyboard-response","397","2.0.0","301996","pssvz2ql31k","ono","A18552625","21","mae","no","no","0","1","null","<div style=""font-size:60px;"">+</div>","null","","","","","","",""
"","","","","","audio-keyboard-response","398","2.0.0","302599","pssvz2ql31k","ono","A18552625","21","mae","no","no","0","1","null","stimuli/sounds/hiccup_sound_A.wav","null","","","","","","",""
"","","","","","html-keyboard-response","399","2.0.0","303600","pssvz2ql31k","ono","A18552625","21","mae","no","no","0","1","null","","null","","","","","","",""
"","","","","","image-keyboard-response","400","2.0.0","304092","pssvz2ql31k","ono","A18552625","21","mae","no","no","0","1","490","stimuli/pictures/motor_harley_2.jpg","0","0","","true","no","sound","stimuli/sounds/hiccup_sound_A.wav",""
"","","","","","audio-keyboard-response","401","2.0.0","305093","pssvz2ql31k","ono","A18552625","21","mae","no","no","0","1","null","stimuli/sounds/bleep.wav","null","","","","","","",""
"","","","","","html-keyboard-response","402","2.0.0","305515","pssvz2ql31k","ono","A18552625","21","mae","no","no","0","1","321","<div style=""font-size:30px;"">Press space to start the trial</div>"," ","","","","","","",""
"","","","","","html-keyboard-response","403","2.0.0","305767","pssvz2ql31k","ono","A18552625","21","mae","no","no","0","1","null","<div style=""font-size:60px;"">+</div>","null","","","","","","",""
"","","","","","audio-keyboard-response","404","2.0.0","306375","pssvz2ql31k","ono","A18552625","21","mae","no","no","0","1","null","stimuli/sounds/cough_label_B.wav","null","","","","","","",""
"","","","","","html-keyboard-response","405","2.0.0","307376","pssvz2ql31k","ono","A18552625","21","mae","no","no","0","1","null","","null","","","","","","",""
"","","","","","image-keyboard-response","406","2.0.0","308154","pssvz2ql31k","ono","A18552625","21","mae","no","no","0","1","777","stimuli/pictures/cough_man_1.jpg","1","1","","true","yes","sound","stimuli/sounds/cough_label_B.wav",""
"","","","","","audio-keyboard-response","407","2.0.0","309156","pssvz2ql31k","ono","A18552625","21","mae","no","no","0","1","null","stimuli/sounds/bleep.wav","null","","","","","","",""
"","","","","","html-keyboard-response","408","2.0.0","309510","pssvz2ql31k","ono","A18552625","21","mae","no","no","0","1","253","<div style=""font-size:30px;"">Press space to start the trial</div>"," ","","","","","","",""
"","","","","","html-keyboard-response","409","2.0.0","309761","pssvz2ql31k","ono","A18552625","21","mae","no","no","0","1","null","<div style=""font-size:60px;"">+</div>","null","","","","","","",""
"","","","","","audio-keyboard-response","410","2.0.0","310362","pssvz2ql31k","ono","A18552625","21","mae","no","no","0","1","null","stimuli/sounds/motor_sound_B.wav","null","","","","","","",""
"","","","","","html-keyboard-response","411","2.0.0","311363","pssvz2ql31k","ono","A18552625","21","mae","no","no","0","1","null","","null","","","","","","",""
"","","","","","image-keyboard-response","412","2.0.0","312200","pssvz2ql31k","ono","A18552625","21","mae","no","no","0","1","836","stimuli/pictures/cough_man_1.jpg","0","0","","true","no","sound","stimuli/sounds/motor_sound_B.wav",""
"","","","","","audio-keyboard-response","413","2.0.0","313201","pssvz2ql31k","ono","A18552625","21","mae","no","no","0","1","null","stimuli/sounds/bleep.wav","null","","","","","","",""
"","","","","","html-keyboard-response","414","2.0.0","313482","pssvz2ql31k","ono","A18552625","21","mae","no","no","0","1","179","<div style=""font-size:30px;"">Press space to start the trial</div>"," ","","","","","","",""
"","","","","","html-keyboard-response","415","2.0.0","313733","pssvz2ql31k","ono","A18552625","21","mae","no","no","0","1","null","<div style=""font-size:60px;"">+</div>","null","","","","","","",""
"","","","","","audio-keyboard-response","416","2.0.0","314282","pssvz2ql31k","ono","A18552625","21","mae","no","no","0","1","null","stimuli/sounds/drop_label_A.wav","null","","","","","","",""
"","","","","","html-keyboard-response","417","2.0.0","315283","pssvz2ql31k","ono","A18552625","21","mae","no","no","0","1","null","","null","","","","","","",""
"","","","","","image-keyboard-response","418","2.0.0","316179","pssvz2ql31k","ono","A18552625","21","mae","no","no","0","1","894","stimuli/pictures/hiccup_man_1.jpg","0","0","","true","no","sound","stimuli/sounds/drop_label_A.wav",""
"","","","","","audio-keyboard-response","419","2.0.0","317180","pssvz2ql31k","ono","A18552625","21","mae","no","no","0","1","null","stimuli/sounds/bleep.wav","null","","","","","","",""
"","","","","","html-keyboard-response","420","2.0.0","317535","pssvz2ql31k","ono","A18552625","21","mae","no","no","0","1","253","<div style=""font-size:30px;"">Press space to start the trial</div>"," ","","","","","","",""
"","","","","","html-keyboard-response","421","2.0.0","317786","pssvz2ql31k","ono","A18552625","21","mae","no","no","0","1","null","<div style=""font-size:60px;"">+</div>","null","","","","","","",""
"","","","","","audio-keyboard-response","422","2.0.0","318386","pssvz2ql31k","ono","A18552625","21","mae","no","no","0","1","null","stimuli/sounds/motor_label_B.wav","null","","","","","","",""
"","","","","","html-keyboard-response","423","2.0.0","319387","pssvz2ql31k","ono","A18552625","21","mae","no","no","0","1","null","","null","","","","","","",""
"","","","","","image-keyboard-response","424","2.0.0","320076","pssvz2ql31k","ono","A18552625","21","mae","no","no","0","1","688","stimuli/pictures/hiccup_man_1.jpg","0","0","","true","no","sound","stimuli/sounds/motor_label_B.wav",""
"","","","","","audio-keyboard-response","425","2.0.0","321078","pssvz2ql31k","ono","A18552625","21","mae","no","no","0","1","null","stimuli/sounds/bleep.wav","null","","","","","","",""
"","","","","","html-keyboard-response","426","2.0.0","321206","pssvz2ql31k","ono","A18552625","21","mae","no","no","0","1","27","<div style=""font-size:30px;"">Press space to start the trial</div>"," ","","","","","","",""
"","","","","","html-keyboard-response","427","2.0.0","321457","pssvz2ql31k","ono","A18552625","21","mae","no","no","0","1","null","<div style=""font-size:60px;"">+</div>","null","","","","","","",""
"","","","","","audio-keyboard-response","428","2.0.0","322058","pssvz2ql31k","ono","A18552625","21","mae","no","no","0","1","null","stimuli/sounds/motor_sound_B.wav","null","","","","","","",""
"","","","","","html-keyboard-response","429","2.0.0","323059","pssvz2ql31k","ono","A18552625","21","mae","no","no","0","1","null","","null","","","","","","",""
"","","","","","image-keyboard-response","430","2.0.0","323979","pssvz2ql31k","ono","A18552625","21","mae","no","no","0","1","918","stimuli/pictures/motor_harley_2.jpg","1","1","","true","yes","sound","stimuli/sounds/motor_sound_B.wav",""
"","","","","","audio-keyboard-response","431","2.0.0","324980","pssvz2ql31k","ono","A18552625","21","mae","no","no","0","1","null","stimuli/sounds/bleep.wav","null","","","","","","",""
"","","","","","html-keyboard-response","432","2.0.0","325652","pssvz2ql31k","ono","A18552625","21","mae","no","no","0","1","570","<div style=""font-size:30px;"">Press space to start the trial</div>"," ","","","","","","",""
"","","","","","html-keyboard-response","433","2.0.0","325904","pssvz2ql31k","ono","A18552625","21","mae","no","no","0","1","null","<div style=""font-size:60px;"">+</div>","null","","","","","","",""
"","","","","","audio-keyboard-response","434","2.0.0","326503","pssvz2ql31k","ono","A18552625","21","mae","no","no","0","1","null","stimuli/sounds/dog_label_B.wav","null","","","","","","",""
"","","","","","html-keyboard-response","435","2.0.0","327505","pssvz2ql31k","ono","A18552625","21","mae","no","no","0","1","null","","null","","","","","","",""
"","","","","","image-keyboard-response","436","2.0.0","328279","pssvz2ql31k","ono","A18552625","21","mae","no","no","0","1","773","stimuli/pictures/dog_rott_1.jpg","1","1","","true","yes","sound","stimuli/sounds/dog_label_B.wav",""
"","","","","","audio-keyboard-response","437","2.0.0","329280","pssvz2ql31k","ono","A18552625","21","mae","no","no","0","1","null","stimuli/sounds/bleep.wav","null","","","","","","",""
"","","","","","html-keyboard-response","438","2.0.0","329716","pssvz2ql31k","ono","A18552625","21","mae","no","no","0","1","334","<div style=""font-size:30px;"">Press space to start the trial</div>"," ","","","","","","",""
"","","","","","html-keyboard-response","439","2.0.0","329967","pssvz2ql31k","ono","A18552625","21","mae","no","no","0","1","null","<div style=""font-size:60px;"">+</div>","null","","","","","","",""
"","","","","","audio-keyboard-response","440","2.0.0","330575","pssvz2ql31k","ono","A18552625","21","mae","no","no","0","1","null","stimuli/sounds/hiccup_label_B.wav","null","","","","","","",""
"","","","","","html-keyboard-response","441","2.0.0","331577","pssvz2ql31k","ono","A18552625","21","mae","no","no","0","1","null","","null","","","","","","",""
"","","","","","image-keyboard-response","442","2.0.0","332780","pssvz2ql31k","ono","A18552625","21","mae","no","no","0","1","1202","stimuli/pictures/hiccup_wom_1.jpg","1","1","","true","yes","sound","stimuli/sounds/hiccup_label_B.wav",""
"","","","","","audio-keyboard-response","443","2.0.0","333782","pssvz2ql31k","ono","A18552625","21","mae","no","no","0","1","null","stimuli/sounds/bleep.wav","null","","","","","","",""
"","","","","","html-keyboard-response","444","2.0.0","334165","pssvz2ql31k","ono","A18552625","21","mae","no","no","0","1","282","<div style=""font-size:30px;"">Press space to start the trial</div>"," ","","","","","","",""
"","","","","","html-keyboard-response","445","2.0.0","334416","pssvz2ql31k","ono","A18552625","21","mae","no","no","0","1","null","<div style=""font-size:60px;"">+</div>","null","","","","","","",""
"","","","","","audio-keyboard-response","446","2.0.0","335015","pssvz2ql31k","ono","A18552625","21","mae","no","no","0","1","null","stimuli/sounds/dog_label_B.wav","null","","","","","","",""
"","","","","","html-keyboard-response","447","2.0.0","336016","pssvz2ql31k","ono","A18552625","21","mae","no","no","0","1","null","","null","","","","","","",""
"","","","","","image-keyboard-response","448","2.0.0","336636","pssvz2ql31k","ono","A18552625","21","mae","no","no","0","1","619","stimuli/pictures/cough_wom_1.jpg","0","0","","true","no","sound","stimuli/sounds/dog_label_B.wav",""
"","","","","","audio-keyboard-response","449","2.0.0","337637","pssvz2ql31k","ono","A18552625","21","mae","no","no","0","1","null","stimuli/sounds/bleep.wav","null","","","","","","",""
"","","","","","html-keyboard-response","450","2.0.0","338062","pssvz2ql31k","ono","A18552625","21","mae","no","no","0","1","324","<div style=""font-size:30px;"">Press space to start the trial</div>"," ","","","","","","",""
"","","","","","html-keyboard-response","451","2.0.0","338314","pssvz2ql31k","ono","A18552625","21","mae","no","no","0","1","null","<div style=""font-size:60px;"">+</div>","null","","","","","","",""
"","","","","","audio-keyboard-response","452","2.0.0","338922","pssvz2ql31k","ono","A18552625","21","mae","no","no","0","1","null","stimuli/sounds/cough_label_B.wav","null","","","","","","",""
"","","","","","html-keyboard-response","453","2.0.0","339923","pssvz2ql31k","ono","A18552625","21","mae","no","no","0","1","null","","null","","","","","","",""
"","","","","","image-keyboard-response","454","2.0.0","340609","pssvz2ql31k","ono","A18552625","21","mae","no","no","0","1","686","stimuli/pictures/drop_multi_2.jpg","0","0","","true","no","sound","stimuli/sounds/cough_label_B.wav",""
"","","","","","audio-keyboard-response","455","2.0.0","341611","pssvz2ql31k","ono","A18552625","21","mae","no","no","0","1","null","stimuli/sounds/bleep.wav","null","","","","","","",""
"","","","","","html-keyboard-response","456","2.0.0","342043","pssvz2ql31k","ono","A18552625","21","mae","no","no","0","1","330","<div style=""font-size:30px;"">Press space to start the trial</div>"," ","","","","","","",""
"","","","","","html-keyboard-response","457","2.0.0","342294","pssvz2ql31k","ono","A18552625","21","mae","no","no","0","1","null","<div style=""font-size:60px;"">+</div>","null","","","","","","",""
"","","","","","audio-keyboard-response","458","2.0.0","342924","pssvz2ql31k","ono","A18552625","21","mae","no","no","0","1","null","stimuli/sounds/cough_label_A.wav","null","","","","","","",""
"","","","","","html-keyboard-response","459","2.0.0","343925","pssvz2ql31k","ono","A18552625","21","mae","no","no","0","1","null","","null","","","","","","",""
"","","","","","image-keyboard-response","460","2.0.0","344547","pssvz2ql31k","ono","A18552625","21","mae","no","no","0","1","621","stimuli/pictures/cough_wom_2.jpg","1","1","","true","yes","sound","stimuli/sounds/cough_label_A.wav",""
"","","","","","audio-keyboard-response","461","2.0.0","345548","pssvz2ql31k","ono","A18552625","21","mae","no","no","0","1","null","stimuli/sounds/bleep.wav","null","","","","","","",""
"","","","","","html-keyboard-response","462","2.0.0","345872","pssvz2ql31k","ono","A18552625","21","mae","no","no","0","1","222","<div style=""font-size:30px;"">Press space to start the trial</div>"," ","","","","","","",""
"","","","","","html-keyboard-response","463","2.0.0","346123","pssvz2ql31k","ono","A18552625","21","mae","no","no","0","1","null","<div style=""font-size:60px;"">+</div>","null","","","","","","",""
"","","","","","audio-keyboard-response","464","2.0.0","346802","pssvz2ql31k","ono","A18552625","21","mae","no","no","0","1","null","stimuli/sounds/cough_sound_B.wav","null","","","","","","",""
"","","","","","html-keyboard-response","465","2.0.0","347803","pssvz2ql31k","ono","A18552625","21","mae","no","no","0","1","null","","null","","","","","","",""
"","","","","","image-keyboard-response","466","2.0.0","348543","pssvz2ql31k","ono","A18552625","21","mae","no","no","0","1","739","stimuli/pictures/cough_wom_2.jpg","1","1","","true","no","sound","stimuli/sounds/cough_sound_B.wav",""
"","","","","","audio-keyboard-response","467","2.0.0","349544","pssvz2ql31k","ono","A18552625","21","mae","no","no","0","1","null","stimuli/sounds/bleep.wav","null","","","","","","",""
"","","","","","html-keyboard-response","468","2.0.0","349667","pssvz2ql31k","ono","A18552625","21","mae","no","no","0","1","22","<div style=""font-size:30px;"">Press space to start the trial</div>"," ","","","","","","",""
"","","","","","html-keyboard-response","469","2.0.0","349918","pssvz2ql31k","ono","A18552625","21","mae","no","no","0","1","null","<div style=""font-size:60px;"">+</div>","null","","","","","","",""
"","","","","","audio-keyboard-response","470","2.0.0","350580","pssvz2ql31k","ono","A18552625","21","mae","no","no","0","1","null","stimuli/sounds/cough_sound_A.wav","null","","","","","","",""
"","","","","","html-keyboard-response","471","2.0.0","351582","pssvz2ql31k","ono","A18552625","21","mae","no","no","0","1","null","","null","","","","","","",""
"","","","","","image-keyboard-response","472","2.0.0","352450","pssvz2ql31k","ono","A18552625","21","mae","no","no","0","1","868","stimuli/pictures/dog_york_1.jpg","0","0","","true","no","sound","stimuli/sounds/cough_sound_A.wav",""
"","","","","","audio-keyboard-response","473","2.0.0","353452","pssvz2ql31k","ono","A18552625","21","mae","no","no","0","1","null","stimuli/sounds/bleep.wav","null","","","","","","",""
"","","","","","html-keyboard-response","474","2.0.0","353715","pssvz2ql31k","ono","A18552625","21","mae","no","no","0","1","161","<div style=""font-size:30px;"">Press space to start the trial</div>"," ","","","","","","",""
"","","","","","html-keyboard-response","475","2.0.0","353967","pssvz2ql31k","ono","A18552625","21","mae","no","no","0","1","null","<div style=""font-size:60px;"">+</div>","null","","","","","","",""
"","","","","","audio-keyboard-response","476","2.0.0","354578","pssvz2ql31k","ono","A18552625","21","mae","no","no","0","1","null","stimuli/sounds/drop_label_B.wav","null","","","","","","",""
"","","","","","html-keyboard-response","477","2.0.0","355579","pssvz2ql31k","ono","A18552625","21","mae","no","no","0","1","null","","null","","","","","","",""
"","","","","","image-keyboard-response","478","2.0.0","356041","pssvz2ql31k","ono","A18552625","21","mae","no","no","0","1","462","stimuli/pictures/drop_multi_2.jpg","1","1","","true","yes","sound","stimuli/sounds/drop_label_B.wav",""
"","","","","","audio-keyboard-response","479","2.0.0","357043","pssvz2ql31k","ono","A18552625","21","mae","no","no","0","1","null","stimuli/sounds/bleep.wav","null","","","","","","",""
"","","","","","html-keyboard-response","480","2.0.0","357255","pssvz2ql31k","ono","A18552625","21","mae","no","no","0","1","113","<div style=""font-size:30px;"">Press space to start the trial</div>"," ","","","","","","",""
"","","","","","html-keyboard-response","481","2.0.0","357506","pssvz2ql31k","ono","A18552625","21","mae","no","no","0","1","null","<div style=""font-size:60px;"">+</div>","null","","","","","","",""
"","","","","","audio-keyboard-response","482","2.0.0","358106","pssvz2ql31k","ono","A18552625","21","mae","no","no","0","1","null","stimuli/sounds/motor_label_B.wav","null","","","","","","",""
"","","","","","html-keyboard-response","483","2.0.0","359107","pssvz2ql31k","ono","A18552625","21","mae","no","no","0","1","null","","null","","","","","","",""
"","","","","","image-keyboard-response","484","2.0.0","359876","pssvz2ql31k","ono","A18552625","21","mae","no","no","0","1","768","stimuli/pictures/motor_dirt_2.jpg","1","1","","true","yes","sound","stimuli/sounds/motor_label_B.wav",""
"","","","","","audio-keyboard-response","485","2.0.0","360876","pssvz2ql31k","ono","A18552625","21","mae","no","no","0","1","null","stimuli/sounds/bleep.wav","null","","","","","","",""
"","","","","","html-keyboard-response","486","2.0.0","360997","pssvz2ql31k","ono","A18552625","21","mae","no","no","0","1","20","<div style=""font-size:30px;"">Press space to start the trial</div>"," ","","","","","","",""
"","","","","","html-keyboard-response","487","2.0.0","361247","pssvz2ql31k","ono","A18552625","21","mae","no","no","0","1","null","<div style=""font-size:60px;"">+</div>","null","","","","","","",""
"","","","","","audio-keyboard-response","488","2.0.0","361852","pssvz2ql31k","ono","A18552625","21","mae","no","no","0","1","null","stimuli/sounds/drop_sound_B.wav","null","","","","","","",""
"","","","","","html-keyboard-response","489","2.0.0","362854","pssvz2ql31k","ono","A18552625","21","mae","no","no","0","1","null","","null","","","","","","",""
"","","","","","image-keyboard-response","490","2.0.0","363384","pssvz2ql31k","ono","A18552625","21","mae","no","no","0","1","529","stimuli/pictures/dog_rott_1.jpg","0","0","","true","no","sound","stimuli/sounds/drop_sound_B.wav",""
"","","","","","audio-keyboard-response","491","2.0.0","364386","pssvz2ql31k","ono","A18552625","21","mae","no","no","0","1","null","stimuli/sounds/bleep.wav","null","","","","","","",""
