"success","timeout","failed_images","failed_audio","failed_video","trial_type","trial_index","plugin_version","time_elapsed","random_id","condition","participant","age","gender_id","mus_exp","inst_exp","years_exp","mus_listening","rt","stimulus","response","correct_response","practice","correct","congruent","sound_type","audio","question_order"
"true","false","[]","[]","[]","preload","0","2.0.0","1170","ptwkzl2mfvr","ono","jaguar","20","female","yes","yes","7","4","","","","","","","","","",""
"","","","","","html-keyboard-response","1","2.0.0","3063","ptwkzl2mfvr","ono","jaguar","20","female","yes","yes","7","4","1890","Welcome to the experiment! Press any key to begin."," ","","","","","","",""
"true","","","","","fullscreen","2","null","5319","ptwkzl2mfvr","ono","jaguar","20","female","yes","yes","7","4","1239","","","","","","","","",""
"","","","","","survey-text","3","2.0.0","9281","ptwkzl2mfvr","ono","jaguar","20","female","yes","yes","7","4","3952","","{""participant_id"":""jaguar""}","","","","","","",""
"","","","","","html-keyboard-response","4","2.0.0","19104","ptwkzl2mfvr","ono","jaguar","20","female","yes","yes","7","4","9822","
    <p> Please use headphones for the duration of the study.</p>
    <p> Within each trial, you will hear a sound and then be presented with an image in the center of your screen.</p>
    <p>Press the <b>'1'</b> key if what you hear <u>matches</u> what you see.</p>
    <p>Press the <b>'0'</b> key if what you hear <u>does not match</u> what you see.</p>
    <p>Try to respond as quickly and accurately as you can.</p>
    <p> Press any key to begin.</p>
    "," ","","","","","","",""
"","","","","","html-keyboard-response","5","2.0.0","21760","ptwkzl2mfvr","ono","jaguar","20","female","yes","yes","7","4","2655","
    <div style=""font-size:28px;"">
      <p>You will now complete 4 short practice trials.</p>
      <p>This is just to help you get familiar with the task.</p>
      <p>Press any key to begin.</p>
    </div>
  "," ","","","","","","",""
"","","","","","html-keyboard-response","6","2.0.0","22269","ptwkzl2mfvr","ono","jaguar","20","female","yes","yes","7","4","null","<div style=""font-size:60px;"">+</div>","null","","","","","","",""
"","","","","","audio-keyboard-response","7","2.0.0","23777","ptwkzl2mfvr","ono","jaguar","20","female","yes","yes","7","4","null","stimuli/sounds/guitar_label_A.wav","null","","","","","","",""
"","","","","","image-keyboard-response","8","2.0.0","24546","ptwkzl2mfvr","ono","jaguar","20","female","yes","yes","7","4","764","stimuli/pictures/guitar_acoustic_1.jpg","1","1","true","true","","","",""
"","","","","","audio-keyboard-response","9","2.0.0","25359","ptwkzl2mfvr","ono","jaguar","20","female","yes","yes","7","4","null","stimuli/sounds/bleep.wav","null","","","","","","",""
"","","","","","html-keyboard-response","10","2.0.0","26074","ptwkzl2mfvr","ono","jaguar","20","female","yes","yes","7","4","null","<p style='color:green; font-size:30px;'>Correct!</p>","null","","","","","","",""
"","","","","","html-keyboard-response","11","2.0.0","26590","ptwkzl2mfvr","ono","jaguar","20","female","yes","yes","7","4","null","<div style=""font-size:60px;"">+</div>","null","","","","","","",""
"","","","","","audio-keyboard-response","12","2.0.0","27187","ptwkzl2mfvr","ono","jaguar","20","female","yes","yes","7","4","null","stimuli/sounds/guitar_sound_B.wav","null","","","","","","",""
"","","","","","image-keyboard-response","13","2.0.0","27686","ptwkzl2mfvr","ono","jaguar","20","female","yes","yes","7","4","497","stimuli/pictures/guitar_acoustic_2.jpg","1","1","true","true","","","",""
"","","","","","audio-keyboard-response","14","2.0.0","28492","ptwkzl2mfvr","ono","jaguar","20","female","yes","yes","7","4","null","stimuli/sounds/bleep.wav","null","","","","","","",""
"","","","","","html-keyboard-response","15","2.0.0","29200","ptwkzl2mfvr","ono","jaguar","20","female","yes","yes","7","4","null","<p style='color:green; font-size:30px;'>Correct!</p>","null","","","","","","",""
"","","","","","html-keyboard-response","16","2.0.0","29716","ptwkzl2mfvr","ono","jaguar","20","female","yes","yes","7","4","null","<div style=""font-size:60px;"">+</div>","null","","","","","","",""
"","","","","","audio-keyboard-response","17","2.0.0","30327","ptwkzl2mfvr","ono","jaguar","20","female","yes","yes","7","4","null","stimuli/sounds/flute_sound_A.wav","null","","","","","","",""
"","","","","","image-keyboard-response","18","2.0.0","30968","ptwkzl2mfvr","ono","jaguar","20","female","yes","yes","7","4","638","stimuli/pictures/guitar_electric_1.jpg","0","0","true","true","","","",""
"","","","","","audio-keyboard-response","19","2.0.0","31784","ptwkzl2mfvr","ono","jaguar","20","female","yes","yes","7","4","null","stimuli/sounds/bleep.wav","null","","","","","","",""
"","","","","","html-keyboard-response","20","2.0.0","32489","ptwkzl2mfvr","ono","jaguar","20","female","yes","yes","7","4","null","<p style='color:green; font-size:30px;'>Correct!</p>","null","","","","","","",""
"","","","","","html-keyboard-response","21","2.0.0","32994","ptwkzl2mfvr","ono","jaguar","20","female","yes","yes","7","4","null","<div style=""font-size:60px;"">+</div>","null","","","","","","",""
"","","","","","audio-keyboard-response","22","2.0.0","33587","ptwkzl2mfvr","ono","jaguar","20","female","yes","yes","7","4","null","stimuli/sounds/guitar_sound_A.wav","null","","","","","","",""
"","","","","","image-keyboard-response","23","2.0.0","34084","ptwkzl2mfvr","ono","jaguar","20","female","yes","yes","7","4","495","stimuli/pictures/guitar_acoustic_1.jpg","1","1","true","true","","","",""
"","","","","","audio-keyboard-response","24","2.0.0","34890","ptwkzl2mfvr","ono","jaguar","20","female","yes","yes","7","4","null","stimuli/sounds/bleep.wav","null","","","","","","",""
"","","","","","html-keyboard-response","25","2.0.0","35594","ptwkzl2mfvr","ono","jaguar","20","female","yes","yes","7","4","null","<p style='color:green; font-size:30px;'>Correct!</p>","null","","","","","","",""
"","","","","","html-keyboard-response","26","2.0.0","43261","ptwkzl2mfvr","ono","jaguar","20","female","yes","yes","7","4","7665","<p>Practice complete. Press any key to begin the real experiment.</p>"," ","","","","","","",""
"","","","","","html-keyboard-response","27","2.0.0","47004","ptwkzl2mfvr","ono","jaguar","20","female","yes","yes","7","4","3741","<div style=""font-size:30px;"">Press space to start the trial</div>"," ","","","","","","",""
"","","","","","html-keyboard-response","28","2.0.0","47263","ptwkzl2mfvr","ono","jaguar","20","female","yes","yes","7","4","null","<div style=""font-size:60px;"">+</div>","null","","","","","","",""
"","","","","","audio-keyboard-response","29","2.0.0","47857","ptwkzl2mfvr","ono","jaguar","20","female","yes","yes","7","4","null","stimuli/sounds/motor_sound_A.wav","null","","","","","","",""
"","","","","","html-keyboard-response","30","2.0.0","48868","ptwkzl2mfvr","ono","jaguar","20","female","yes","yes","7","4","null","","null","","","","","","",""
"","","","","","image-keyboard-response","31","2.0.0","49405","ptwkzl2mfvr","ono","jaguar","20","female","yes","yes","7","4","534","stimuli/pictures/drop_multi_2.jpg","0","0","","true","no","sound","stimuli/sounds/motor_sound_A.wav",""
"","","","","","audio-keyboard-response","32","2.0.0","50415","ptwkzl2mfvr","ono","jaguar","20","female","yes","yes","7","4","null","stimuli/sounds/bleep.wav","null","","","","","","",""
"","","","","","html-keyboard-response","33","2.0.0","52824","ptwkzl2mfvr","ono","jaguar","20","female","yes","yes","7","4","2294","<div style=""font-size:30px;"">Press space to start the trial</div>"," ","","","","","","",""
"","","","","","html-keyboard-response","34","2.0.0","53075","ptwkzl2mfvr","ono","jaguar","20","female","yes","yes","7","4","null","<div style=""font-size:60px;"">+</div>","null","","","","","","",""
"","","","","","audio-keyboard-response","35","2.0.0","53618","ptwkzl2mfvr","ono","jaguar","20","female","yes","yes","7","4","null","stimuli/sounds/drop_label_A.wav","null","","","","","","",""
"","","","","","html-keyboard-response","36","2.0.0","54622","ptwkzl2mfvr","ono","jaguar","20","female","yes","yes","7","4","null","","null","","","","","","",""
"","","","","","image-keyboard-response","37","2.0.0","55384","ptwkzl2mfvr","ono","jaguar","20","female","yes","yes","7","4","759","stimuli/pictures/hiccup_man_1.jpg","0","0","","true","no","sound","stimuli/sounds/drop_label_A.wav",""
"","","","","","audio-keyboard-response","38","2.0.0","56398","ptwkzl2mfvr","ono","jaguar","20","female","yes","yes","7","4","null","stimuli/sounds/bleep.wav","null","","","","","","",""
"","","","","","html-keyboard-response","39","2.0.0","58263","ptwkzl2mfvr","ono","jaguar","20","female","yes","yes","7","4","1759","<div style=""font-size:30px;"">Press space to start the trial</div>"," ","","","","","","",""
"","","","","","html-keyboard-response","40","2.0.0","58515","ptwkzl2mfvr","ono","jaguar","20","female","yes","yes","7","4","null","<div style=""font-size:60px;"">+</div>","null","","","","","","",""
"","","","","","audio-keyboard-response","41","2.0.0","59117","ptwkzl2mfvr","ono","jaguar","20","female","yes","yes","7","4","null","stimuli/sounds/hiccup_sound_A.wav","null","","","","","","",""
"","","","","","html-keyboard-response","42","2.0.0","60127","ptwkzl2mfvr","ono","jaguar","20","female","yes","yes","7","4","null","","null","","","","","","",""
"","","","","","image-keyboard-response","43","2.0.0","60950","ptwkzl2mfvr","ono","jaguar","20","female","yes","yes","7","4","818","stimuli/pictures/hiccup_wom_2.jpg","1","1","","true","yes","sound","stimuli/sounds/hiccup_sound_A.wav",""
"","","","","","audio-keyboard-response","44","2.0.0","61959","ptwkzl2mfvr","ono","jaguar","20","female","yes","yes","7","4","null","stimuli/sounds/bleep.wav","null","","","","","","",""
"","","","","","html-keyboard-response","45","2.0.0","64235","ptwkzl2mfvr","ono","jaguar","20","female","yes","yes","7","4","2166","<div style=""font-size:30px;"">Press space to start the trial</div>"," ","","","","","","",""
"","","","","","html-keyboard-response","46","2.0.0","64491","ptwkzl2mfvr","ono","jaguar","20","female","yes","yes","7","4","null","<div style=""font-size:60px;"">+</div>","null","","","","","","",""
"","","","","","audio-keyboard-response","47","2.0.0","65040","ptwkzl2mfvr","ono","jaguar","20","female","yes","yes","7","4","null","stimuli/sounds/drop_label_A.wav","null","","","","","","",""
"","","","","","html-keyboard-response","48","2.0.0","66050","ptwkzl2mfvr","ono","jaguar","20","female","yes","yes","7","4","null","","null","","","","","","",""
"","","","","","image-keyboard-response","49","2.0.0","66514","ptwkzl2mfvr","ono","jaguar","20","female","yes","yes","7","4","462","stimuli/pictures/drop_single_1.jpg","1","1","","true","yes","sound","stimuli/sounds/drop_label_A.wav",""
"","","","","","audio-keyboard-response","50","2.0.0","67519","ptwkzl2mfvr","ono","jaguar","20","female","yes","yes","7","4","null","stimuli/sounds/bleep.wav","null","","","","","","",""
"","","","","","html-keyboard-response","51","2.0.0","68943","ptwkzl2mfvr","ono","jaguar","20","female","yes","yes","7","4","1321","<div style=""font-size:30px;"">Press space to start the trial</div>"," ","","","","","","",""
"","","","","","html-keyboard-response","52","2.0.0","69202","ptwkzl2mfvr","ono","jaguar","20","female","yes","yes","7","4","null","<div style=""font-size:60px;"">+</div>","null","","","","","","",""
"","","","","","audio-keyboard-response","53","2.0.0","69880","ptwkzl2mfvr","ono","jaguar","20","female","yes","yes","7","4","null","stimuli/sounds/cough_sound_B.wav","null","","","","","","",""
"","","","","","html-keyboard-response","54","2.0.0","70885","ptwkzl2mfvr","ono","jaguar","20","female","yes","yes","7","4","null","","null","","","","","","",""
"","","","","","image-keyboard-response","55","2.0.0","72024","ptwkzl2mfvr","ono","jaguar","20","female","yes","yes","7","4","1137","stimuli/pictures/hiccup_man_1.jpg","0","0","","true","no","sound","stimuli/sounds/cough_sound_B.wav",""
"","","","","","audio-keyboard-response","56","2.0.0","73028","ptwkzl2mfvr","ono","jaguar","20","female","yes","yes","7","4","null","stimuli/sounds/bleep.wav","null","","","","","","",""
"","","","","","html-keyboard-response","57","2.0.0","75303","ptwkzl2mfvr","ono","jaguar","20","female","yes","yes","7","4","2159","<div style=""font-size:30px;"">Press space to start the trial</div>"," ","","","","","","",""
"","","","","","html-keyboard-response","58","2.0.0","75560","ptwkzl2mfvr","ono","jaguar","20","female","yes","yes","7","4","null","<div style=""font-size:60px;"">+</div>","null","","","","","","",""
"","","","","","audio-keyboard-response","59","2.0.0","76230","ptwkzl2mfvr","ono","jaguar","20","female","yes","yes","7","4","null","stimuli/sounds/cough_sound_A.wav","null","","","","","","",""
"","","","","","html-keyboard-response","60","2.0.0","77237","ptwkzl2mfvr","ono","jaguar","20","female","yes","yes","7","4","null","","null","","","","","","",""
"","","","","","image-keyboard-response","61","2.0.0","77905","ptwkzl2mfvr","ono","jaguar","20","female","yes","yes","7","4","664","stimuli/pictures/dog_york_1.jpg","0","0","","true","no","sound","stimuli/sounds/cough_sound_A.wav",""
"","","","","","audio-keyboard-response","62","2.0.0","78916","ptwkzl2mfvr","ono","jaguar","20","female","yes","yes","7","4","null","stimuli/sounds/bleep.wav","null","","","","","","",""
"","","","","","html-keyboard-response","63","2.0.0","81570","ptwkzl2mfvr","ono","jaguar","20","female","yes","yes","7","4","2539","<div style=""font-size:30px;"">Press space to start the trial</div>"," ","","","","","","",""
"","","","","","html-keyboard-response","64","2.0.0","81827","ptwkzl2mfvr","ono","jaguar","20","female","yes","yes","7","4","null","<div style=""font-size:60px;"">+</div>","null","","","","","","",""
"","","","","","audio-keyboard-response","65","2.0.0","82490","ptwkzl2mfvr","ono","jaguar","20","female","yes","yes","7","4","null","stimuli/sounds/cough_sound_A.wav","null","","","","","","",""
"","","","","","html-keyboard-response","66","2.0.0","83495","ptwkzl2mfvr","ono","jaguar","20","female","yes","yes","7","4","null","","null","","","","","","",""
"","","","","","image-keyboard-response","67","2.0.0","83882","ptwkzl2mfvr","ono","jaguar","20","female","yes","yes","7","4","384","stimuli/pictures/cough_man_1.jpg","1","1","","true","no","sound","stimuli/sounds/cough_sound_A.wav",""
"","","","","","audio-keyboard-response","68","2.0.0","84892","ptwkzl2mfvr","ono","jaguar","20","female","yes","yes","7","4","null","stimuli/sounds/bleep.wav","null","","","","","","",""
"","","","","","html-keyboard-response","69","2.0.0","85881","ptwkzl2mfvr","ono","jaguar","20","female","yes","yes","7","4","881","<div style=""font-size:30px;"">Press space to start the trial</div>"," ","","","","","","",""
"","","","","","html-keyboard-response","70","2.0.0","86138","ptwkzl2mfvr","ono","jaguar","20","female","yes","yes","7","4","null","<div style=""font-size:60px;"">+</div>","null","","","","","","",""
"","","","","","audio-keyboard-response","71","2.0.0","86730","ptwkzl2mfvr","ono","jaguar","20","female","yes","yes","7","4","null","stimuli/sounds/motor_label_B.wav","null","","","","","","",""
"","","","","","html-keyboard-response","72","2.0.0","87738","ptwkzl2mfvr","ono","jaguar","20","female","yes","yes","7","4","null","","null","","","","","","",""
"","","","","","image-keyboard-response","73","2.0.0","88376","ptwkzl2mfvr","ono","jaguar","20","female","yes","yes","7","4","635","stimuli/pictures/motor_dirt_1.jpg","1","1","","true","yes","sound","stimuli/sounds/motor_label_B.wav",""
"","","","","","audio-keyboard-response","74","2.0.0","89388","ptwkzl2mfvr","ono","jaguar","20","female","yes","yes","7","4","null","stimuli/sounds/bleep.wav","null","","","","","","",""
"","","","","","html-keyboard-response","75","2.0.0","91691","ptwkzl2mfvr","ono","jaguar","20","female","yes","yes","7","4","2198","<div style=""font-size:30px;"">Press space to start the trial</div>"," ","","","","","","",""
"","","","","","html-keyboard-response","76","2.0.0","91947","ptwkzl2mfvr","ono","jaguar","20","female","yes","yes","7","4","null","<div style=""font-size:60px;"">+</div>","null","","","","","","",""
"","","","","","audio-keyboard-response","77","2.0.0","92490","ptwkzl2mfvr","ono","jaguar","20","female","yes","yes","7","4","null","stimuli/sounds/drop_label_A.wav","null","","","","","","",""
"","","","","","html-keyboard-response","78","2.0.0","93505","ptwkzl2mfvr","ono","jaguar","20","female","yes","yes","7","4","null","","null","","","","","","",""
"","","","","","image-keyboard-response","79","2.0.0","94077","ptwkzl2mfvr","ono","jaguar","20","female","yes","yes","7","4","568","stimuli/pictures/hiccup_wom_2.jpg","0","0","","true","no","sound","stimuli/sounds/drop_label_A.wav",""
"","","","","","audio-keyboard-response","80","2.0.0","95090","ptwkzl2mfvr","ono","jaguar","20","female","yes","yes","7","4","null","stimuli/sounds/bleep.wav","null","","","","","","",""
"","","","","","html-keyboard-response","81","2.0.0","96018","ptwkzl2mfvr","ono","jaguar","20","female","yes","yes","7","4","811","<div style=""font-size:30px;"">Press space to start the trial</div>"," ","","","","","","",""
"","","","","","html-keyboard-response","82","2.0.0","96272","ptwkzl2mfvr","ono","jaguar","20","female","yes","yes","7","4","null","<div style=""font-size:60px;"">+</div>","null","","","","","","",""
"","","","","","audio-keyboard-response","83","2.0.0","96910","ptwkzl2mfvr","ono","jaguar","20","female","yes","yes","7","4","null","stimuli/sounds/cough_label_A.wav","null","","","","","","",""
"","","","","","html-keyboard-response","84","2.0.0","97918","ptwkzl2mfvr","ono","jaguar","20","female","yes","yes","7","4","null","","null","","","","","","",""
"","","","","","image-keyboard-response","85","2.0.0","98452","ptwkzl2mfvr","ono","jaguar","20","female","yes","yes","7","4","530","stimuli/pictures/cough_wom_1.jpg","1","1","","true","yes","sound","stimuli/sounds/cough_label_A.wav",""
"","","","","","audio-keyboard-response","86","2.0.0","99461","ptwkzl2mfvr","ono","jaguar","20","female","yes","yes","7","4","null","stimuli/sounds/bleep.wav","null","","","","","","",""
"","","","","","html-keyboard-response","87","2.0.0","100325","ptwkzl2mfvr","ono","jaguar","20","female","yes","yes","7","4","756","<div style=""font-size:30px;"">Press space to start the trial</div>"," ","","","","","","",""
"","","","","","html-keyboard-response","88","2.0.0","100578","ptwkzl2mfvr","ono","jaguar","20","female","yes","yes","7","4","null","<div style=""font-size:60px;"">+</div>","null","","","","","","",""
"","","","","","audio-keyboard-response","89","2.0.0","101190","ptwkzl2mfvr","ono","jaguar","20","female","yes","yes","7","4","null","stimuli/sounds/cough_label_B.wav","null","","","","","","",""
"","","","","","html-keyboard-response","90","2.0.0","102193","ptwkzl2mfvr","ono","jaguar","20","female","yes","yes","7","4","null","","null","","","","","","",""
"","","","","","image-keyboard-response","91","2.0.0","102644","ptwkzl2mfvr","ono","jaguar","20","female","yes","yes","7","4","448","stimuli/pictures/cough_man_1.jpg","1","1","","true","yes","sound","stimuli/sounds/cough_label_B.wav",""
"","","","","","audio-keyboard-response","92","2.0.0","103647","ptwkzl2mfvr","ono","jaguar","20","female","yes","yes","7","4","null","stimuli/sounds/bleep.wav","null","","","","","","",""
"","","","","","html-keyboard-response","93","2.0.0","104766","ptwkzl2mfvr","ono","jaguar","20","female","yes","yes","7","4","1012","<div style=""font-size:30px;"">Press space to start the trial</div>"," ","","","","","","",""
"","","","","","html-keyboard-response","94","2.0.0","105022","ptwkzl2mfvr","ono","jaguar","20","female","yes","yes","7","4","null","<div style=""font-size:60px;"">+</div>","null","","","","","","",""
"","","","","","audio-keyboard-response","95","2.0.0","105610","ptwkzl2mfvr","ono","jaguar","20","female","yes","yes","7","4","null","stimuli/sounds/drop_sound_A.wav","null","","","","","","",""
"","","","","","html-keyboard-response","96","2.0.0","106621","ptwkzl2mfvr","ono","jaguar","20","female","yes","yes","7","4","null","","null","","","","","","",""
"","","","","","image-keyboard-response","97","2.0.0","107073","ptwkzl2mfvr","ono","jaguar","20","female","yes","yes","7","4","449","stimuli/pictures/drop_single_1.jpg","1","1","","true","yes","sound","stimuli/sounds/drop_sound_A.wav",""
"","","","","","audio-keyboard-response","98","2.0.0","108081","ptwkzl2mfvr","ono","jaguar","20","female","yes","yes","7","4","null","stimuli/sounds/bleep.wav","null","","","","","","",""
"","","","","","html-keyboard-response","99","2.0.0","109398","ptwkzl2mfvr","ono","jaguar","20","female","yes","yes","7","4","1201","<div style=""font-size:30px;"">Press space to start the trial</div>"," ","","","","","","",""
"","","","","","html-keyboard-response","100","2.0.0","109655","ptwkzl2mfvr","ono","jaguar","20","female","yes","yes","7","4","null","<div style=""font-size:60px;"">+</div>","null","","","","","","",""
"","","","","","audio-keyboard-response","101","2.0.0","110269","ptwkzl2mfvr","ono","jaguar","20","female","yes","yes","7","4","null","stimuli/sounds/drop_label_B.wav","null","","","","","","",""
"","","","","","html-keyboard-response","102","2.0.0","111280","ptwkzl2mfvr","ono","jaguar","20","female","yes","yes","7","4","null","","null","","","","","","",""
"","","","","","image-keyboard-response","103","2.0.0","111855","ptwkzl2mfvr","ono","jaguar","20","female","yes","yes","7","4","572","stimuli/pictures/motor_harley_1.jpg","0","0","","true","no","sound","stimuli/sounds/drop_label_B.wav",""
"","","","","","audio-keyboard-response","104","2.0.0","112858","ptwkzl2mfvr","ono","jaguar","20","female","yes","yes","7","4","null","stimuli/sounds/bleep.wav","null","","","","","","",""
"","","","","","html-keyboard-response","105","2.0.0","114340","ptwkzl2mfvr","ono","jaguar","20","female","yes","yes","7","4","1370","<div style=""font-size:30px;"">Press space to start the trial</div>"," ","","","","","","",""
"","","","","","html-keyboard-response","106","2.0.0","114601","ptwkzl2mfvr","ono","jaguar","20","female","yes","yes","7","4","null","<div style=""font-size:60px;"">+</div>","null","","","","","","",""
"","","","","","audio-keyboard-response","107","2.0.0","115200","ptwkzl2mfvr","ono","jaguar","20","female","yes","yes","7","4","null","stimuli/sounds/motor_sound_B.wav","null","","","","","","",""
"","","","","","html-keyboard-response","108","2.0.0","116207","ptwkzl2mfvr","ono","jaguar","20","female","yes","yes","7","4","null","","null","","","","","","",""
"","","","","","image-keyboard-response","109","2.0.0","116768","ptwkzl2mfvr","ono","jaguar","20","female","yes","yes","7","4","557","stimuli/pictures/motor_harley_2.jpg","1","1","","true","yes","sound","stimuli/sounds/motor_sound_B.wav",""
"","","","","","audio-keyboard-response","110","2.0.0","117775","ptwkzl2mfvr","ono","jaguar","20","female","yes","yes","7","4","null","stimuli/sounds/bleep.wav","null","","","","","","",""
"","","","","","html-keyboard-response","111","2.0.0","119003","ptwkzl2mfvr","ono","jaguar","20","female","yes","yes","7","4","1120","<div style=""font-size:30px;"">Press space to start the trial</div>"," ","","","","","","",""
"","","","","","html-keyboard-response","112","2.0.0","119256","ptwkzl2mfvr","ono","jaguar","20","female","yes","yes","7","4","null","<div style=""font-size:60px;"">+</div>","null","","","","","","",""
"","","","","","audio-keyboard-response","113","2.0.0","119849","ptwkzl2mfvr","ono","jaguar","20","female","yes","yes","7","4","null","stimuli/sounds/motor_sound_B.wav","null","","","","","","",""
"","","","","","html-keyboard-response","114","2.0.0","120861","ptwkzl2mfvr","ono","jaguar","20","female","yes","yes","7","4","null","","null","","","","","","",""
"","","","","","image-keyboard-response","115","2.0.0","121364","ptwkzl2mfvr","ono","jaguar","20","female","yes","yes","7","4","500","stimuli/pictures/motor_harley_1.jpg","1","1","","true","yes","sound","stimuli/sounds/motor_sound_B.wav",""
"","","","","","audio-keyboard-response","116","2.0.0","122381","ptwkzl2mfvr","ono","jaguar","20","female","yes","yes","7","4","null","stimuli/sounds/bleep.wav","null","","","","","","",""
"","","","","","html-keyboard-response","117","2.0.0","123568","ptwkzl2mfvr","ono","jaguar","20","female","yes","yes","7","4","1079","<div style=""font-size:30px;"">Press space to start the trial</div>"," ","","","","","","",""
"","","","","","html-keyboard-response","118","2.0.0","123827","ptwkzl2mfvr","ono","jaguar","20","female","yes","yes","7","4","null","<div style=""font-size:60px;"">+</div>","null","","","","","","",""
"","","","","","audio-keyboard-response","119","2.0.0","124423","ptwkzl2mfvr","ono","jaguar","20","female","yes","yes","7","4","null","stimuli/sounds/dog_label_A.wav","null","","","","","","",""
"","","","","","html-keyboard-response","120","2.0.0","125433","ptwkzl2mfvr","ono","jaguar","20","female","yes","yes","7","4","null","","null","","","","","","",""
"","","","","","image-keyboard-response","121","2.0.0","125947","ptwkzl2mfvr","ono","jaguar","20","female","yes","yes","7","4","511","stimuli/pictures/dog_rott_2.jpg","1","1","","true","yes","sound","stimuli/sounds/dog_label_A.wav",""
"","","","","","audio-keyboard-response","122","2.0.0","126961","ptwkzl2mfvr","ono","jaguar","20","female","yes","yes","7","4","null","stimuli/sounds/bleep.wav","null","","","","","","",""
"","","","","","html-keyboard-response","123","2.0.0","128109","ptwkzl2mfvr","ono","jaguar","20","female","yes","yes","7","4","1042","<div style=""font-size:30px;"">Press space to start the trial</div>"," ","","","","","","",""
"","","","","","html-keyboard-response","124","2.0.0","128366","ptwkzl2mfvr","ono","jaguar","20","female","yes","yes","7","4","null","<div style=""font-size:60px;"">+</div>","null","","","","","","",""
"","","","","","audio-keyboard-response","125","2.0.0","128902","ptwkzl2mfvr","ono","jaguar","20","female","yes","yes","7","4","null","stimuli/sounds/hiccup_label_A.wav","null","","","","","","",""
"","","","","","html-keyboard-response","126","2.0.0","129910","ptwkzl2mfvr","ono","jaguar","20","female","yes","yes","7","4","null","","null","","","","","","",""
"","","","","","image-keyboard-response","127","2.0.0","130656","ptwkzl2mfvr","ono","jaguar","20","female","yes","yes","7","4","743","stimuli/pictures/cough_man_2.jpg","0","0","","true","no","sound","stimuli/sounds/hiccup_label_A.wav",""
"","","","","","audio-keyboard-response","128","2.0.0","131664","ptwkzl2mfvr","ono","jaguar","20","female","yes","yes","7","4","null","stimuli/sounds/bleep.wav","null","","","","","","",""
"","","","","","html-keyboard-response","129","2.0.0","136807","ptwkzl2mfvr","ono","jaguar","20","female","yes","yes","7","4","5025","<div style=""font-size:30px;"">Press space to start the trial</div>"," ","","","","","","",""
"","","","","","html-keyboard-response","130","2.0.0","137070","ptwkzl2mfvr","ono","jaguar","20","female","yes","yes","7","4","null","<div style=""font-size:60px;"">+</div>","null","","","","","","",""
"","","","","","audio-keyboard-response","131","2.0.0","137672","ptwkzl2mfvr","ono","jaguar","20","female","yes","yes","7","4","null","stimuli/sounds/dog_label_A.wav","null","","","","","","",""
"","","","","","html-keyboard-response","132","2.0.0","138679","ptwkzl2mfvr","ono","jaguar","20","female","yes","yes","7","4","null","","null","","","","","","",""
"","","","","","image-keyboard-response","133","2.0.0","139070","ptwkzl2mfvr","ono","jaguar","20","female","yes","yes","7","4","388","stimuli/pictures/drop_multi_1.jpg","0","0","","true","no","sound","stimuli/sounds/dog_label_A.wav",""
"","","","","","audio-keyboard-response","134","2.0.0","140079","ptwkzl2mfvr","ono","jaguar","20","female","yes","yes","7","4","null","stimuli/sounds/bleep.wav","null","","","","","","",""
"","","","","","html-keyboard-response","135","2.0.0","140892","ptwkzl2mfvr","ono","jaguar","20","female","yes","yes","7","4","704","<div style=""font-size:30px;"">Press space to start the trial</div>"," ","","","","","","",""
"","","","","","html-keyboard-response","136","2.0.0","141151","ptwkzl2mfvr","ono","jaguar","20","female","yes","yes","7","4","null","<div style=""font-size:60px;"">+</div>","null","","","","","","",""
"","","","","","audio-keyboard-response","137","2.0.0","141753","ptwkzl2mfvr","ono","jaguar","20","female","yes","yes","7","4","null","stimuli/sounds/motor_label_A.wav","null","","","","","","",""
"","","","","","html-keyboard-response","138","2.0.0","142761","ptwkzl2mfvr","ono","jaguar","20","female","yes","yes","7","4","null","","null","","","","","","",""
"","","","","","image-keyboard-response","139","2.0.0","143255","ptwkzl2mfvr","ono","jaguar","20","female","yes","yes","7","4","491","stimuli/pictures/dog_york_2.jpg","0","0","","true","no","sound","stimuli/sounds/motor_label_A.wav",""
"","","","","","audio-keyboard-response","140","2.0.0","144269","ptwkzl2mfvr","ono","jaguar","20","female","yes","yes","7","4","null","stimuli/sounds/bleep.wav","null","","","","","","",""
"","","","","","html-keyboard-response","141","2.0.0","147450","ptwkzl2mfvr","ono","jaguar","20","female","yes","yes","7","4","3072","<div style=""font-size:30px;"">Press space to start the trial</div>"," ","","","","","","",""
"","","","","","html-keyboard-response","142","2.0.0","147702","ptwkzl2mfvr","ono","jaguar","20","female","yes","yes","7","4","null","<div style=""font-size:60px;"">+</div>","null","","","","","","",""
"","","","","","audio-keyboard-response","143","2.0.0","148292","ptwkzl2mfvr","ono","jaguar","20","female","yes","yes","7","4","null","stimuli/sounds/motor_sound_A.wav","null","","","","","","",""
"","","","","","html-keyboard-response","144","2.0.0","149300","ptwkzl2mfvr","ono","jaguar","20","female","yes","yes","7","4","null","","null","","","","","","",""
"","","","","","image-keyboard-response","145","2.0.0","149881","ptwkzl2mfvr","ono","jaguar","20","female","yes","yes","7","4","578","stimuli/pictures/drop_single_2.jpg","0","0","","true","no","sound","stimuli/sounds/motor_sound_A.wav",""
"","","","","","audio-keyboard-response","146","2.0.0","150894","ptwkzl2mfvr","ono","jaguar","20","female","yes","yes","7","4","null","stimuli/sounds/bleep.wav","null","","","","","","",""
"","","","","","html-keyboard-response","147","2.0.0","153475","ptwkzl2mfvr","ono","jaguar","20","female","yes","yes","7","4","2466","<p>You have completed a block. Press R when you are ready to continue</p>","r","","","","","","",""
"","","","","","html-keyboard-response","148","2.0.0","154299","ptwkzl2mfvr","ono","jaguar","20","female","yes","yes","7","4","822","<div style=""font-size:30px;"">Press space to start the trial</div>"," ","","","","","","",""
"","","","","","html-keyboard-response","149","2.0.0","154551","ptwkzl2mfvr","ono","jaguar","20","female","yes","yes","7","4","null","<div style=""font-size:60px;"">+</div>","null","","","","","","",""
"","","","","","audio-keyboard-response","150","2.0.0","155152","ptwkzl2mfvr","ono","jaguar","20","female","yes","yes","7","4","null","stimuli/sounds/dog_sound_B.wav","null","","","","","","",""
"","","","","","html-keyboard-response","151","2.0.0","156157","ptwkzl2mfvr","ono","jaguar","20","female","yes","yes","7","4","null","","null","","","","","","",""
"","","","","","image-keyboard-response","152","2.0.0","156607","ptwkzl2mfvr","ono","jaguar","20","female","yes","yes","7","4","449","stimuli/pictures/dog_rott_1.jpg","1","1","","true","no","sound","stimuli/sounds/dog_sound_B.wav",""
"","","","","","audio-keyboard-response","153","2.0.0","157615","ptwkzl2mfvr","ono","jaguar","20","female","yes","yes","7","4","null","stimuli/sounds/bleep.wav","null","","","","","","",""
"","","","","","html-keyboard-response","154","2.0.0","159811","ptwkzl2mfvr","ono","jaguar","20","female","yes","yes","7","4","2095","<div style=""font-size:30px;"">Press space to start the trial</div>"," ","","","","","","",""
"","","","","","html-keyboard-response","155","2.0.0","160065","ptwkzl2mfvr","ono","jaguar","20","female","yes","yes","7","4","null","<div style=""font-size:60px;"">+</div>","null","","","","","","",""
"","","","","","audio-keyboard-response","156","2.0.0","160693","ptwkzl2mfvr","ono","jaguar","20","female","yes","yes","7","4","null","stimuli/sounds/cough_label_A.wav","null","","","","","","",""
"","","","","","html-keyboard-response","157","2.0.0","161710","ptwkzl2mfvr","ono","jaguar","20","female","yes","yes","7","4","null","","null","","","","","","",""
"","","","","","image-keyboard-response","158","2.0.0","162210","ptwkzl2mfvr","ono","jaguar","20","female","yes","yes","7","4","498","stimuli/pictures/cough_man_2.jpg","1","1","","true","yes","sound","stimuli/sounds/cough_label_A.wav",""
"","","","","","audio-keyboard-response","159","2.0.0","163219","ptwkzl2mfvr","ono","jaguar","20","female","yes","yes","7","4","null","stimuli/sounds/bleep.wav","null","","","","","","",""
"","","","","","html-keyboard-response","160","2.0.0","163958","ptwkzl2mfvr","ono","jaguar","20","female","yes","yes","7","4","633","<div style=""font-size:30px;"">Press space to start the trial</div>"," ","","","","","","",""
"","","","","","html-keyboard-response","161","2.0.0","164217","ptwkzl2mfvr","ono","jaguar","20","female","yes","yes","7","4","null","<div style=""font-size:60px;"">+</div>","null","","","","","","",""
"","","","","","audio-keyboard-response","162","2.0.0","164823","ptwkzl2mfvr","ono","jaguar","20","female","yes","yes","7","4","null","stimuli/sounds/hiccup_sound_A.wav","null","","","","","","",""
"","","","","","html-keyboard-response","163","2.0.0","165833","ptwkzl2mfvr","ono","jaguar","20","female","yes","yes","7","4","null","","null","","","","","","",""
"","","","","","image-keyboard-response","164","2.0.0","166668","ptwkzl2mfvr","ono","jaguar","20","female","yes","yes","7","4","833","stimuli/pictures/hiccup_man_1.jpg","1","1","","true","no","sound","stimuli/sounds/hiccup_sound_A.wav",""
"","","","","","audio-keyboard-response","165","2.0.0","167671","ptwkzl2mfvr","ono","jaguar","20","female","yes","yes","7","4","null","stimuli/sounds/bleep.wav","null","","","","","","",""
"","","","","","html-keyboard-response","166","2.0.0","170207","ptwkzl2mfvr","ono","jaguar","20","female","yes","yes","7","4","2428","<div style=""font-size:30px;"">Press space to start the trial</div>"," ","","","","","","",""
"","","","","","html-keyboard-response","167","2.0.0","170468","ptwkzl2mfvr","ono","jaguar","20","female","yes","yes","7","4","null","<div style=""font-size:60px;"">+</div>","null","","","","","","",""
"","","","","","audio-keyboard-response","168","2.0.0","171072","ptwkzl2mfvr","ono","jaguar","20","female","yes","yes","7","4","null","stimuli/sounds/hiccup_label_B.wav","null","","","","","","",""
"","","","","","html-keyboard-response","169","2.0.0","172077","ptwkzl2mfvr","ono","jaguar","20","female","yes","yes","7","4","null","","null","","","","","","",""
"","","","","","image-keyboard-response","170","2.0.0","172767","ptwkzl2mfvr","ono","jaguar","20","female","yes","yes","7","4","688","stimuli/pictures/hiccup_wom_2.jpg","1","1","","true","yes","sound","stimuli/sounds/hiccup_label_B.wav",""
"","","","","","audio-keyboard-response","171","2.0.0","173771","ptwkzl2mfvr","ono","jaguar","20","female","yes","yes","7","4","null","stimuli/sounds/bleep.wav","null","","","","","","",""
"","","","","","html-keyboard-response","172","2.0.0","174976","ptwkzl2mfvr","ono","jaguar","20","female","yes","yes","7","4","1096","<div style=""font-size:30px;"">Press space to start the trial</div>"," ","","","","","","",""
"","","","","","html-keyboard-response","173","2.0.0","175241","ptwkzl2mfvr","ono","jaguar","20","female","yes","yes","7","4","null","<div style=""font-size:60px;"">+</div>","null","","","","","","",""
"","","","","","audio-keyboard-response","174","2.0.0","175833","ptwkzl2mfvr","ono","jaguar","20","female","yes","yes","7","4","null","stimuli/sounds/dog_label_A.wav","null","","","","","","",""
"","","","","","html-keyboard-response","175","2.0.0","176842","ptwkzl2mfvr","ono","jaguar","20","female","yes","yes","7","4","null","","null","","","","","","",""
"","","","","","image-keyboard-response","176","2.0.0","177261","ptwkzl2mfvr","ono","jaguar","20","female","yes","yes","7","4","417","stimuli/pictures/drop_multi_2.jpg","0","0","","true","no","sound","stimuli/sounds/dog_label_A.wav",""
"","","","","","audio-keyboard-response","177","2.0.0","178263","ptwkzl2mfvr","ono","jaguar","20","female","yes","yes","7","4","null","stimuli/sounds/bleep.wav","null","","","","","","",""
"","","","","","html-keyboard-response","178","2.0.0","179048","ptwkzl2mfvr","ono","jaguar","20","female","yes","yes","7","4","668","<div style=""font-size:30px;"">Press space to start the trial</div>"," ","","","","","","",""
"","","","","","html-keyboard-response","179","2.0.0","179307","ptwkzl2mfvr","ono","jaguar","20","female","yes","yes","7","4","null","<div style=""font-size:60px;"">+</div>","null","","","","","","",""
"","","","","","audio-keyboard-response","180","2.0.0","179912","ptwkzl2mfvr","ono","jaguar","20","female","yes","yes","7","4","null","stimuli/sounds/hiccup_sound_A.wav","null","","","","","","",""
"","","","","","html-keyboard-response","181","2.0.0","180921","ptwkzl2mfvr","ono","jaguar","20","female","yes","yes","7","4","null","","null","","","","","","",""
"","","","","","image-keyboard-response","182","2.0.0","181460","ptwkzl2mfvr","ono","jaguar","20","female","yes","yes","7","4","536","stimuli/pictures/motor_dirt_1.jpg","0","0","","true","no","sound","stimuli/sounds/hiccup_sound_A.wav",""
"","","","","","audio-keyboard-response","183","2.0.0","182468","ptwkzl2mfvr","ono","jaguar","20","female","yes","yes","7","4","null","stimuli/sounds/bleep.wav","null","","","","","","",""
"","","","","","html-keyboard-response","184","2.0.0","183093","ptwkzl2mfvr","ono","jaguar","20","female","yes","yes","7","4","519","<div style=""font-size:30px;"">Press space to start the trial</div>"," ","","","","","","",""
"","","","","","html-keyboard-response","185","2.0.0","183352","ptwkzl2mfvr","ono","jaguar","20","female","yes","yes","7","4","null","<div style=""font-size:60px;"">+</div>","null","","","","","","",""
"","","","","","audio-keyboard-response","186","2.0.0","183955","ptwkzl2mfvr","ono","jaguar","20","female","yes","yes","7","4","null","stimuli/sounds/drop_sound_B.wav","null","","","","","","",""
"","","","","","html-keyboard-response","187","2.0.0","184967","ptwkzl2mfvr","ono","jaguar","20","female","yes","yes","7","4","null","","null","","","","","","",""
"","","","","","image-keyboard-response","188","2.0.0","185590","ptwkzl2mfvr","ono","jaguar","20","female","yes","yes","7","4","621","stimuli/pictures/dog_rott_1.jpg","0","0","","true","no","sound","stimuli/sounds/drop_sound_B.wav",""
"","","","","","audio-keyboard-response","189","2.0.0","186605","ptwkzl2mfvr","ono","jaguar","20","female","yes","yes","7","4","null","stimuli/sounds/bleep.wav","null","","","","","","",""
"","","","","","html-keyboard-response","190","2.0.0","187199","ptwkzl2mfvr","ono","jaguar","20","female","yes","yes","7","4","484","<div style=""font-size:30px;"">Press space to start the trial</div>"," ","","","","","","",""
"","","","","","html-keyboard-response","191","2.0.0","187454","ptwkzl2mfvr","ono","jaguar","20","female","yes","yes","7","4","null","<div style=""font-size:60px;"">+</div>","null","","","","","","",""
"","","","","","audio-keyboard-response","192","2.0.0","188085","ptwkzl2mfvr","ono","jaguar","20","female","yes","yes","7","4","null","stimuli/sounds/cough_label_A.wav","null","","","","","","",""
"","","","","","html-keyboard-response","193","2.0.0","189091","ptwkzl2mfvr","ono","jaguar","20","female","yes","yes","7","4","null","","null","","","","","","",""
"","","","","","image-keyboard-response","194","2.0.0","189532","ptwkzl2mfvr","ono","jaguar","20","female","yes","yes","7","4","438","stimuli/pictures/cough_man_1.jpg","1","1","","true","yes","sound","stimuli/sounds/cough_label_A.wav",""
"","","","","","audio-keyboard-response","195","2.0.0","190543","ptwkzl2mfvr","ono","jaguar","20","female","yes","yes","7","4","null","stimuli/sounds/bleep.wav","null","","","","","","",""
"","","","","","html-keyboard-response","196","2.0.0","191002","ptwkzl2mfvr","ono","jaguar","20","female","yes","yes","7","4","346","<div style=""font-size:30px;"">Press space to start the trial</div>"," ","","","","","","",""
"","","","","","html-keyboard-response","197","2.0.0","191254","ptwkzl2mfvr","ono","jaguar","20","female","yes","yes","7","4","null","<div style=""font-size:60px;"">+</div>","null","","","","","","",""
"","","","","","audio-keyboard-response","198","2.0.0","191865","ptwkzl2mfvr","ono","jaguar","20","female","yes","yes","7","4","null","stimuli/sounds/drop_sound_B.wav","null","","","","","","",""
"","","","","","html-keyboard-response","199","2.0.0","192867","ptwkzl2mfvr","ono","jaguar","20","female","yes","yes","7","4","null","","null","","","","","","",""
"","","","","","image-keyboard-response","200","2.0.0","193378","ptwkzl2mfvr","ono","jaguar","20","female","yes","yes","7","4","510","stimuli/pictures/drop_single_2.jpg","1","1","","true","no","sound","stimuli/sounds/drop_sound_B.wav",""
"","","","","","audio-keyboard-response","201","2.0.0","194386","ptwkzl2mfvr","ono","jaguar","20","female","yes","yes","7","4","null","stimuli/sounds/bleep.wav","null","","","","","","",""
"","","","","","html-keyboard-response","202","2.0.0","194880","ptwkzl2mfvr","ono","jaguar","20","female","yes","yes","7","4","391","<div style=""font-size:30px;"">Press space to start the trial</div>"," ","","","","","","",""
"","","","","","html-keyboard-response","203","2.0.0","195133","ptwkzl2mfvr","ono","jaguar","20","female","yes","yes","7","4","null","<div style=""font-size:60px;"">+</div>","null","","","","","","",""
"","","","","","audio-keyboard-response","204","2.0.0","195665","ptwkzl2mfvr","ono","jaguar","20","female","yes","yes","7","4","null","stimuli/sounds/hiccup_label_A.wav","null","","","","","","",""
"","","","","","html-keyboard-response","205","2.0.0","196678","ptwkzl2mfvr","ono","jaguar","20","female","yes","yes","7","4","null","","null","","","","","","",""
"","","","","","image-keyboard-response","206","2.0.0","197094","ptwkzl2mfvr","ono","jaguar","20","female","yes","yes","7","4","413","stimuli/pictures/hiccup_man_2.jpg","1","1","","true","yes","sound","stimuli/sounds/hiccup_label_A.wav",""
"","","","","","audio-keyboard-response","207","2.0.0","198096","ptwkzl2mfvr","ono","jaguar","20","female","yes","yes","7","4","null","stimuli/sounds/bleep.wav","null","","","","","","",""
"","","","","","html-keyboard-response","208","2.0.0","198809","ptwkzl2mfvr","ono","jaguar","20","female","yes","yes","7","4","607","<div style=""font-size:30px;"">Press space to start the trial</div>"," ","","","","","","",""
"","","","","","html-keyboard-response","209","2.0.0","199065","ptwkzl2mfvr","ono","jaguar","20","female","yes","yes","7","4","null","<div style=""font-size:60px;"">+</div>","null","","","","","","",""
"","","","","","audio-keyboard-response","210","2.0.0","199605","ptwkzl2mfvr","ono","jaguar","20","female","yes","yes","7","4","null","stimuli/sounds/hiccup_label_A.wav","null","","","","","","",""
"","","","","","html-keyboard-response","211","2.0.0","200612","ptwkzl2mfvr","ono","jaguar","20","female","yes","yes","7","4","null","","null","","","","","","",""
"","","","","","image-keyboard-response","212","2.0.0","201017","ptwkzl2mfvr","ono","jaguar","20","female","yes","yes","7","4","402","stimuli/pictures/hiccup_wom_2.jpg","1","1","","true","yes","sound","stimuli/sounds/hiccup_label_A.wav",""
"","","","","","audio-keyboard-response","213","2.0.0","202030","ptwkzl2mfvr","ono","jaguar","20","female","yes","yes","7","4","null","stimuli/sounds/bleep.wav","null","","","","","","",""
"","","","","","html-keyboard-response","214","2.0.0","202848","ptwkzl2mfvr","ono","jaguar","20","female","yes","yes","7","4","710","<div style=""font-size:30px;"">Press space to start the trial</div>"," ","","","","","","",""
"","","","","","html-keyboard-response","215","2.0.0","203102","ptwkzl2mfvr","ono","jaguar","20","female","yes","yes","7","4","null","<div style=""font-size:60px;"">+</div>","null","","","","","","",""
"","","","","","audio-keyboard-response","216","2.0.0","203705","ptwkzl2mfvr","ono","jaguar","20","female","yes","yes","7","4","null","stimuli/sounds/hiccup_sound_B.wav","null","","","","","","",""
"","","","","","html-keyboard-response","217","2.0.0","204709","ptwkzl2mfvr","ono","jaguar","20","female","yes","yes","7","4","null","","null","","","","","","",""
"","","","","","image-keyboard-response","218","2.0.0","205131","ptwkzl2mfvr","ono","jaguar","20","female","yes","yes","7","4","420","stimuli/pictures/drop_single_2.jpg","0","0","","true","no","sound","stimuli/sounds/hiccup_sound_B.wav",""
"","","","","","audio-keyboard-response","219","2.0.0","206140","ptwkzl2mfvr","ono","jaguar","20","female","yes","yes","7","4","null","stimuli/sounds/bleep.wav","null","","","","","","",""
"","","","","","html-keyboard-response","220","2.0.0","206751","ptwkzl2mfvr","ono","jaguar","20","female","yes","yes","7","4","499","<div style=""font-size:30px;"">Press space to start the trial</div>"," ","","","","","","",""
"","","","","","html-keyboard-response","221","2.0.0","207005","ptwkzl2mfvr","ono","jaguar","20","female","yes","yes","7","4","null","<div style=""font-size:60px;"">+</div>","null","","","","","","",""
"","","","","","audio-keyboard-response","222","2.0.0","207645","ptwkzl2mfvr","ono","jaguar","20","female","yes","yes","7","4","null","stimuli/sounds/cough_label_A.wav","null","","","","","","",""
"","","","","","html-keyboard-response","223","2.0.0","208653","ptwkzl2mfvr","ono","jaguar","20","female","yes","yes","7","4","null","","null","","","","","","",""
"","","","","","image-keyboard-response","224","2.0.0","209089","ptwkzl2mfvr","ono","jaguar","20","female","yes","yes","7","4","435","stimuli/pictures/motor_dirt_1.jpg","0","0","","true","no","sound","stimuli/sounds/cough_label_A.wav",""
"","","","","","audio-keyboard-response","225","2.0.0","210106","ptwkzl2mfvr","ono","jaguar","20","female","yes","yes","7","4","null","stimuli/sounds/bleep.wav","null","","","","","","",""
"","","","","","html-keyboard-response","226","2.0.0","210592","ptwkzl2mfvr","ono","jaguar","20","female","yes","yes","7","4","383","<div style=""font-size:30px;"">Press space to start the trial</div>"," ","","","","","","",""
"","","","","","html-keyboard-response","227","2.0.0","210849","ptwkzl2mfvr","ono","jaguar","20","female","yes","yes","7","4","null","<div style=""font-size:60px;"">+</div>","null","","","","","","",""
"","","","","","audio-keyboard-response","228","2.0.0","211455","ptwkzl2mfvr","ono","jaguar","20","female","yes","yes","7","4","null","stimuli/sounds/hiccup_sound_B.wav","null","","","","","","",""
"","","","","","html-keyboard-response","229","2.0.0","212462","ptwkzl2mfvr","ono","jaguar","20","female","yes","yes","7","4","null","","null","","","","","","",""
"","","","","","image-keyboard-response","230","2.0.0","212790","ptwkzl2mfvr","ono","jaguar","20","female","yes","yes","7","4","327","stimuli/pictures/hiccup_man_2.jpg","1","1","","true","yes","sound","stimuli/sounds/hiccup_sound_B.wav",""
"","","","","","audio-keyboard-response","231","2.0.0","213793","ptwkzl2mfvr","ono","jaguar","20","female","yes","yes","7","4","null","stimuli/sounds/bleep.wav","null","","","","","","",""
"","","","","","html-keyboard-response","232","2.0.0","214198","ptwkzl2mfvr","ono","jaguar","20","female","yes","yes","7","4","288","<div style=""font-size:30px;"">Press space to start the trial</div>"," ","","","","","","",""
"","","","","","html-keyboard-response","233","2.0.0","214462","ptwkzl2mfvr","ono","jaguar","20","female","yes","yes","7","4","null","<div style=""font-size:60px;"">+</div>","null","","","","","","",""
"","","","","","audio-keyboard-response","234","2.0.0","215055","ptwkzl2mfvr","ono","jaguar","20","female","yes","yes","7","4","null","stimuli/sounds/motor_label_B.wav","null","","","","","","",""
"","","","","","html-keyboard-response","235","2.0.0","216063","ptwkzl2mfvr","ono","jaguar","20","female","yes","yes","7","4","null","","null","","","","","","",""
"","","","","","image-keyboard-response","236","2.0.0","216470","ptwkzl2mfvr","ono","jaguar","20","female","yes","yes","7","4","405","stimuli/pictures/hiccup_wom_1.jpg","0","0","","true","no","sound","stimuli/sounds/motor_label_B.wav",""
"","","","","","audio-keyboard-response","237","2.0.0","217475","ptwkzl2mfvr","ono","jaguar","20","female","yes","yes","7","4","null","stimuli/sounds/bleep.wav","null","","","","","","",""
"","","","","","html-keyboard-response","238","2.0.0","218508","ptwkzl2mfvr","ono","jaguar","20","female","yes","yes","7","4","925","<div style=""font-size:30px;"">Press space to start the trial</div>"," ","","","","","","",""
"","","","","","html-keyboard-response","239","2.0.0","218765","ptwkzl2mfvr","ono","jaguar","20","female","yes","yes","7","4","null","<div style=""font-size:60px;"">+</div>","null","","","","","","",""
"","","","","","audio-keyboard-response","240","2.0.0","219375","ptwkzl2mfvr","ono","jaguar","20","female","yes","yes","7","4","null","stimuli/sounds/cough_label_B.wav","null","","","","","","",""
"","","","","","html-keyboard-response","241","2.0.0","220381","ptwkzl2mfvr","ono","jaguar","20","female","yes","yes","7","4","null","","null","","","","","","",""
"","","","","","image-keyboard-response","242","2.0.0","220849","ptwkzl2mfvr","ono","jaguar","20","female","yes","yes","7","4","466","stimuli/pictures/drop_single_1.jpg","0","0","","true","no","sound","stimuli/sounds/cough_label_B.wav",""
"","","","","","audio-keyboard-response","243","2.0.0","221856","ptwkzl2mfvr","ono","jaguar","20","female","yes","yes","7","4","null","stimuli/sounds/bleep.wav","null","","","","","","",""
"","","","","","html-keyboard-response","244","2.0.0","222366","ptwkzl2mfvr","ono","jaguar","20","female","yes","yes","7","4","402","<div style=""font-size:30px;"">Press space to start the trial</div>"," ","","","","","","",""
"","","","","","html-keyboard-response","245","2.0.0","222629","ptwkzl2mfvr","ono","jaguar","20","female","yes","yes","7","4","null","<div style=""font-size:60px;"">+</div>","null","","","","","","",""
"","","","","","audio-keyboard-response","246","2.0.0","223225","ptwkzl2mfvr","ono","jaguar","20","female","yes","yes","7","4","null","stimuli/sounds/dog_label_A.wav","null","","","","","","",""
"","","","","","html-keyboard-response","247","2.0.0","224236","ptwkzl2mfvr","ono","jaguar","20","female","yes","yes","7","4","null","","null","","","","","","",""
"","","","","","image-keyboard-response","248","2.0.0","224621","ptwkzl2mfvr","ono","jaguar","20","female","yes","yes","7","4","383","stimuli/pictures/drop_single_1.jpg","0","0","","true","no","sound","stimuli/sounds/dog_label_A.wav",""
"","","","","","audio-keyboard-response","249","2.0.0","225626","ptwkzl2mfvr","ono","jaguar","20","female","yes","yes","7","4","null","stimuli/sounds/bleep.wav","null","","","","","","",""
"","","","","","html-keyboard-response","250","2.0.0","226079","ptwkzl2mfvr","ono","jaguar","20","female","yes","yes","7","4","349","<div style=""font-size:30px;"">Press space to start the trial</div>"," ","","","","","","",""
"","","","","","html-keyboard-response","251","2.0.0","226332","ptwkzl2mfvr","ono","jaguar","20","female","yes","yes","7","4","null","<div style=""font-size:60px;"">+</div>","null","","","","","","",""
"","","","","","audio-keyboard-response","252","2.0.0","226926","ptwkzl2mfvr","ono","jaguar","20","female","yes","yes","7","4","null","stimuli/sounds/motor_sound_B.wav","null","","","","","","",""
"","","","","","html-keyboard-response","253","2.0.0","227935","ptwkzl2mfvr","ono","jaguar","20","female","yes","yes","7","4","null","","null","","","","","","",""
"","","","","","image-keyboard-response","254","2.0.0","228325","ptwkzl2mfvr","ono","jaguar","20","female","yes","yes","7","4","386","stimuli/pictures/cough_man_2.jpg","0","0","","true","no","sound","stimuli/sounds/motor_sound_B.wav",""
"","","","","","audio-keyboard-response","255","2.0.0","229328","ptwkzl2mfvr","ono","jaguar","20","female","yes","yes","7","4","null","stimuli/sounds/bleep.wav","null","","","","","","",""
"","","","","","html-keyboard-response","256","2.0.0","229908","ptwkzl2mfvr","ono","jaguar","20","female","yes","yes","7","4","472","<div style=""font-size:30px;"">Press space to start the trial</div>"," ","","","","","","",""
"","","","","","html-keyboard-response","257","2.0.0","230168","ptwkzl2mfvr","ono","jaguar","20","female","yes","yes","7","4","null","<div style=""font-size:60px;"">+</div>","null","","","","","","",""
"","","","","","audio-keyboard-response","258","2.0.0","230775","ptwkzl2mfvr","ono","jaguar","20","female","yes","yes","7","4","null","stimuli/sounds/hiccup_label_B.wav","null","","","","","","",""
"","","","","","html-keyboard-response","259","2.0.0","231783","ptwkzl2mfvr","ono","jaguar","20","female","yes","yes","7","4","null","","null","","","","","","",""
"","","","","","image-keyboard-response","260","2.0.0","232385","ptwkzl2mfvr","ono","jaguar","20","female","yes","yes","7","4","601","stimuli/pictures/hiccup_man_1.jpg","1","1","","true","yes","sound","stimuli/sounds/hiccup_label_B.wav",""
"","","","","","audio-keyboard-response","261","2.0.0","233390","ptwkzl2mfvr","ono","jaguar","20","female","yes","yes","7","4","null","stimuli/sounds/bleep.wav","null","","","","","","",""
"","","","","","html-keyboard-response","262","2.0.0","233963","ptwkzl2mfvr","ono","jaguar","20","female","yes","yes","7","4","471","<div style=""font-size:30px;"">Press space to start the trial</div>"," ","","","","","","",""
"","","","","","html-keyboard-response","263","2.0.0","234223","ptwkzl2mfvr","ono","jaguar","20","female","yes","yes","7","4","null","<div style=""font-size:60px;"">+</div>","null","","","","","","",""
"","","","","","audio-keyboard-response","264","2.0.0","234835","ptwkzl2mfvr","ono","jaguar","20","female","yes","yes","7","4","null","stimuli/sounds/dog_sound_A.wav","null","","","","","","",""
"","","","","","html-keyboard-response","265","2.0.0","235838","ptwkzl2mfvr","ono","jaguar","20","female","yes","yes","7","4","null","","null","","","","","","",""
"","","","","","image-keyboard-response","266","2.0.0","236305","ptwkzl2mfvr","ono","jaguar","20","female","yes","yes","7","4","466","stimuli/pictures/hiccup_wom_1.jpg","0","0","","true","no","sound","stimuli/sounds/dog_sound_A.wav",""
"","","","","","audio-keyboard-response","267","2.0.0","237313","ptwkzl2mfvr","ono","jaguar","20","female","yes","yes","7","4","null","stimuli/sounds/bleep.wav","null","","","","","","",""
"","","","","","html-keyboard-response","268","2.0.0","239720","ptwkzl2mfvr","ono","jaguar","20","female","yes","yes","7","4","2296","<p>You have completed a block. Press R when you are ready to continue</p>","r","","","","","","",""
"","","","","","html-keyboard-response","269","2.0.0","240708","ptwkzl2mfvr","ono","jaguar","20","female","yes","yes","7","4","987","<div style=""font-size:30px;"">Press space to start the trial</div>"," ","","","","","","",""
"","","","","","html-keyboard-response","270","2.0.0","240966","ptwkzl2mfvr","ono","jaguar","20","female","yes","yes","7","4","null","<div style=""font-size:60px;"">+</div>","null","","","","","","",""
"","","","","","audio-keyboard-response","271","2.0.0","241558","ptwkzl2mfvr","ono","jaguar","20","female","yes","yes","7","4","null","stimuli/sounds/motor_sound_B.wav","null","","","","","","",""
"","","","","","html-keyboard-response","272","2.0.0","242566","ptwkzl2mfvr","ono","jaguar","20","female","yes","yes","7","4","null","","null","","","","","","",""
"","","","","","image-keyboard-response","273","2.0.0","242918","ptwkzl2mfvr","ono","jaguar","20","female","yes","yes","7","4","349","stimuli/pictures/cough_wom_1.jpg","0","0","","true","no","sound","stimuli/sounds/motor_sound_B.wav",""
"","","","","","audio-keyboard-response","274","2.0.0","243922","ptwkzl2mfvr","ono","jaguar","20","female","yes","yes","7","4","null","stimuli/sounds/bleep.wav","null","","","","","","",""
"","","","","","html-keyboard-response","275","2.0.0","244320","ptwkzl2mfvr","ono","jaguar","20","female","yes","yes","7","4","295","<div style=""font-size:30px;"">Press space to start the trial</div>"," ","","","","","","",""
"","","","","","html-keyboard-response","276","2.0.0","244574","ptwkzl2mfvr","ono","jaguar","20","female","yes","yes","7","4","null","<div style=""font-size:60px;"">+</div>","null","","","","","","",""
"","","","","","audio-keyboard-response","277","2.0.0","245168","ptwkzl2mfvr","ono","jaguar","20","female","yes","yes","7","4","null","stimuli/sounds/motor_label_A.wav","null","","","","","","",""
"","","","","","html-keyboard-response","278","2.0.0","246181","ptwkzl2mfvr","ono","jaguar","20","female","yes","yes","7","4","null","","null","","","","","","",""
"","","","","","image-keyboard-response","279","2.0.0","246520","ptwkzl2mfvr","ono","jaguar","20","female","yes","yes","7","4","338","stimuli/pictures/motor_dirt_1.jpg","1","1","","true","yes","sound","stimuli/sounds/motor_label_A.wav",""
"","","","","","audio-keyboard-response","280","2.0.0","247525","ptwkzl2mfvr","ono","jaguar","20","female","yes","yes","7","4","null","stimuli/sounds/bleep.wav","null","","","","","","",""
"","","","","","html-keyboard-response","281","2.0.0","248282","ptwkzl2mfvr","ono","jaguar","20","female","yes","yes","7","4","647","<div style=""font-size:30px;"">Press space to start the trial</div>"," ","","","","","","",""
"","","","","","html-keyboard-response","282","2.0.0","248542","ptwkzl2mfvr","ono","jaguar","20","female","yes","yes","7","4","null","<div style=""font-size:60px;"">+</div>","null","","","","","","",""
"","","","","","audio-keyboard-response","283","2.0.0","249138","ptwkzl2mfvr","ono","jaguar","20","female","yes","yes","7","4","null","stimuli/sounds/motor_sound_A.wav","null","","","","","","",""
"","","","","","html-keyboard-response","284","2.0.0","250139","ptwkzl2mfvr","ono","jaguar","20","female","yes","yes","7","4","null","","null","","","","","","",""
"","","","","","image-keyboard-response","285","2.0.0","250506","ptwkzl2mfvr","ono","jaguar","20","female","yes","yes","7","4","364","stimuli/pictures/motor_dirt_1.jpg","1","1","","true","yes","sound","stimuli/sounds/motor_sound_A.wav",""
"","","","","","audio-keyboard-response","286","2.0.0","251515","ptwkzl2mfvr","ono","jaguar","20","female","yes","yes","7","4","null","stimuli/sounds/bleep.wav","null","","","","","","",""
"","","","","","html-keyboard-response","287","2.0.0","251922","ptwkzl2mfvr","ono","jaguar","20","female","yes","yes","7","4","298","<div style=""font-size:30px;"">Press space to start the trial</div>"," ","","","","","","",""
"","","","","","html-keyboard-response","288","2.0.0","252177","ptwkzl2mfvr","ono","jaguar","20","female","yes","yes","7","4","null","<div style=""font-size:60px;"">+</div>","null","","","","","","",""
"","","","","","audio-keyboard-response","289","2.0.0","252818","ptwkzl2mfvr","ono","jaguar","20","female","yes","yes","7","4","null","stimuli/sounds/cough_label_A.wav","null","","","","","","",""
"","","","","","html-keyboard-response","290","2.0.0","253829","ptwkzl2mfvr","ono","jaguar","20","female","yes","yes","7","4","null","","null","","","","","","",""
"","","","","","image-keyboard-response","291","2.0.0","254273","ptwkzl2mfvr","ono","jaguar","20","female","yes","yes","7","4","442","stimuli/pictures/motor_dirt_2.jpg","0","0","","true","no","sound","stimuli/sounds/cough_label_A.wav",""
"","","","","","audio-keyboard-response","292","2.0.0","255283","ptwkzl2mfvr","ono","jaguar","20","female","yes","yes","7","4","null","stimuli/sounds/bleep.wav","null","","","","","","",""
"","","","","","html-keyboard-response","293","2.0.0","256271","ptwkzl2mfvr","ono","jaguar","20","female","yes","yes","7","4","880","<div style=""font-size:30px;"">Press space to start the trial</div>"," ","","","","","","",""
"","","","","","html-keyboard-response","294","2.0.0","256529","ptwkzl2mfvr","ono","jaguar","20","female","yes","yes","7","4","null","<div style=""font-size:60px;"">+</div>","null","","","","","","",""
"","","","","","audio-keyboard-response","295","2.0.0","257138","ptwkzl2mfvr","ono","jaguar","20","female","yes","yes","7","4","null","stimuli/sounds/drop_label_B.wav","null","","","","","","",""
"","","","","","html-keyboard-response","296","2.0.0","258146","ptwkzl2mfvr","ono","jaguar","20","female","yes","yes","7","4","null","","null","","","","","","",""
"","","","","","image-keyboard-response","297","2.0.0","258528","ptwkzl2mfvr","ono","jaguar","20","female","yes","yes","7","4","380","stimuli/pictures/motor_harley_2.jpg","0","0","","true","no","sound","stimuli/sounds/drop_label_B.wav",""
"","","","","","audio-keyboard-response","298","2.0.0","259536","ptwkzl2mfvr","ono","jaguar","20","female","yes","yes","7","4","null","stimuli/sounds/bleep.wav","null","","","","","","",""
"","","","","","html-keyboard-response","299","2.0.0","260223","ptwkzl2mfvr","ono","jaguar","20","female","yes","yes","7","4","576","<div style=""font-size:30px;"">Press space to start the trial</div>"," ","","","","","","",""
"","","","","","html-keyboard-response","300","2.0.0","260487","ptwkzl2mfvr","ono","jaguar","20","female","yes","yes","7","4","null","<div style=""font-size:60px;"">+</div>","null","","","","","","",""
"","","","","","audio-keyboard-response","301","2.0.0","261088","ptwkzl2mfvr","ono","jaguar","20","female","yes","yes","7","4","null","stimuli/sounds/motor_label_A.wav","null","","","","","","",""
"","","","","","html-keyboard-response","302","2.0.0","262099","ptwkzl2mfvr","ono","jaguar","20","female","yes","yes","7","4","null","","null","","","","","","",""
"","","","","","image-keyboard-response","303","2.0.0","262539","ptwkzl2mfvr","ono","jaguar","20","female","yes","yes","7","4","438","stimuli/pictures/dog_rott_1.jpg","0","0","","true","no","sound","stimuli/sounds/motor_label_A.wav",""
"","","","","","audio-keyboard-response","304","2.0.0","263546","ptwkzl2mfvr","ono","jaguar","20","female","yes","yes","7","4","null","stimuli/sounds/bleep.wav","null","","","","","","",""
"","","","","","html-keyboard-response","305","2.0.0","264061","ptwkzl2mfvr","ono","jaguar","20","female","yes","yes","7","4","412","<div style=""font-size:30px;"">Press space to start the trial</div>"," ","","","","","","",""
"","","","","","html-keyboard-response","306","2.0.0","264318","ptwkzl2mfvr","ono","jaguar","20","female","yes","yes","7","4","null","<div style=""font-size:60px;"">+</div>","null","","","","","","",""
"","","","","","audio-keyboard-response","307","2.0.0","264928","ptwkzl2mfvr","ono","jaguar","20","female","yes","yes","7","4","null","stimuli/sounds/drop_label_B.wav","null","","","","","","",""
"","","","","","html-keyboard-response","308","2.0.0","265940","ptwkzl2mfvr","ono","jaguar","20","female","yes","yes","7","4","null","","null","","","","","","",""
"","","","","","image-keyboard-response","309","2.0.0","266290","ptwkzl2mfvr","ono","jaguar","20","female","yes","yes","7","4","349","stimuli/pictures/drop_multi_2.jpg","1","1","","true","yes","sound","stimuli/sounds/drop_label_B.wav",""
"","","","","","audio-keyboard-response","310","2.0.0","267309","ptwkzl2mfvr","ono","jaguar","20","female","yes","yes","7","4","null","stimuli/sounds/bleep.wav","null","","","","","","",""
"","","","","","html-keyboard-response","311","2.0.0","267905","ptwkzl2mfvr","ono","jaguar","20","female","yes","yes","7","4","488","<div style=""font-size:30px;"">Press space to start the trial</div>"," ","","","","","","",""
"","","","","","html-keyboard-response","312","2.0.0","268162","ptwkzl2mfvr","ono","jaguar","20","female","yes","yes","7","4","null","<div style=""font-size:60px;"">+</div>","null","","","","","","",""
"","","","","","audio-keyboard-response","313","2.0.0","268697","ptwkzl2mfvr","ono","jaguar","20","female","yes","yes","7","4","null","stimuli/sounds/hiccup_label_A.wav","null","","","","","","",""
"","","","","","html-keyboard-response","314","2.0.0","269699","ptwkzl2mfvr","ono","jaguar","20","female","yes","yes","7","4","null","","null","","","","","","",""
"","","","","","image-keyboard-response","315","2.0.0","270218","ptwkzl2mfvr","ono","jaguar","20","female","yes","yes","7","4","515","stimuli/pictures/cough_man_1.jpg","0","0","","true","no","sound","stimuli/sounds/hiccup_label_A.wav",""
"","","","","","audio-keyboard-response","316","2.0.0","271225","ptwkzl2mfvr","ono","jaguar","20","female","yes","yes","7","4","null","stimuli/sounds/bleep.wav","null","","","","","","",""
"","","","","","html-keyboard-response","317","2.0.0","272601","ptwkzl2mfvr","ono","jaguar","20","female","yes","yes","7","4","1262","<div style=""font-size:30px;"">Press space to start the trial</div>"," ","","","","","","",""
"","","","","","html-keyboard-response","318","2.0.0","272856","ptwkzl2mfvr","ono","jaguar","20","female","yes","yes","7","4","null","<div style=""font-size:60px;"">+</div>","null","","","","","","",""
"","","","","","audio-keyboard-response","319","2.0.0","273458","ptwkzl2mfvr","ono","jaguar","20","female","yes","yes","7","4","null","stimuli/sounds/hiccup_label_B.wav","null","","","","","","",""
"","","","","","html-keyboard-response","320","2.0.0","274463","ptwkzl2mfvr","ono","jaguar","20","female","yes","yes","7","4","null","","null","","","","","","",""
"","","","","","image-keyboard-response","321","2.0.0","274858","ptwkzl2mfvr","ono","jaguar","20","female","yes","yes","7","4","393","stimuli/pictures/hiccup_man_2.jpg","1","1","","true","yes","sound","stimuli/sounds/hiccup_label_B.wav",""
"","","","","","audio-keyboard-response","322","2.0.0","275865","ptwkzl2mfvr","ono","jaguar","20","female","yes","yes","7","4","null","stimuli/sounds/bleep.wav","null","","","","","","",""
"","","","","","html-keyboard-response","323","2.0.0","276239","ptwkzl2mfvr","ono","jaguar","20","female","yes","yes","7","4","266","<div style=""font-size:30px;"">Press space to start the trial</div>"," ","","","","","","",""
"","","","","","html-keyboard-response","324","2.0.0","276497","ptwkzl2mfvr","ono","jaguar","20","female","yes","yes","7","4","null","<div style=""font-size:60px;"">+</div>","null","","","","","","",""
"","","","","","audio-keyboard-response","325","2.0.0","277098","ptwkzl2mfvr","ono","jaguar","20","female","yes","yes","7","4","null","stimuli/sounds/hiccup_sound_A.wav","null","","","","","","",""
"","","","","","html-keyboard-response","326","2.0.0","278104","ptwkzl2mfvr","ono","jaguar","20","female","yes","yes","7","4","null","","null","","","","","","",""
"","","","","","image-keyboard-response","327","2.0.0","278518","ptwkzl2mfvr","ono","jaguar","20","female","yes","yes","7","4","410","stimuli/pictures/motor_dirt_2.jpg","0","0","","true","no","sound","stimuli/sounds/hiccup_sound_A.wav",""
"","","","","","audio-keyboard-response","328","2.0.0","279521","ptwkzl2mfvr","ono","jaguar","20","female","yes","yes","7","4","null","stimuli/sounds/bleep.wav","null","","","","","","",""
"","","","","","html-keyboard-response","329","2.0.0","280365","ptwkzl2mfvr","ono","jaguar","20","female","yes","yes","7","4","728","<div style=""font-size:30px;"">Press space to start the trial</div>"," ","","","","","","",""
"","","","","","html-keyboard-response","330","2.0.0","280629","ptwkzl2mfvr","ono","jaguar","20","female","yes","yes","7","4","null","<div style=""font-size:60px;"">+</div>","null","","","","","","",""
"","","","","","audio-keyboard-response","331","2.0.0","281228","ptwkzl2mfvr","ono","jaguar","20","female","yes","yes","7","4","null","stimuli/sounds/motor_label_B.wav","null","","","","","","",""
"","","","","","html-keyboard-response","332","2.0.0","282241","ptwkzl2mfvr","ono","jaguar","20","female","yes","yes","7","4","null","","null","","","","","","",""
"","","","","","image-keyboard-response","333","2.0.0","282722","ptwkzl2mfvr","ono","jaguar","20","female","yes","yes","7","4","479","stimuli/pictures/motor_harley_1.jpg","1","1","","true","yes","sound","stimuli/sounds/motor_label_B.wav",""
"","","","","","audio-keyboard-response","334","2.0.0","283730","ptwkzl2mfvr","ono","jaguar","20","female","yes","yes","7","4","null","stimuli/sounds/bleep.wav","null","","","","","","",""
"","","","","","html-keyboard-response","335","2.0.0","284488","ptwkzl2mfvr","ono","jaguar","20","female","yes","yes","7","4","656","<div style=""font-size:30px;"">Press space to start the trial</div>"," ","","","","","","",""
"","","","","","html-keyboard-response","336","2.0.0","284746","ptwkzl2mfvr","ono","jaguar","20","female","yes","yes","7","4","null","<div style=""font-size:60px;"">+</div>","null","","","","","","",""
"","","","","","audio-keyboard-response","337","2.0.0","285358","ptwkzl2mfvr","ono","jaguar","20","female","yes","yes","7","4","null","stimuli/sounds/drop_label_B.wav","null","","","","","","",""
"","","","","","html-keyboard-response","338","2.0.0","286367","ptwkzl2mfvr","ono","jaguar","20","female","yes","yes","7","4","null","","null","","","","","","",""
"","","","","","image-keyboard-response","339","2.0.0","286926","ptwkzl2mfvr","ono","jaguar","20","female","yes","yes","7","4","558","stimuli/pictures/drop_multi_1.jpg","1","1","","true","yes","sound","stimuli/sounds/drop_label_B.wav",""
"","","","","","audio-keyboard-response","340","2.0.0","287940","ptwkzl2mfvr","ono","jaguar","20","female","yes","yes","7","4","null","stimuli/sounds/bleep.wav","null","","","","","","",""
"","","","","","html-keyboard-response","341","2.0.0","288530","ptwkzl2mfvr","ono","jaguar","20","female","yes","yes","7","4","481","<div style=""font-size:30px;"">Press space to start the trial</div>"," ","","","","","","",""
"","","","","","html-keyboard-response","342","2.0.0","288785","ptwkzl2mfvr","ono","jaguar","20","female","yes","yes","7","4","null","<div style=""font-size:60px;"">+</div>","null","","","","","","",""
"","","","","","audio-keyboard-response","343","2.0.0","289398","ptwkzl2mfvr","ono","jaguar","20","female","yes","yes","7","4","null","stimuli/sounds/drop_label_B.wav","null","","","","","","",""
"","","","","","html-keyboard-response","344","2.0.0","290405","ptwkzl2mfvr","ono","jaguar","20","female","yes","yes","7","4","null","","null","","","","","","",""
"","","","","","image-keyboard-response","345","2.0.0","290773","ptwkzl2mfvr","ono","jaguar","20","female","yes","yes","7","4","366","stimuli/pictures/drop_single_1.jpg","1","1","","true","yes","sound","stimuli/sounds/drop_label_B.wav",""
"","","","","","audio-keyboard-response","346","2.0.0","291778","ptwkzl2mfvr","ono","jaguar","20","female","yes","yes","7","4","null","stimuli/sounds/bleep.wav","null","","","","","","",""
"","","","","","html-keyboard-response","347","2.0.0","292294","ptwkzl2mfvr","ono","jaguar","20","female","yes","yes","7","4","407","<div style=""font-size:30px;"">Press space to start the trial</div>"," ","","","","","","",""
"","","","","","html-keyboard-response","348","2.0.0","292557","ptwkzl2mfvr","ono","jaguar","20","female","yes","yes","7","4","null","<div style=""font-size:60px;"">+</div>","null","","","","","","",""
"","","","","","audio-keyboard-response","349","2.0.0","293108","ptwkzl2mfvr","ono","jaguar","20","female","yes","yes","7","4","null","stimuli/sounds/drop_label_A.wav","null","","","","","","",""
"","","","","","html-keyboard-response","350","2.0.0","294112","ptwkzl2mfvr","ono","jaguar","20","female","yes","yes","7","4","null","","null","","","","","","",""
"","","","","","image-keyboard-response","351","2.0.0","294509","ptwkzl2mfvr","ono","jaguar","20","female","yes","yes","7","4","394","stimuli/pictures/hiccup_wom_1.jpg","0","0","","true","no","sound","stimuli/sounds/drop_label_A.wav",""
"","","","","","audio-keyboard-response","352","2.0.0","295517","ptwkzl2mfvr","ono","jaguar","20","female","yes","yes","7","4","null","stimuli/sounds/bleep.wav","null","","","","","","",""
"","","","","","html-keyboard-response","353","2.0.0","296144","ptwkzl2mfvr","ono","jaguar","20","female","yes","yes","7","4","517","<div style=""font-size:30px;"">Press space to start the trial</div>"," ","","","","","","",""
"","","","","","html-keyboard-response","354","2.0.0","296405","ptwkzl2mfvr","ono","jaguar","20","female","yes","yes","7","4","null","<div style=""font-size:60px;"">+</div>","null","","","","","","",""
"","","","","","audio-keyboard-response","355","2.0.0","297078","ptwkzl2mfvr","ono","jaguar","20","female","yes","yes","7","4","null","stimuli/sounds/cough_sound_B.wav","null","","","","","","",""
"","","","","","html-keyboard-response","356","2.0.0","298084","ptwkzl2mfvr","ono","jaguar","20","female","yes","yes","7","4","null","","null","","","","","","",""
"","","","","","image-keyboard-response","357","2.0.0","298652","ptwkzl2mfvr","ono","jaguar","20","female","yes","yes","7","4","566","stimuli/pictures/cough_wom_1.jpg","1","1","","true","no","sound","stimuli/sounds/cough_sound_B.wav",""
"","","","","","audio-keyboard-response","358","2.0.0","299660","ptwkzl2mfvr","ono","jaguar","20","female","yes","yes","7","4","null","stimuli/sounds/bleep.wav","null","","","","","","",""
"","","","","","html-keyboard-response","359","2.0.0","300458","ptwkzl2mfvr","ono","jaguar","20","female","yes","yes","7","4","692","<div style=""font-size:30px;"">Press space to start the trial</div>"," ","","","","","","",""
"","","","","","html-keyboard-response","360","2.0.0","300714","ptwkzl2mfvr","ono","jaguar","20","female","yes","yes","7","4","null","<div style=""font-size:60px;"">+</div>","null","","","","","","",""
"","","","","","audio-keyboard-response","361","2.0.0","301321","ptwkzl2mfvr","ono","jaguar","20","female","yes","yes","7","4","null","stimuli/sounds/hiccup_label_B.wav","null","","","","","","",""
"","","","","","html-keyboard-response","362","2.0.0","302324","ptwkzl2mfvr","ono","jaguar","20","female","yes","yes","7","4","null","","null","","","","","","",""
"","","","","","image-keyboard-response","363","2.0.0","302823","ptwkzl2mfvr","ono","jaguar","20","female","yes","yes","7","4","496","stimuli/pictures/dog_rott_1.jpg","0","0","","true","no","sound","stimuli/sounds/hiccup_label_B.wav",""
"","","","","","audio-keyboard-response","364","2.0.0","303833","ptwkzl2mfvr","ono","jaguar","20","female","yes","yes","7","4","null","stimuli/sounds/bleep.wav","null","","","","","","",""
"","","","","","html-keyboard-response","365","2.0.0","304484","ptwkzl2mfvr","ono","jaguar","20","female","yes","yes","7","4","547","<div style=""font-size:30px;"">Press space to start the trial</div>"," ","","","","","","",""
"","","","","","html-keyboard-response","366","2.0.0","304739","ptwkzl2mfvr","ono","jaguar","20","female","yes","yes","7","4","null","<div style=""font-size:60px;"">+</div>","null","","","","","","",""
"","","","","","audio-keyboard-response","367","2.0.0","305331","ptwkzl2mfvr","ono","jaguar","20","female","yes","yes","7","4","null","stimuli/sounds/motor_sound_A.wav","null","","","","","","",""
"","","","","","html-keyboard-response","368","2.0.0","306338","ptwkzl2mfvr","ono","jaguar","20","female","yes","yes","7","4","null","","null","","","","","","",""
"","","","","","image-keyboard-response","369","2.0.0","306744","ptwkzl2mfvr","ono","jaguar","20","female","yes","yes","7","4","403","stimuli/pictures/drop_multi_1.jpg","0","0","","true","no","sound","stimuli/sounds/motor_sound_A.wav",""
"","","","","","audio-keyboard-response","370","2.0.0","307756","ptwkzl2mfvr","ono","jaguar","20","female","yes","yes","7","4","null","stimuli/sounds/bleep.wav","null","","","","","","",""
"","","","","","html-keyboard-response","371","2.0.0","308279","ptwkzl2mfvr","ono","jaguar","20","female","yes","yes","7","4","420","<div style=""font-size:30px;"">Press space to start the trial</div>"," ","","","","","","",""
"","","","","","html-keyboard-response","372","2.0.0","308533","ptwkzl2mfvr","ono","jaguar","20","female","yes","yes","7","4","null","<div style=""font-size:60px;"">+</div>","null","","","","","","",""
"","","","","","audio-keyboard-response","373","2.0.0","309140","ptwkzl2mfvr","ono","jaguar","20","female","yes","yes","7","4","null","stimuli/sounds/hiccup_sound_B.wav","null","","","","","","",""
"","","","","","html-keyboard-response","374","2.0.0","310152","ptwkzl2mfvr","ono","jaguar","20","female","yes","yes","7","4","null","","null","","","","","","",""
"","","","","","image-keyboard-response","375","2.0.0","310657","ptwkzl2mfvr","ono","jaguar","20","female","yes","yes","7","4","503","stimuli/pictures/drop_multi_2.jpg","0","0","","true","no","sound","stimuli/sounds/hiccup_sound_B.wav",""
"","","","","","audio-keyboard-response","376","2.0.0","311671","ptwkzl2mfvr","ono","jaguar","20","female","yes","yes","7","4","null","stimuli/sounds/bleep.wav","null","","","","","","",""
"","","","","","html-keyboard-response","377","2.0.0","312287","ptwkzl2mfvr","ono","jaguar","20","female","yes","yes","7","4","506","<div style=""font-size:30px;"">Press space to start the trial</div>"," ","","","","","","",""
"","","","","","html-keyboard-response","378","2.0.0","312542","ptwkzl2mfvr","ono","jaguar","20","female","yes","yes","7","4","null","<div style=""font-size:60px;"">+</div>","null","","","","","","",""
"","","","","","audio-keyboard-response","379","2.0.0","313150","ptwkzl2mfvr","ono","jaguar","20","female","yes","yes","7","4","null","stimuli/sounds/hiccup_label_B.wav","null","","","","","","",""
"","","","","","html-keyboard-response","380","2.0.0","314154","ptwkzl2mfvr","ono","jaguar","20","female","yes","yes","7","4","null","","null","","","","","","",""
"","","","","","image-keyboard-response","381","2.0.0","314612","ptwkzl2mfvr","ono","jaguar","20","female","yes","yes","7","4","456","stimuli/pictures/hiccup_wom_1.jpg","1","1","","true","yes","sound","stimuli/sounds/hiccup_label_B.wav",""
"","","","","","audio-keyboard-response","382","2.0.0","315618","ptwkzl2mfvr","ono","jaguar","20","female","yes","yes","7","4","null","stimuli/sounds/bleep.wav","null","","","","","","",""
"","","","","","html-keyboard-response","383","2.0.0","316028","ptwkzl2mfvr","ono","jaguar","20","female","yes","yes","7","4","303","<div style=""font-size:30px;"">Press space to start the trial</div>"," ","","","","","","",""
"","","","","","html-keyboard-response","384","2.0.0","316289","ptwkzl2mfvr","ono","jaguar","20","female","yes","yes","7","4","null","<div style=""font-size:60px;"">+</div>","null","","","","","","",""
"","","","","","audio-keyboard-response","385","2.0.0","316890","ptwkzl2mfvr","ono","jaguar","20","female","yes","yes","7","4","null","stimuli/sounds/cough_label_B.wav","null","","","","","","",""
"","","","","","html-keyboard-response","386","2.0.0","317896","ptwkzl2mfvr","ono","jaguar","20","female","yes","yes","7","4","null","","null","","","","","","",""
"","","","","","image-keyboard-response","387","2.0.0","318304","ptwkzl2mfvr","ono","jaguar","20","female","yes","yes","7","4","406","stimuli/pictures/cough_man_2.jpg","1","1","","true","yes","sound","stimuli/sounds/cough_label_B.wav",""
"","","","","","audio-keyboard-response","388","2.0.0","319315","ptwkzl2mfvr","ono","jaguar","20","female","yes","yes","7","4","null","stimuli/sounds/bleep.wav","null","","","","","","",""
"","","","","","html-keyboard-response","389","2.0.0","321146","ptwkzl2mfvr","ono","jaguar","20","female","yes","yes","7","4","1722","<p>You have completed a block. Press R when you are ready to continue</p>","r","","","","","","",""
"","","","","","html-keyboard-response","390","2.0.0","323450","ptwkzl2mfvr","ono","jaguar","20","female","yes","yes","7","4","2303","<div style=""font-size:30px;"">Press space to start the trial</div>"," ","","","","","","",""
"","","","","","html-keyboard-response","391","2.0.0","323703","ptwkzl2mfvr","ono","jaguar","20","female","yes","yes","7","4","null","<div style=""font-size:60px;"">+</div>","null","","","","","","",""
"","","","","","audio-keyboard-response","392","2.0.0","324380","ptwkzl2mfvr","ono","jaguar","20","female","yes","yes","7","4","null","stimuli/sounds/cough_sound_B.wav","null","","","","","","",""
"","","","","","html-keyboard-response","393","2.0.0","325383","ptwkzl2mfvr","ono","jaguar","20","female","yes","yes","7","4","null","","null","","","","","","",""
"","","","","","image-keyboard-response","394","2.0.0","326020","ptwkzl2mfvr","ono","jaguar","20","female","yes","yes","7","4","636","stimuli/pictures/hiccup_wom_1.jpg","0","0","","true","no","sound","stimuli/sounds/cough_sound_B.wav",""
"","","","","","audio-keyboard-response","395","2.0.0","327027","ptwkzl2mfvr","ono","jaguar","20","female","yes","yes","7","4","null","stimuli/sounds/bleep.wav","null","","","","","","",""
"","","","","","html-keyboard-response","396","2.0.0","327631","ptwkzl2mfvr","ono","jaguar","20","female","yes","yes","7","4","497","<div style=""font-size:30px;"">Press space to start the trial</div>"," ","","","","","","",""
"","","","","","html-keyboard-response","397","2.0.0","327890","ptwkzl2mfvr","ono","jaguar","20","female","yes","yes","7","4","null","<div style=""font-size:60px;"">+</div>","null","","","","","","",""
"","","","","","audio-keyboard-response","398","2.0.0","328500","ptwkzl2mfvr","ono","jaguar","20","female","yes","yes","7","4","null","stimuli/sounds/cough_label_B.wav","null","","","","","","",""
"","","","","","html-keyboard-response","399","2.0.0","329507","ptwkzl2mfvr","ono","jaguar","20","female","yes","yes","7","4","null","","null","","","","","","",""
"","","","","","image-keyboard-response","400","2.0.0","329920","ptwkzl2mfvr","ono","jaguar","20","female","yes","yes","7","4","411","stimuli/pictures/drop_multi_1.jpg","0","0","","true","no","sound","stimuli/sounds/cough_label_B.wav",""
"","","","","","audio-keyboard-response","401","2.0.0","330929","ptwkzl2mfvr","ono","jaguar","20","female","yes","yes","7","4","null","stimuli/sounds/bleep.wav","null","","","","","","",""
"","","","","","html-keyboard-response","402","2.0.0","331351","ptwkzl2mfvr","ono","jaguar","20","female","yes","yes","7","4","314","<div style=""font-size:30px;"">Press space to start the trial</div>"," ","","","","","","",""
"","","","","","html-keyboard-response","403","2.0.0","331609","ptwkzl2mfvr","ono","jaguar","20","female","yes","yes","7","4","null","<div style=""font-size:60px;"">+</div>","null","","","","","","",""
"","","","","","audio-keyboard-response","404","2.0.0","332290","ptwkzl2mfvr","ono","jaguar","20","female","yes","yes","7","4","null","stimuli/sounds/cough_sound_B.wav","null","","","","","","",""
"","","","","","html-keyboard-response","405","2.0.0","333299","ptwkzl2mfvr","ono","jaguar","20","female","yes","yes","7","4","null","","null","","","","","","",""
"","","","","","image-keyboard-response","406","2.0.0","333668","ptwkzl2mfvr","ono","jaguar","20","female","yes","yes","7","4","367","stimuli/pictures/cough_man_2.jpg","1","1","","true","yes","sound","stimuli/sounds/cough_sound_B.wav",""
"","","","","","audio-keyboard-response","407","2.0.0","334684","ptwkzl2mfvr","ono","jaguar","20","female","yes","yes","7","4","null","stimuli/sounds/bleep.wav","null","","","","","","",""
"","","","","","html-keyboard-response","408","2.0.0","335176","ptwkzl2mfvr","ono","jaguar","20","female","yes","yes","7","4","380","<div style=""font-size:30px;"">Press space to start the trial</div>"," ","","","","","","",""
"","","","","","html-keyboard-response","409","2.0.0","335433","ptwkzl2mfvr","ono","jaguar","20","female","yes","yes","7","4","null","<div style=""font-size:60px;"">+</div>","null","","","","","","",""
"","","","","","audio-keyboard-response","410","2.0.0","336020","ptwkzl2mfvr","ono","jaguar","20","female","yes","yes","7","4","null","stimuli/sounds/drop_sound_A.wav","null","","","","","","",""
"","","","","","html-keyboard-response","411","2.0.0","337030","ptwkzl2mfvr","ono","jaguar","20","female","yes","yes","7","4","null","","null","","","","","","",""
"","","","","","image-keyboard-response","412","2.0.0","337486","ptwkzl2mfvr","ono","jaguar","20","female","yes","yes","7","4","453","stimuli/pictures/cough_man_2.jpg","0","0","","true","no","sound","stimuli/sounds/drop_sound_A.wav",""
"","","","","","audio-keyboard-response","413","2.0.0","338489","ptwkzl2mfvr","ono","jaguar","20","female","yes","yes","7","4","null","stimuli/sounds/bleep.wav","null","","","","","","",""
"","","","","","html-keyboard-response","414","2.0.0","339072","ptwkzl2mfvr","ono","jaguar","20","female","yes","yes","7","4","479","<div style=""font-size:30px;"">Press space to start the trial</div>"," ","","","","","","",""
"","","","","","html-keyboard-response","415","2.0.0","339329","ptwkzl2mfvr","ono","jaguar","20","female","yes","yes","7","4","null","<div style=""font-size:60px;"">+</div>","null","","","","","","",""
"","","","","","audio-keyboard-response","416","2.0.0","339930","ptwkzl2mfvr","ono","jaguar","20","female","yes","yes","7","4","null","stimuli/sounds/hiccup_sound_B.wav","null","","","","","","",""
"","","","","","html-keyboard-response","417","2.0.0","340931","ptwkzl2mfvr","ono","jaguar","20","female","yes","yes","7","4","null","","null","","","","","","",""
"","","","","","image-keyboard-response","418","2.0.0","341329","ptwkzl2mfvr","ono","jaguar","20","female","yes","yes","7","4","396","stimuli/pictures/drop_single_1.jpg","0","0","","true","no","sound","stimuli/sounds/hiccup_sound_B.wav",""
"","","","","","audio-keyboard-response","419","2.0.0","342332","ptwkzl2mfvr","ono","jaguar","20","female","yes","yes","7","4","null","stimuli/sounds/bleep.wav","null","","","","","","",""
"","","","","","html-keyboard-response","420","2.0.0","342824","ptwkzl2mfvr","ono","jaguar","20","female","yes","yes","7","4","387","<div style=""font-size:30px;"">Press space to start the trial</div>"," ","","","","","","",""
"","","","","","html-keyboard-response","421","2.0.0","343084","ptwkzl2mfvr","ono","jaguar","20","female","yes","yes","7","4","null","<div style=""font-size:60px;"">+</div>","null","","","","","","",""
"","","","","","audio-keyboard-response","422","2.0.0","343680","ptwkzl2mfvr","ono","jaguar","20","female","yes","yes","7","4","null","stimuli/sounds/dog_label_B.wav","null","","","","","","",""
"","","","","","html-keyboard-response","423","2.0.0","344689","ptwkzl2mfvr","ono","jaguar","20","female","yes","yes","7","4","null","","null","","","","","","",""
"","","","","","image-keyboard-response","424","2.0.0","345118","ptwkzl2mfvr","ono","jaguar","20","female","yes","yes","7","4","426","stimuli/pictures/cough_wom_1.jpg","0","0","","true","no","sound","stimuli/sounds/dog_label_B.wav",""
"","","","","","audio-keyboard-response","425","2.0.0","346121","ptwkzl2mfvr","ono","jaguar","20","female","yes","yes","7","4","null","stimuli/sounds/bleep.wav","null","","","","","","",""
"","","","","","html-keyboard-response","426","2.0.0","346869","ptwkzl2mfvr","ono","jaguar","20","female","yes","yes","7","4","642","<div style=""font-size:30px;"">Press space to start the trial</div>"," ","","","","","","",""
"","","","","","html-keyboard-response","427","2.0.0","347133","ptwkzl2mfvr","ono","jaguar","20","female","yes","yes","7","4","null","<div style=""font-size:60px;"">+</div>","null","","","","","","",""
"","","","","","audio-keyboard-response","428","2.0.0","347740","ptwkzl2mfvr","ono","jaguar","20","female","yes","yes","7","4","null","stimuli/sounds/hiccup_sound_B.wav","null","","","","","","",""
"","","","","","html-keyboard-response","429","2.0.0","348749","ptwkzl2mfvr","ono","jaguar","20","female","yes","yes","7","4","null","","null","","","","","","",""
"","","","","","image-keyboard-response","430","2.0.0","349136","ptwkzl2mfvr","ono","jaguar","20","female","yes","yes","7","4","385","stimuli/pictures/hiccup_wom_2.jpg","1","1","","true","no","sound","stimuli/sounds/hiccup_sound_B.wav",""
"","","","","","audio-keyboard-response","431","2.0.0","350152","ptwkzl2mfvr","ono","jaguar","20","female","yes","yes","7","4","null","stimuli/sounds/bleep.wav","null","","","","","","",""
"","","","","","html-keyboard-response","432","2.0.0","350594","ptwkzl2mfvr","ono","jaguar","20","female","yes","yes","7","4","341","<div style=""font-size:30px;"">Press space to start the trial</div>"," ","","","","","","",""
"","","","","","html-keyboard-response","433","2.0.0","350856","ptwkzl2mfvr","ono","jaguar","20","female","yes","yes","7","4","null","<div style=""font-size:60px;"">+</div>","null","","","","","","",""
"","","","","","audio-keyboard-response","434","2.0.0","351460","ptwkzl2mfvr","ono","jaguar","20","female","yes","yes","7","4","null","stimuli/sounds/cough_label_B.wav","null","","","","","","",""
"","","","","","html-keyboard-response","435","2.0.0","352470","ptwkzl2mfvr","ono","jaguar","20","female","yes","yes","7","4","null","","null","","","","","","",""
"","","","","","image-keyboard-response","436","2.0.0","353060","ptwkzl2mfvr","ono","jaguar","20","female","yes","yes","7","4","588","stimuli/pictures/cough_wom_1.jpg","0","1","","false","yes","sound","stimuli/sounds/cough_label_B.wav",""
"","","","","","audio-keyboard-response","437","2.0.0","354077","ptwkzl2mfvr","ono","jaguar","20","female","yes","yes","7","4","null","stimuli/sounds/buzz.wav","null","","","","","","",""
"","","","","","html-keyboard-response","438","2.0.0","358323","ptwkzl2mfvr","ono","jaguar","20","female","yes","yes","7","4","4138","<div style=""font-size:30px;"">Press space to start the trial</div>"," ","","","","","","",""
"","","","","","html-keyboard-response","439","2.0.0","358577","ptwkzl2mfvr","ono","jaguar","20","female","yes","yes","7","4","null","<div style=""font-size:60px;"">+</div>","null","","","","","","",""
"","","","","","audio-keyboard-response","440","2.0.0","359170","ptwkzl2mfvr","ono","jaguar","20","female","yes","yes","7","4","null","stimuli/sounds/motor_sound_A.wav","null","","","","","","",""
"","","","","","html-keyboard-response","441","2.0.0","360177","ptwkzl2mfvr","ono","jaguar","20","female","yes","yes","7","4","null","","null","","","","","","",""
"","","","","","image-keyboard-response","442","2.0.0","360593","ptwkzl2mfvr","ono","jaguar","20","female","yes","yes","7","4","411","stimuli/pictures/drop_single_1.jpg","1","0","","false","no","sound","stimuli/sounds/motor_sound_A.wav",""
"","","","","","audio-keyboard-response","443","2.0.0","361601","ptwkzl2mfvr","ono","jaguar","20","female","yes","yes","7","4","null","stimuli/sounds/buzz.wav","null","","","","","","",""
"","","","","","html-keyboard-response","444","2.0.0","362894","ptwkzl2mfvr","ono","jaguar","20","female","yes","yes","7","4","1177","<div style=""font-size:30px;"">Press space to start the trial</div>"," ","","","","","","",""
"","","","","","html-keyboard-response","445","2.0.0","363152","ptwkzl2mfvr","ono","jaguar","20","female","yes","yes","7","4","null","<div style=""font-size:60px;"">+</div>","null","","","","","","",""
"","","","","","audio-keyboard-response","446","2.0.0","363743","ptwkzl2mfvr","ono","jaguar","20","female","yes","yes","7","4","null","stimuli/sounds/dog_label_B.wav","null","","","","","","",""
"","","","","","html-keyboard-response","447","2.0.0","364747","ptwkzl2mfvr","ono","jaguar","20","female","yes","yes","7","4","null","","null","","","","","","",""
"","","","","","image-keyboard-response","448","2.0.0","365189","ptwkzl2mfvr","ono","jaguar","20","female","yes","yes","7","4","439","stimuli/pictures/cough_man_1.jpg","0","0","","true","no","sound","stimuli/sounds/dog_label_B.wav",""
"","","","","","audio-keyboard-response","449","2.0.0","366198","ptwkzl2mfvr","ono","jaguar","20","female","yes","yes","7","4","null","stimuli/sounds/bleep.wav","null","","","","","","",""
"","","","","","html-keyboard-response","450","2.0.0","366829","ptwkzl2mfvr","ono","jaguar","20","female","yes","yes","7","4","525","<div style=""font-size:30px;"">Press space to start the trial</div>"," ","","","","","","",""
"","","","","","html-keyboard-response","451","2.0.0","367089","ptwkzl2mfvr","ono","jaguar","20","female","yes","yes","7","4","null","<div style=""font-size:60px;"">+</div>","null","","","","","","",""
"","","","","","audio-keyboard-response","452","2.0.0","367633","ptwkzl2mfvr","ono","jaguar","20","female","yes","yes","7","4","null","stimuli/sounds/drop_label_A.wav","null","","","","","","",""
"","","","","","html-keyboard-response","453","2.0.0","368636","ptwkzl2mfvr","ono","jaguar","20","female","yes","yes","7","4","null","","null","","","","","","",""
"","","","","","image-keyboard-response","454","2.0.0","369101","ptwkzl2mfvr","ono","jaguar","20","female","yes","yes","7","4","462","stimuli/pictures/hiccup_man_2.jpg","0","0","","true","no","sound","stimuli/sounds/drop_label_A.wav",""
"","","","","","audio-keyboard-response","455","2.0.0","370111","ptwkzl2mfvr","ono","jaguar","20","female","yes","yes","7","4","null","stimuli/sounds/bleep.wav","null","","","","","","",""
"","","","","","html-keyboard-response","456","2.0.0","370556","ptwkzl2mfvr","ono","jaguar","20","female","yes","yes","7","4","336","<div style=""font-size:30px;"">Press space to start the trial</div>"," ","","","","","","",""
"","","","","","html-keyboard-response","457","2.0.0","370817","ptwkzl2mfvr","ono","jaguar","20","female","yes","yes","7","4","null","<div style=""font-size:60px;"">+</div>","null","","","","","","",""
"","","","","","audio-keyboard-response","458","2.0.0","371423","ptwkzl2mfvr","ono","jaguar","20","female","yes","yes","7","4","null","stimuli/sounds/drop_sound_B.wav","null","","","","","","",""
"","","","","","html-keyboard-response","459","2.0.0","372434","ptwkzl2mfvr","ono","jaguar","20","female","yes","yes","7","4","null","","null","","","","","","",""
"","","","","","image-keyboard-response","460","2.0.0","372948","ptwkzl2mfvr","ono","jaguar","20","female","yes","yes","7","4","512","stimuli/pictures/drop_multi_1.jpg","1","1","","true","yes","sound","stimuli/sounds/drop_sound_B.wav",""
"","","","","","audio-keyboard-response","461","2.0.0","373956","ptwkzl2mfvr","ono","jaguar","20","female","yes","yes","7","4","null","stimuli/sounds/bleep.wav","null","","","","","","",""
"","","","","","html-keyboard-response","462","2.0.0","374577","ptwkzl2mfvr","ono","jaguar","20","female","yes","yes","7","4","505","<div style=""font-size:30px;"">Press space to start the trial</div>"," ","","","","","","",""
"","","","","","html-keyboard-response","463","2.0.0","374832","ptwkzl2mfvr","ono","jaguar","20","female","yes","yes","7","4","null","<div style=""font-size:60px;"">+</div>","null","","","","","","",""
"","","","","","audio-keyboard-response","464","2.0.0","375433","ptwkzl2mfvr","ono","jaguar","20","female","yes","yes","7","4","null","stimuli/sounds/drop_sound_B.wav","null","","","","","","",""
"","","","","","html-keyboard-response","465","2.0.0","376443","ptwkzl2mfvr","ono","jaguar","20","female","yes","yes","7","4","null","","null","","","","","","",""
"","","","","","image-keyboard-response","466","2.0.0","376801","ptwkzl2mfvr","ono","jaguar","20","female","yes","yes","7","4","356","stimuli/pictures/dog_york_1.jpg","0","0","","true","no","sound","stimuli/sounds/drop_sound_B.wav",""
"","","","","","audio-keyboard-response","467","2.0.0","377817","ptwkzl2mfvr","ono","jaguar","20","female","yes","yes","7","4","null","stimuli/sounds/bleep.wav","null","","","","","","",""
"","","","","","html-keyboard-response","468","2.0.0","378455","ptwkzl2mfvr","ono","jaguar","20","female","yes","yes","7","4","535","<div style=""font-size:30px;"">Press space to start the trial</div>"," ","","","","","","",""
"","","","","","html-keyboard-response","469","2.0.0","378708","ptwkzl2mfvr","ono","jaguar","20","female","yes","yes","7","4","null","<div style=""font-size:60px;"">+</div>","null","","","","","","",""
"","","","","","audio-keyboard-response","470","2.0.0","379373","ptwkzl2mfvr","ono","jaguar","20","female","yes","yes","7","4","null","stimuli/sounds/cough_sound_A.wav","null","","","","","","",""
"","","","","","html-keyboard-response","471","2.0.0","380376","ptwkzl2mfvr","ono","jaguar","20","female","yes","yes","7","4","null","","null","","","","","","",""
"","","","","","image-keyboard-response","472","2.0.0","380846","ptwkzl2mfvr","ono","jaguar","20","female","yes","yes","7","4","468","stimuli/pictures/dog_rott_1.jpg","0","0","","true","no","sound","stimuli/sounds/cough_sound_A.wav",""
"","","","","","audio-keyboard-response","473","2.0.0","381851","ptwkzl2mfvr","ono","jaguar","20","female","yes","yes","7","4","null","stimuli/sounds/bleep.wav","null","","","","","","",""
"","","","","","html-keyboard-response","474","2.0.0","382397","ptwkzl2mfvr","ono","jaguar","20","female","yes","yes","7","4","437","<div style=""font-size:30px;"">Press space to start the trial</div>"," ","","","","","","",""
"","","","","","html-keyboard-response","475","2.0.0","382649","ptwkzl2mfvr","ono","jaguar","20","female","yes","yes","7","4","null","<div style=""font-size:60px;"">+</div>","null","","","","","","",""
"","","","","","audio-keyboard-response","476","2.0.0","383234","ptwkzl2mfvr","ono","jaguar","20","female","yes","yes","7","4","null","stimuli/sounds/drop_sound_A.wav","null","","","","","","",""
"","","","","","html-keyboard-response","477","2.0.0","384238","ptwkzl2mfvr","ono","jaguar","20","female","yes","yes","7","4","null","","null","","","","","","",""
"","","","","","image-keyboard-response","478","2.0.0","384721","ptwkzl2mfvr","ono","jaguar","20","female","yes","yes","7","4","481","stimuli/pictures/cough_wom_1.jpg","0","0","","true","no","sound","stimuli/sounds/drop_sound_A.wav",""
"","","","","","audio-keyboard-response","479","2.0.0","385731","ptwkzl2mfvr","ono","jaguar","20","female","yes","yes","7","4","null","stimuli/sounds/bleep.wav","null","","","","","","",""
"","","","","","html-keyboard-response","480","2.0.0","386286","ptwkzl2mfvr","ono","jaguar","20","female","yes","yes","7","4","446","<div style=""font-size:30px;"">Press space to start the trial</div>"," ","","","","","","",""
"","","","","","html-keyboard-response","481","2.0.0","386543","ptwkzl2mfvr","ono","jaguar","20","female","yes","yes","7","4","null","<div style=""font-size:60px;"">+</div>","null","","","","","","",""
"","","","","","audio-keyboard-response","482","2.0.0","387154","ptwkzl2mfvr","ono","jaguar","20","female","yes","yes","7","4","null","stimuli/sounds/hiccup_sound_B.wav","null","","","","","","",""
"","","","","","html-keyboard-response","483","2.0.0","388164","ptwkzl2mfvr","ono","jaguar","20","female","yes","yes","7","4","null","","null","","","","","","",""
"","","","","","image-keyboard-response","484","2.0.0","389036","ptwkzl2mfvr","ono","jaguar","20","female","yes","yes","7","4","869","stimuli/pictures/hiccup_wom_1.jpg","0","1","","false","no","sound","stimuli/sounds/hiccup_sound_B.wav",""
"","","","","","audio-keyboard-response","485","2.0.0","390042","ptwkzl2mfvr","ono","jaguar","20","female","yes","yes","7","4","null","stimuli/sounds/buzz.wav","null","","","","","","",""
