"success","timeout","failed_images","failed_audio","failed_video","trial_type","trial_index","plugin_version","time_elapsed","random_id","condition","participant","age","gender_id","mus_exp","inst_exp","years_exp","mus_listening","rt","stimulus","response","correct_response","practice","correct","congruent","sound_type","audio","question_order"
"true","false","[]","[]","[]","preload","0","2.0.0","429","pvsufjvyuxu","mus","goose","22","male","yes","yes","2","1 hour","","","","","","","","","",""
"","","","","","html-keyboard-response","1","2.0.0","1922","pvsufjvyuxu","mus","goose","22","male","yes","yes","2","1 hour","1492","Welcome to the experiment! Press any key to begin.","Enter","","","","","","",""
"true","","","","","fullscreen","2","null","4489","pvsufjvyuxu","mus","goose","22","male","yes","yes","2","1 hour","1562","","","","","","","","",""
"","","","","","survey-text","3","2.0.0","7988","pvsufjvyuxu","mus","goose","22","male","yes","yes","2","1 hour","3489","","{""participant_id"":""goose""}","","","","","","",""
"","","","","","html-keyboard-response","4","2.0.0","18011","pvsufjvyuxu","mus","goose","22","male","yes","yes","2","1 hour","10019","
    <p> Please use headphones for the duration of the study.</p>
    <p> Within each trial, you will hear a sound and then be presented with an image in the center of your screen.</p>
    <p>Press the <b>'1'</b> key if what you hear <u>matches</u> what you see.</p>
    <p>Press the <b>'0'</b> key if what you hear <u>does not match</u> what you see.</p>
    <p>Try to respond as quickly and accurately as you can.</p>
    <p> Press any key to begin.</p>
    ","Enter","","","","","","",""
"","","","","","html-keyboard-response","5","2.0.0","19688","pvsufjvyuxu","mus","goose","22","male","yes","yes","2","1 hour","1674","
    <div style=""font-size:28px;"">
      <p>You will now complete 4 short practice trials.</p>
      <p>This is just to help you get familiar with the task.</p>
      <p>Press any key to begin.</p>
    </div>
  ","Enter","","","","","","",""
"","","","","","html-keyboard-response","6","2.0.0","20190","pvsufjvyuxu","mus","goose","22","male","yes","yes","2","1 hour","null","<div style=""font-size:60px;"">+</div>","null","","","","","","",""
"","","","","","audio-keyboard-response","7","2.0.0","20903","pvsufjvyuxu","mus","goose","22","male","yes","yes","2","1 hour","null","stimuli/sounds/guitar_label_A.wav","null","","","","","","",""
"","","","","","image-keyboard-response","8","2.0.0","21678","pvsufjvyuxu","mus","goose","22","male","yes","yes","2","1 hour","770","stimuli/pictures/guitar_acoustic_1.jpg","1","1","true","true","","","",""
"","","","","","audio-keyboard-response","9","2.0.0","22482","pvsufjvyuxu","mus","goose","22","male","yes","yes","2","1 hour","null","stimuli/sounds/bleep.wav","null","","","","","","",""
"","","","","","html-keyboard-response","10","2.0.0","23185","pvsufjvyuxu","mus","goose","22","male","yes","yes","2","1 hour","null","<p style='color:green; font-size:30px;'>Correct!</p>","null","","","","","","",""
"","","","","","html-keyboard-response","11","2.0.0","23687","pvsufjvyuxu","mus","goose","22","male","yes","yes","2","1 hour","null","<div style=""font-size:60px;"">+</div>","null","","","","","","",""
"","","","","","audio-keyboard-response","12","2.0.0","24289","pvsufjvyuxu","mus","goose","22","male","yes","yes","2","1 hour","null","stimuli/sounds/guitar_sound_B.wav","null","","","","","","",""
"","","","","","image-keyboard-response","13","2.0.0","24938","pvsufjvyuxu","mus","goose","22","male","yes","yes","2","1 hour","647","stimuli/pictures/guitar_acoustic_2.jpg","1","1","true","true","","","",""
"","","","","","audio-keyboard-response","14","2.0.0","25741","pvsufjvyuxu","mus","goose","22","male","yes","yes","2","1 hour","null","stimuli/sounds/bleep.wav","null","","","","","","",""
"","","","","","html-keyboard-response","15","2.0.0","26444","pvsufjvyuxu","mus","goose","22","male","yes","yes","2","1 hour","null","<p style='color:green; font-size:30px;'>Correct!</p>","null","","","","","","",""
"","","","","","html-keyboard-response","16","2.0.0","26947","pvsufjvyuxu","mus","goose","22","male","yes","yes","2","1 hour","null","<div style=""font-size:60px;"">+</div>","null","","","","","","",""
"","","","","","audio-keyboard-response","17","2.0.0","27548","pvsufjvyuxu","mus","goose","22","male","yes","yes","2","1 hour","null","stimuli/sounds/flute_sound_A.wav","null","","","","","","",""
"","","","","","image-keyboard-response","18","2.0.0","28423","pvsufjvyuxu","mus","goose","22","male","yes","yes","2","1 hour","874","stimuli/pictures/guitar_electric_1.jpg","0","0","true","true","","","",""
"","","","","","audio-keyboard-response","19","2.0.0","29226","pvsufjvyuxu","mus","goose","22","male","yes","yes","2","1 hour","null","stimuli/sounds/bleep.wav","null","","","","","","",""
"","","","","","html-keyboard-response","20","2.0.0","29928","pvsufjvyuxu","mus","goose","22","male","yes","yes","2","1 hour","null","<p style='color:green; font-size:30px;'>Correct!</p>","null","","","","","","",""
"","","","","","html-keyboard-response","21","2.0.0","30431","pvsufjvyuxu","mus","goose","22","male","yes","yes","2","1 hour","null","<div style=""font-size:60px;"">+</div>","null","","","","","","",""
"","","","","","audio-keyboard-response","22","2.0.0","31030","pvsufjvyuxu","mus","goose","22","male","yes","yes","2","1 hour","null","stimuli/sounds/guitar_sound_A.wav","null","","","","","","",""
"","","","","","image-keyboard-response","23","2.0.0","32198","pvsufjvyuxu","mus","goose","22","male","yes","yes","2","1 hour","1166","stimuli/pictures/guitar_acoustic_1.jpg","0","1","true","false","","","",""
"","","","","","audio-keyboard-response","24","2.0.0","33000","pvsufjvyuxu","mus","goose","22","male","yes","yes","2","1 hour","null","stimuli/sounds/buzz.wav","null","","","","","","",""
"","","","","","html-keyboard-response","25","2.0.0","33701","pvsufjvyuxu","mus","goose","22","male","yes","yes","2","1 hour","null","<p style='color:red; font-size:30px;'>Incorrect</p>","null","","","","","","",""
"","","","","","html-keyboard-response","26","2.0.0","37988","pvsufjvyuxu","mus","goose","22","male","yes","yes","2","1 hour","4286","<p>Practice complete. Press any key to begin the real experiment.</p>","Enter","","","","","","",""
"","","","","","html-keyboard-response","27","2.0.0","40843","pvsufjvyuxu","mus","goose","22","male","yes","yes","2","1 hour","2853","<div style=""font-size:30px;"">Press space to start the trial</div>"," ","","","","","","",""
"","","","","","html-keyboard-response","28","2.0.0","41095","pvsufjvyuxu","mus","goose","22","male","yes","yes","2","1 hour","null","<div style=""font-size:60px;"">+</div>","null","","","","","","",""
"","","","","","audio-keyboard-response","29","2.0.0","41697","pvsufjvyuxu","mus","goose","22","male","yes","yes","2","1 hour","null","stimuli/sounds/flute_label_A.wav","null","","","","","","",""
"","","","","","html-keyboard-response","30","2.0.0","42700","pvsufjvyuxu","mus","goose","22","male","yes","yes","2","1 hour","null","","null","","","","","","",""
"","","","","","image-keyboard-response","31","2.0.0","43592","pvsufjvyuxu","mus","goose","22","male","yes","yes","2","1 hour","889","stimuli/pictures/piano_electric_1.jpg","0","0","","true","no","sound","stimuli/sounds/flute_label_A.wav",""
"","","","","","audio-keyboard-response","32","2.0.0","44594","pvsufjvyuxu","mus","goose","22","male","yes","yes","2","1 hour","null","stimuli/sounds/bleep.wav","null","","","","","","",""
"","","","","","html-keyboard-response","33","2.0.0","46230","pvsufjvyuxu","mus","goose","22","male","yes","yes","2","1 hour","1532","<div style=""font-size:30px;"">Press space to start the trial</div>"," ","","","","","","",""
"","","","","","html-keyboard-response","34","2.0.0","46482","pvsufjvyuxu","mus","goose","22","male","yes","yes","2","1 hour","null","<div style=""font-size:60px;"">+</div>","null","","","","","","",""
"","","","","","audio-keyboard-response","35","2.0.0","47084","pvsufjvyuxu","mus","goose","22","male","yes","yes","2","1 hour","null","stimuli/sounds/bird_label_A.wav","null","","","","","","",""
"","","","","","html-keyboard-response","36","2.0.0","48087","pvsufjvyuxu","mus","goose","22","male","yes","yes","2","1 hour","null","","null","","","","","","",""
"","","","","","image-keyboard-response","37","2.0.0","48815","pvsufjvyuxu","mus","goose","22","male","yes","yes","2","1 hour","726","stimuli/pictures/flute_metal_1.jpg","0","0","","true","no","sound","stimuli/sounds/bird_label_A.wav",""
"","","","","","audio-keyboard-response","38","2.0.0","49817","pvsufjvyuxu","mus","goose","22","male","yes","yes","2","1 hour","null","stimuli/sounds/bleep.wav","null","","","","","","",""
"","","","","","html-keyboard-response","39","2.0.0","51025","pvsufjvyuxu","mus","goose","22","male","yes","yes","2","1 hour","1105","<div style=""font-size:30px;"">Press space to start the trial</div>"," ","","","","","","",""
"","","","","","html-keyboard-response","40","2.0.0","51277","pvsufjvyuxu","mus","goose","22","male","yes","yes","2","1 hour","null","<div style=""font-size:60px;"">+</div>","null","","","","","","",""
"","","","","","audio-keyboard-response","41","2.0.0","51878","pvsufjvyuxu","mus","goose","22","male","yes","yes","2","1 hour","null","stimuli/sounds/bird_sound_B.wav","null","","","","","","",""
"","","","","","html-keyboard-response","42","2.0.0","52880","pvsufjvyuxu","mus","goose","22","male","yes","yes","2","1 hour","null","","null","","","","","","",""
"","","","","","image-keyboard-response","43","2.0.0","53908","pvsufjvyuxu","mus","goose","22","male","yes","yes","2","1 hour","1027","stimuli/pictures/bird_hawk_1.jpg","1","1","","true","no","sound","stimuli/sounds/bird_sound_B.wav",""
"","","","","","audio-keyboard-response","44","2.0.0","54912","pvsufjvyuxu","mus","goose","22","male","yes","yes","2","1 hour","null","stimuli/sounds/bleep.wav","null","","","","","","",""
"","","","","","html-keyboard-response","45","2.0.0","56159","pvsufjvyuxu","mus","goose","22","male","yes","yes","2","1 hour","1143","<div style=""font-size:30px;"">Press space to start the trial</div>"," ","","","","","","",""
"","","","","","html-keyboard-response","46","2.0.0","56412","pvsufjvyuxu","mus","goose","22","male","yes","yes","2","1 hour","null","<div style=""font-size:60px;"">+</div>","null","","","","","","",""
"","","","","","audio-keyboard-response","47","2.0.0","57041","pvsufjvyuxu","mus","goose","22","male","yes","yes","2","1 hour","null","stimuli/sounds/piano_label_A.wav","null","","","","","","",""
"","","","","","html-keyboard-response","48","2.0.0","58043","pvsufjvyuxu","mus","goose","22","male","yes","yes","2","1 hour","null","","null","","","","","","",""
"","","","","","image-keyboard-response","49","2.0.0","58869","pvsufjvyuxu","mus","goose","22","male","yes","yes","2","1 hour","823","stimuli/pictures/phone_cell_2.jpg","0","0","","true","no","sound","stimuli/sounds/piano_label_A.wav",""
"","","","","","audio-keyboard-response","50","2.0.0","59873","pvsufjvyuxu","mus","goose","22","male","yes","yes","2","1 hour","null","stimuli/sounds/bleep.wav","null","","","","","","",""
"","","","","","html-keyboard-response","51","2.0.0","60820","pvsufjvyuxu","mus","goose","22","male","yes","yes","2","1 hour","845","<div style=""font-size:30px;"">Press space to start the trial</div>"," ","","","","","","",""
"","","","","","html-keyboard-response","52","2.0.0","61073","pvsufjvyuxu","mus","goose","22","male","yes","yes","2","1 hour","null","<div style=""font-size:60px;"">+</div>","null","","","","","","",""
"","","","","","audio-keyboard-response","53","2.0.0","61676","pvsufjvyuxu","mus","goose","22","male","yes","yes","2","1 hour","null","stimuli/sounds/bird_sound_A.wav","null","","","","","","",""
"","","","","","html-keyboard-response","54","2.0.0","62678","pvsufjvyuxu","mus","goose","22","male","yes","yes","2","1 hour","null","","null","","","","","","",""
"","","","","","image-keyboard-response","55","2.0.0","63483","pvsufjvyuxu","mus","goose","22","male","yes","yes","2","1 hour","803","stimuli/pictures/piano_grand_1.jpg","0","0","","true","no","sound","stimuli/sounds/bird_sound_A.wav",""
"","","","","","audio-keyboard-response","56","2.0.0","64486","pvsufjvyuxu","mus","goose","22","male","yes","yes","2","1 hour","null","stimuli/sounds/bleep.wav","null","","","","","","",""
"","","","","","html-keyboard-response","57","2.0.0","66500","pvsufjvyuxu","mus","goose","22","male","yes","yes","2","1 hour","1911","<div style=""font-size:30px;"">Press space to start the trial</div>"," ","","","","","","",""
"","","","","","html-keyboard-response","58","2.0.0","66752","pvsufjvyuxu","mus","goose","22","male","yes","yes","2","1 hour","null","<div style=""font-size:60px;"">+</div>","null","","","","","","",""
"","","","","","audio-keyboard-response","59","2.0.0","67356","pvsufjvyuxu","mus","goose","22","male","yes","yes","2","1 hour","null","stimuli/sounds/piano_label_B.wav","null","","","","","","",""
"","","","","","html-keyboard-response","60","2.0.0","68359","pvsufjvyuxu","mus","goose","22","male","yes","yes","2","1 hour","null","","null","","","","","","",""
"","","","","","image-keyboard-response","61","2.0.0","69198","pvsufjvyuxu","mus","goose","22","male","yes","yes","2","1 hour","837","stimuli/pictures/bird_song_1.jpg","0","0","","true","no","sound","stimuli/sounds/piano_label_B.wav",""
"","","","","","audio-keyboard-response","62","2.0.0","70202","pvsufjvyuxu","mus","goose","22","male","yes","yes","2","1 hour","null","stimuli/sounds/bleep.wav","null","","","","","","",""
"","","","","","html-keyboard-response","63","2.0.0","70904","pvsufjvyuxu","mus","goose","22","male","yes","yes","2","1 hour","599","<div style=""font-size:30px;"">Press space to start the trial</div>"," ","","","","","","",""
"","","","","","html-keyboard-response","64","2.0.0","71156","pvsufjvyuxu","mus","goose","22","male","yes","yes","2","1 hour","null","<div style=""font-size:60px;"">+</div>","null","","","","","","",""
"","","","","","audio-keyboard-response","65","2.0.0","71756","pvsufjvyuxu","mus","goose","22","male","yes","yes","2","1 hour","null","stimuli/sounds/piano_label_B.wav","null","","","","","","",""
"","","","","","html-keyboard-response","66","2.0.0","72758","pvsufjvyuxu","mus","goose","22","male","yes","yes","2","1 hour","null","","null","","","","","","",""
"","","","","","image-keyboard-response","67","2.0.0","73734","pvsufjvyuxu","mus","goose","22","male","yes","yes","2","1 hour","974","stimuli/pictures/piano_grand_1.jpg","1","1","","true","yes","sound","stimuli/sounds/piano_label_B.wav",""
"","","","","","audio-keyboard-response","68","2.0.0","74737","pvsufjvyuxu","mus","goose","22","male","yes","yes","2","1 hour","null","stimuli/sounds/bleep.wav","null","","","","","","",""
"","","","","","html-keyboard-response","69","2.0.0","75357","pvsufjvyuxu","mus","goose","22","male","yes","yes","2","1 hour","517","<div style=""font-size:30px;"">Press space to start the trial</div>"," ","","","","","","",""
"","","","","","html-keyboard-response","70","2.0.0","75610","pvsufjvyuxu","mus","goose","22","male","yes","yes","2","1 hour","null","<div style=""font-size:60px;"">+</div>","null","","","","","","",""
"","","","","","audio-keyboard-response","71","2.0.0","76220","pvsufjvyuxu","mus","goose","22","male","yes","yes","2","1 hour","null","stimuli/sounds/piano_sound_B.wav","null","","","","","","",""
"","","","","","html-keyboard-response","72","2.0.0","77222","pvsufjvyuxu","mus","goose","22","male","yes","yes","2","1 hour","null","","null","","","","","","",""
"","","","","","image-keyboard-response","73","2.0.0","78551","pvsufjvyuxu","mus","goose","22","male","yes","yes","2","1 hour","1327","stimuli/pictures/flute_wooden_1.jpg","0","0","","true","no","sound","stimuli/sounds/piano_sound_B.wav",""
"","","","","","audio-keyboard-response","74","2.0.0","79557","pvsufjvyuxu","mus","goose","22","male","yes","yes","2","1 hour","null","stimuli/sounds/bleep.wav","null","","","","","","",""
"","","","","","html-keyboard-response","75","2.0.0","80131","pvsufjvyuxu","mus","goose","22","male","yes","yes","2","1 hour","472","<div style=""font-size:30px;"">Press space to start the trial</div>"," ","","","","","","",""
"","","","","","html-keyboard-response","76","2.0.0","80385","pvsufjvyuxu","mus","goose","22","male","yes","yes","2","1 hour","null","<div style=""font-size:60px;"">+</div>","null","","","","","","",""
"","","","","","audio-keyboard-response","77","2.0.0","80988","pvsufjvyuxu","mus","goose","22","male","yes","yes","2","1 hour","null","stimuli/sounds/phone_label_A.wav","null","","","","","","",""
"","","","","","html-keyboard-response","78","2.0.0","81991","pvsufjvyuxu","mus","goose","22","male","yes","yes","2","1 hour","null","","null","","","","","","",""
"","","","","","image-keyboard-response","79","2.0.0","82425","pvsufjvyuxu","mus","goose","22","male","yes","yes","2","1 hour","432","stimuli/pictures/phone_cell_1.jpg","1","1","","true","yes","sound","stimuli/sounds/phone_label_A.wav",""
"","","","","","audio-keyboard-response","80","2.0.0","83427","pvsufjvyuxu","mus","goose","22","male","yes","yes","2","1 hour","null","stimuli/sounds/bleep.wav","null","","","","","","",""
"","","","","","html-keyboard-response","81","2.0.0","84077","pvsufjvyuxu","mus","goose","22","male","yes","yes","2","1 hour","548","<div style=""font-size:30px;"">Press space to start the trial</div>"," ","","","","","","",""
"","","","","","html-keyboard-response","82","2.0.0","84330","pvsufjvyuxu","mus","goose","22","male","yes","yes","2","1 hour","null","<div style=""font-size:60px;"">+</div>","null","","","","","","",""
"","","","","","audio-keyboard-response","83","2.0.0","84929","pvsufjvyuxu","mus","goose","22","male","yes","yes","2","1 hour","null","stimuli/sounds/bird_label_A.wav","null","","","","","","",""
"","","","","","html-keyboard-response","84","2.0.0","85932","pvsufjvyuxu","mus","goose","22","male","yes","yes","2","1 hour","null","","null","","","","","","",""
"","","","","","image-keyboard-response","85","2.0.0","86405","pvsufjvyuxu","mus","goose","22","male","yes","yes","2","1 hour","472","stimuli/pictures/bird_song_1.jpg","1","1","","true","yes","sound","stimuli/sounds/bird_label_A.wav",""
"","","","","","audio-keyboard-response","86","2.0.0","87409","pvsufjvyuxu","mus","goose","22","male","yes","yes","2","1 hour","null","stimuli/sounds/bleep.wav","null","","","","","","",""
"","","","","","html-keyboard-response","87","2.0.0","87972","pvsufjvyuxu","mus","goose","22","male","yes","yes","2","1 hour","461","<div style=""font-size:30px;"">Press space to start the trial</div>"," ","","","","","","",""
"","","","","","html-keyboard-response","88","2.0.0","88225","pvsufjvyuxu","mus","goose","22","male","yes","yes","2","1 hour","null","<div style=""font-size:60px;"">+</div>","null","","","","","","",""
"","","","","","audio-keyboard-response","89","2.0.0","88828","pvsufjvyuxu","mus","goose","22","male","yes","yes","2","1 hour","null","stimuli/sounds/bird_sound_A.wav","null","","","","","","",""
"","","","","","html-keyboard-response","90","2.0.0","89831","pvsufjvyuxu","mus","goose","22","male","yes","yes","2","1 hour","null","","null","","","","","","",""
"","","","","","image-keyboard-response","91","2.0.0","90216","pvsufjvyuxu","mus","goose","22","male","yes","yes","2","1 hour","383","stimuli/pictures/bird_song_1.jpg","1","1","","true","no","sound","stimuli/sounds/bird_sound_A.wav",""
"","","","","","audio-keyboard-response","92","2.0.0","91218","pvsufjvyuxu","mus","goose","22","male","yes","yes","2","1 hour","null","stimuli/sounds/bleep.wav","null","","","","","","",""
"","","","","","html-keyboard-response","93","2.0.0","91778","pvsufjvyuxu","mus","goose","22","male","yes","yes","2","1 hour","457","<div style=""font-size:30px;"">Press space to start the trial</div>"," ","","","","","","",""
"","","","","","html-keyboard-response","94","2.0.0","92030","pvsufjvyuxu","mus","goose","22","male","yes","yes","2","1 hour","null","<div style=""font-size:60px;"">+</div>","null","","","","","","",""
"","","","","","audio-keyboard-response","95","2.0.0","92630","pvsufjvyuxu","mus","goose","22","male","yes","yes","2","1 hour","null","stimuli/sounds/phone_sound_A.wav","null","","","","","","",""
"","","","","","html-keyboard-response","96","2.0.0","93633","pvsufjvyuxu","mus","goose","22","male","yes","yes","2","1 hour","null","","null","","","","","","",""
"","","","","","image-keyboard-response","97","2.0.0","94195","pvsufjvyuxu","mus","goose","22","male","yes","yes","2","1 hour","559","stimuli/pictures/phone_rotary_2.jpg","1","1","","true","no","sound","stimuli/sounds/phone_sound_A.wav",""
"","","","","","audio-keyboard-response","98","2.0.0","95198","pvsufjvyuxu","mus","goose","22","male","yes","yes","2","1 hour","null","stimuli/sounds/bleep.wav","null","","","","","","",""
"","","","","","html-keyboard-response","99","2.0.0","95705","pvsufjvyuxu","mus","goose","22","male","yes","yes","2","1 hour","405","<div style=""font-size:30px;"">Press space to start the trial</div>"," ","","","","","","",""
"","","","","","html-keyboard-response","100","2.0.0","95959","pvsufjvyuxu","mus","goose","22","male","yes","yes","2","1 hour","null","<div style=""font-size:60px;"">+</div>","null","","","","","","",""
"","","","","","audio-keyboard-response","101","2.0.0","96561","pvsufjvyuxu","mus","goose","22","male","yes","yes","2","1 hour","null","stimuli/sounds/flute_label_A.wav","null","","","","","","",""
"","","","","","html-keyboard-response","102","2.0.0","97563","pvsufjvyuxu","mus","goose","22","male","yes","yes","2","1 hour","null","","null","","","","","","",""
"","","","","","image-keyboard-response","103","2.0.0","98079","pvsufjvyuxu","mus","goose","22","male","yes","yes","2","1 hour","514","stimuli/pictures/flute_metal_1.jpg","1","1","","true","yes","sound","stimuli/sounds/flute_label_A.wav",""
"","","","","","audio-keyboard-response","104","2.0.0","99081","pvsufjvyuxu","mus","goose","22","male","yes","yes","2","1 hour","null","stimuli/sounds/bleep.wav","null","","","","","","",""
"","","","","","html-keyboard-response","105","2.0.0","99587","pvsufjvyuxu","mus","goose","22","male","yes","yes","2","1 hour","402","<div style=""font-size:30px;"">Press space to start the trial</div>"," ","","","","","","",""
"","","","","","html-keyboard-response","106","2.0.0","99839","pvsufjvyuxu","mus","goose","22","male","yes","yes","2","1 hour","null","<div style=""font-size:60px;"">+</div>","null","","","","","","",""
"","","","","","audio-keyboard-response","107","2.0.0","100444","pvsufjvyuxu","mus","goose","22","male","yes","yes","2","1 hour","null","stimuli/sounds/piano_sound_A.wav","null","","","","","","",""
"","","","","","html-keyboard-response","108","2.0.0","101446","pvsufjvyuxu","mus","goose","22","male","yes","yes","2","1 hour","null","","null","","","","","","",""
"","","","","","image-keyboard-response","109","2.0.0","101849","pvsufjvyuxu","mus","goose","22","male","yes","yes","2","1 hour","401","stimuli/pictures/piano_grand_2.jpg","1","1","","true","yes","sound","stimuli/sounds/piano_sound_A.wav",""
"","","","","","audio-keyboard-response","110","2.0.0","102851","pvsufjvyuxu","mus","goose","22","male","yes","yes","2","1 hour","null","stimuli/sounds/bleep.wav","null","","","","","","",""
"","","","","","html-keyboard-response","111","2.0.0","103355","pvsufjvyuxu","mus","goose","22","male","yes","yes","2","1 hour","402","<div style=""font-size:30px;"">Press space to start the trial</div>"," ","","","","","","",""
"","","","","","html-keyboard-response","112","2.0.0","103609","pvsufjvyuxu","mus","goose","22","male","yes","yes","2","1 hour","null","<div style=""font-size:60px;"">+</div>","null","","","","","","",""
"","","","","","audio-keyboard-response","113","2.0.0","104209","pvsufjvyuxu","mus","goose","22","male","yes","yes","2","1 hour","null","stimuli/sounds/drum_sound_B.wav","null","","","","","","",""
"","","","","","html-keyboard-response","114","2.0.0","105212","pvsufjvyuxu","mus","goose","22","male","yes","yes","2","1 hour","null","","null","","","","","","",""
"","","","","","image-keyboard-response","115","2.0.0","105884","pvsufjvyuxu","mus","goose","22","male","yes","yes","2","1 hour","671","stimuli/pictures/phone_rotary_1.jpg","0","0","","true","no","sound","stimuli/sounds/drum_sound_B.wav",""
"","","","","","audio-keyboard-response","116","2.0.0","106886","pvsufjvyuxu","mus","goose","22","male","yes","yes","2","1 hour","null","stimuli/sounds/bleep.wav","null","","","","","","",""
"","","","","","html-keyboard-response","117","2.0.0","107526","pvsufjvyuxu","mus","goose","22","male","yes","yes","2","1 hour","537","<div style=""font-size:30px;"">Press space to start the trial</div>"," ","","","","","","",""
"","","","","","html-keyboard-response","118","2.0.0","107778","pvsufjvyuxu","mus","goose","22","male","yes","yes","2","1 hour","null","<div style=""font-size:60px;"">+</div>","null","","","","","","",""
"","","","","","audio-keyboard-response","119","2.0.0","108379","pvsufjvyuxu","mus","goose","22","male","yes","yes","2","1 hour","null","stimuli/sounds/bird_label_A.wav","null","","","","","","",""
"","","","","","html-keyboard-response","120","2.0.0","109382","pvsufjvyuxu","mus","goose","22","male","yes","yes","2","1 hour","null","","null","","","","","","",""
"","","","","","image-keyboard-response","121","2.0.0","109873","pvsufjvyuxu","mus","goose","22","male","yes","yes","2","1 hour","490","stimuli/pictures/bird_song_2.jpg","1","1","","true","yes","sound","stimuli/sounds/bird_label_A.wav",""
"","","","","","audio-keyboard-response","122","2.0.0","110874","pvsufjvyuxu","mus","goose","22","male","yes","yes","2","1 hour","null","stimuli/sounds/bleep.wav","null","","","","","","",""
"","","","","","html-keyboard-response","123","2.0.0","111486","pvsufjvyuxu","mus","goose","22","male","yes","yes","2","1 hour","509","<div style=""font-size:30px;"">Press space to start the trial</div>"," ","","","","","","",""
"","","","","","html-keyboard-response","124","2.0.0","111738","pvsufjvyuxu","mus","goose","22","male","yes","yes","2","1 hour","null","<div style=""font-size:60px;"">+</div>","null","","","","","","",""
"","","","","","audio-keyboard-response","125","2.0.0","112343","pvsufjvyuxu","mus","goose","22","male","yes","yes","2","1 hour","null","stimuli/sounds/flute_sound_B.wav","null","","","","","","",""
"","","","","","html-keyboard-response","126","2.0.0","113345","pvsufjvyuxu","mus","goose","22","male","yes","yes","2","1 hour","null","","null","","","","","","",""
"","","","","","image-keyboard-response","127","2.0.0","114105","pvsufjvyuxu","mus","goose","22","male","yes","yes","2","1 hour","757","stimuli/pictures/bird_hawk_1.jpg","1","0","","false","no","sound","stimuli/sounds/flute_sound_B.wav",""
"","","","","","audio-keyboard-response","128","2.0.0","115108","pvsufjvyuxu","mus","goose","22","male","yes","yes","2","1 hour","null","stimuli/sounds/buzz.wav","null","","","","","","",""
"","","","","","html-keyboard-response","129","2.0.0","115630","pvsufjvyuxu","mus","goose","22","male","yes","yes","2","1 hour","420","<div style=""font-size:30px;"">Press space to start the trial</div>"," ","","","","","","",""
"","","","","","html-keyboard-response","130","2.0.0","115883","pvsufjvyuxu","mus","goose","22","male","yes","yes","2","1 hour","null","<div style=""font-size:60px;"">+</div>","null","","","","","","",""
"","","","","","audio-keyboard-response","131","2.0.0","116491","pvsufjvyuxu","mus","goose","22","male","yes","yes","2","1 hour","null","stimuli/sounds/piano_sound_A.wav","null","","","","","","",""
"","","","","","html-keyboard-response","132","2.0.0","117493","pvsufjvyuxu","mus","goose","22","male","yes","yes","2","1 hour","null","","null","","","","","","",""
"","","","","","image-keyboard-response","133","2.0.0","118112","pvsufjvyuxu","mus","goose","22","male","yes","yes","2","1 hour","617","stimuli/pictures/piano_electric_2.jpg","1","1","","true","no","sound","stimuli/sounds/piano_sound_A.wav",""
"","","","","","audio-keyboard-response","134","2.0.0","119114","pvsufjvyuxu","mus","goose","22","male","yes","yes","2","1 hour","null","stimuli/sounds/bleep.wav","null","","","","","","",""
"","","","","","html-keyboard-response","135","2.0.0","119550","pvsufjvyuxu","mus","goose","22","male","yes","yes","2","1 hour","333","<div style=""font-size:30px;"">Press space to start the trial</div>"," ","","","","","","",""
"","","","","","html-keyboard-response","136","2.0.0","119803","pvsufjvyuxu","mus","goose","22","male","yes","yes","2","1 hour","null","<div style=""font-size:60px;"">+</div>","null","","","","","","",""
"","","","","","audio-keyboard-response","137","2.0.0","120433","pvsufjvyuxu","mus","goose","22","male","yes","yes","2","1 hour","null","stimuli/sounds/piano_label_A.wav","null","","","","","","",""
"","","","","","html-keyboard-response","138","2.0.0","121435","pvsufjvyuxu","mus","goose","22","male","yes","yes","2","1 hour","null","","null","","","","","","",""
"","","","","","image-keyboard-response","139","2.0.0","122279","pvsufjvyuxu","mus","goose","22","male","yes","yes","2","1 hour","842","stimuli/pictures/phone_cell_1.jpg","0","0","","true","no","sound","stimuli/sounds/piano_label_A.wav",""
"","","","","","audio-keyboard-response","140","2.0.0","123282","pvsufjvyuxu","mus","goose","22","male","yes","yes","2","1 hour","null","stimuli/sounds/bleep.wav","null","","","","","","",""
"","","","","","html-keyboard-response","141","2.0.0","123740","pvsufjvyuxu","mus","goose","22","male","yes","yes","2","1 hour","355","<div style=""font-size:30px;"">Press space to start the trial</div>"," ","","","","","","",""
"","","","","","html-keyboard-response","142","2.0.0","123993","pvsufjvyuxu","mus","goose","22","male","yes","yes","2","1 hour","null","<div style=""font-size:60px;"">+</div>","null","","","","","","",""
"","","","","","audio-keyboard-response","143","2.0.0","124593","pvsufjvyuxu","mus","goose","22","male","yes","yes","2","1 hour","null","stimuli/sounds/phone_label_A.wav","null","","","","","","",""
"","","","","","html-keyboard-response","144","2.0.0","125596","pvsufjvyuxu","mus","goose","22","male","yes","yes","2","1 hour","null","","null","","","","","","",""
"","","","","","image-keyboard-response","145","2.0.0","126070","pvsufjvyuxu","mus","goose","22","male","yes","yes","2","1 hour","472","stimuli/pictures/phone_cell_2.jpg","1","1","","true","yes","sound","stimuli/sounds/phone_label_A.wav",""
"","","","","","audio-keyboard-response","146","2.0.0","127073","pvsufjvyuxu","mus","goose","22","male","yes","yes","2","1 hour","null","stimuli/sounds/bleep.wav","null","","","","","","",""
"","","","","","html-keyboard-response","147","2.0.0","132925","pvsufjvyuxu","mus","goose","22","male","yes","yes","2","1 hour","5750","<p>You have completed a block. Press R when you are ready to continue</p>","r","","","","","","",""
"","","","","","html-keyboard-response","148","2.0.0","134065","pvsufjvyuxu","mus","goose","22","male","yes","yes","2","1 hour","1139","<div style=""font-size:30px;"">Press space to start the trial</div>"," ","","","","","","",""
"","","","","","html-keyboard-response","149","2.0.0","134318","pvsufjvyuxu","mus","goose","22","male","yes","yes","2","1 hour","null","<div style=""font-size:60px;"">+</div>","null","","","","","","",""
"","","","","","audio-keyboard-response","150","2.0.0","134918","pvsufjvyuxu","mus","goose","22","male","yes","yes","2","1 hour","null","stimuli/sounds/drum_label_A.wav","null","","","","","","",""
"","","","","","html-keyboard-response","151","2.0.0","135922","pvsufjvyuxu","mus","goose","22","male","yes","yes","2","1 hour","null","","null","","","","","","",""
"","","","","","image-keyboard-response","152","2.0.0","136394","pvsufjvyuxu","mus","goose","22","male","yes","yes","2","1 hour","471","stimuli/pictures/drum_kit_2.jpg","1","1","","true","yes","sound","stimuli/sounds/drum_label_A.wav",""
"","","","","","audio-keyboard-response","153","2.0.0","137396","pvsufjvyuxu","mus","goose","22","male","yes","yes","2","1 hour","null","stimuli/sounds/bleep.wav","null","","","","","","",""
"","","","","","html-keyboard-response","154","2.0.0","138070","pvsufjvyuxu","mus","goose","22","male","yes","yes","2","1 hour","571","<div style=""font-size:30px;"">Press space to start the trial</div>"," ","","","","","","",""
"","","","","","html-keyboard-response","155","2.0.0","138323","pvsufjvyuxu","mus","goose","22","male","yes","yes","2","1 hour","null","<div style=""font-size:60px;"">+</div>","null","","","","","","",""
"","","","","","audio-keyboard-response","156","2.0.0","138929","pvsufjvyuxu","mus","goose","22","male","yes","yes","2","1 hour","null","stimuli/sounds/flute_sound_B.wav","null","","","","","","",""
"","","","","","html-keyboard-response","157","2.0.0","139931","pvsufjvyuxu","mus","goose","22","male","yes","yes","2","1 hour","null","","null","","","","","","",""
"","","","","","image-keyboard-response","158","2.0.0","140432","pvsufjvyuxu","mus","goose","22","male","yes","yes","2","1 hour","499","stimuli/pictures/flute_wooden_2.jpg","1","1","","true","yes","sound","stimuli/sounds/flute_sound_B.wav",""
"","","","","","audio-keyboard-response","159","2.0.0","141435","pvsufjvyuxu","mus","goose","22","male","yes","yes","2","1 hour","null","stimuli/sounds/bleep.wav","null","","","","","","",""
"","","","","","html-keyboard-response","160","2.0.0","142007","pvsufjvyuxu","mus","goose","22","male","yes","yes","2","1 hour","469","<div style=""font-size:30px;"">Press space to start the trial</div>"," ","","","","","","",""
"","","","","","html-keyboard-response","161","2.0.0","142259","pvsufjvyuxu","mus","goose","22","male","yes","yes","2","1 hour","null","<div style=""font-size:60px;"">+</div>","null","","","","","","",""
"","","","","","audio-keyboard-response","162","2.0.0","142865","pvsufjvyuxu","mus","goose","22","male","yes","yes","2","1 hour","null","stimuli/sounds/flute_label_B.wav","null","","","","","","",""
"","","","","","html-keyboard-response","163","2.0.0","143868","pvsufjvyuxu","mus","goose","22","male","yes","yes","2","1 hour","null","","null","","","","","","",""
"","","","","","image-keyboard-response","164","2.0.0","144570","pvsufjvyuxu","mus","goose","22","male","yes","yes","2","1 hour","700","stimuli/pictures/flute_wooden_1.jpg","1","1","","true","yes","sound","stimuli/sounds/flute_label_B.wav",""
"","","","","","audio-keyboard-response","165","2.0.0","145573","pvsufjvyuxu","mus","goose","22","male","yes","yes","2","1 hour","null","stimuli/sounds/bleep.wav","null","","","","","","",""
"","","","","","html-keyboard-response","166","2.0.0","146150","pvsufjvyuxu","mus","goose","22","male","yes","yes","2","1 hour","475","<div style=""font-size:30px;"">Press space to start the trial</div>"," ","","","","","","",""
"","","","","","html-keyboard-response","167","2.0.0","146403","pvsufjvyuxu","mus","goose","22","male","yes","yes","2","1 hour","null","<div style=""font-size:60px;"">+</div>","null","","","","","","",""
"","","","","","audio-keyboard-response","168","2.0.0","147004","pvsufjvyuxu","mus","goose","22","male","yes","yes","2","1 hour","null","stimuli/sounds/bird_label_B.wav","null","","","","","","",""
"","","","","","html-keyboard-response","169","2.0.0","148005","pvsufjvyuxu","mus","goose","22","male","yes","yes","2","1 hour","null","","null","","","","","","",""
"","","","","","image-keyboard-response","170","2.0.0","148526","pvsufjvyuxu","mus","goose","22","male","yes","yes","2","1 hour","519","stimuli/pictures/bird_song_1.jpg","1","1","","true","yes","sound","stimuli/sounds/bird_label_B.wav",""
"","","","","","audio-keyboard-response","171","2.0.0","149527","pvsufjvyuxu","mus","goose","22","male","yes","yes","2","1 hour","null","stimuli/sounds/bleep.wav","null","","","","","","",""
"","","","","","html-keyboard-response","172","2.0.0","150069","pvsufjvyuxu","mus","goose","22","male","yes","yes","2","1 hour","440","<div style=""font-size:30px;"">Press space to start the trial</div>"," ","","","","","","",""
"","","","","","html-keyboard-response","173","2.0.0","150321","pvsufjvyuxu","mus","goose","22","male","yes","yes","2","1 hour","null","<div style=""font-size:60px;"">+</div>","null","","","","","","",""
"","","","","","audio-keyboard-response","174","2.0.0","150924","pvsufjvyuxu","mus","goose","22","male","yes","yes","2","1 hour","null","stimuli/sounds/bird_label_B.wav","null","","","","","","",""
"","","","","","html-keyboard-response","175","2.0.0","151927","pvsufjvyuxu","mus","goose","22","male","yes","yes","2","1 hour","null","","null","","","","","","",""
"","","","","","image-keyboard-response","176","2.0.0","152474","pvsufjvyuxu","mus","goose","22","male","yes","yes","2","1 hour","547","stimuli/pictures/bird_hawk_1.jpg","1","1","","true","yes","sound","stimuli/sounds/bird_label_B.wav",""
"","","","","","audio-keyboard-response","177","2.0.0","153477","pvsufjvyuxu","mus","goose","22","male","yes","yes","2","1 hour","null","stimuli/sounds/bleep.wav","null","","","","","","",""
"","","","","","html-keyboard-response","178","2.0.0","153930","pvsufjvyuxu","mus","goose","22","male","yes","yes","2","1 hour","351","<div style=""font-size:30px;"">Press space to start the trial</div>"," ","","","","","","",""
"","","","","","html-keyboard-response","179","2.0.0","154182","pvsufjvyuxu","mus","goose","22","male","yes","yes","2","1 hour","null","<div style=""font-size:60px;"">+</div>","null","","","","","","",""
"","","","","","audio-keyboard-response","180","2.0.0","154785","pvsufjvyuxu","mus","goose","22","male","yes","yes","2","1 hour","null","stimuli/sounds/phone_sound_B.wav","null","","","","","","",""
"","","","","","html-keyboard-response","181","2.0.0","155788","pvsufjvyuxu","mus","goose","22","male","yes","yes","2","1 hour","null","","null","","","","","","",""
"","","","","","image-keyboard-response","182","2.0.0","156288","pvsufjvyuxu","mus","goose","22","male","yes","yes","2","1 hour","499","stimuli/pictures/piano_grand_2.jpg","1","0","","false","no","sound","stimuli/sounds/phone_sound_B.wav",""
"","","","","","audio-keyboard-response","183","2.0.0","157291","pvsufjvyuxu","mus","goose","22","male","yes","yes","2","1 hour","null","stimuli/sounds/buzz.wav","null","","","","","","",""
"","","","","","html-keyboard-response","184","2.0.0","157904","pvsufjvyuxu","mus","goose","22","male","yes","yes","2","1 hour","511","<div style=""font-size:30px;"">Press space to start the trial</div>"," ","","","","","","",""
"","","","","","html-keyboard-response","185","2.0.0","158157","pvsufjvyuxu","mus","goose","22","male","yes","yes","2","1 hour","null","<div style=""font-size:60px;"">+</div>","null","","","","","","",""
"","","","","","audio-keyboard-response","186","2.0.0","158759","pvsufjvyuxu","mus","goose","22","male","yes","yes","2","1 hour","null","stimuli/sounds/phone_label_A.wav","null","","","","","","",""
"","","","","","html-keyboard-response","187","2.0.0","159761","pvsufjvyuxu","mus","goose","22","male","yes","yes","2","1 hour","null","","null","","","","","","",""
"","","","","","image-keyboard-response","188","2.0.0","160540","pvsufjvyuxu","mus","goose","22","male","yes","yes","2","1 hour","778","stimuli/pictures/phone_rotary_2.jpg","1","1","","true","yes","sound","stimuli/sounds/phone_label_A.wav",""
"","","","","","audio-keyboard-response","189","2.0.0","161542","pvsufjvyuxu","mus","goose","22","male","yes","yes","2","1 hour","null","stimuli/sounds/bleep.wav","null","","","","","","",""
"","","","","","html-keyboard-response","190","2.0.0","162080","pvsufjvyuxu","mus","goose","22","male","yes","yes","2","1 hour","435","<div style=""font-size:30px;"">Press space to start the trial</div>"," ","","","","","","",""
"","","","","","html-keyboard-response","191","2.0.0","162333","pvsufjvyuxu","mus","goose","22","male","yes","yes","2","1 hour","null","<div style=""font-size:60px;"">+</div>","null","","","","","","",""
"","","","","","audio-keyboard-response","192","2.0.0","162934","pvsufjvyuxu","mus","goose","22","male","yes","yes","2","1 hour","null","stimuli/sounds/drum_label_B.wav","null","","","","","","",""
"","","","","","html-keyboard-response","193","2.0.0","163937","pvsufjvyuxu","mus","goose","22","male","yes","yes","2","1 hour","null","","null","","","","","","",""
"","","","","","image-keyboard-response","194","2.0.0","164436","pvsufjvyuxu","mus","goose","22","male","yes","yes","2","1 hour","497","stimuli/pictures/drum_kit_1.jpg","1","1","","true","yes","sound","stimuli/sounds/drum_label_B.wav",""
"","","","","","audio-keyboard-response","195","2.0.0","165438","pvsufjvyuxu","mus","goose","22","male","yes","yes","2","1 hour","null","stimuli/sounds/bleep.wav","null","","","","","","",""
"","","","","","html-keyboard-response","196","2.0.0","165805","pvsufjvyuxu","mus","goose","22","male","yes","yes","2","1 hour","265","<div style=""font-size:30px;"">Press space to start the trial</div>"," ","","","","","","",""
"","","","","","html-keyboard-response","197","2.0.0","166057","pvsufjvyuxu","mus","goose","22","male","yes","yes","2","1 hour","null","<div style=""font-size:60px;"">+</div>","null","","","","","","",""
"","","","","","audio-keyboard-response","198","2.0.0","166657","pvsufjvyuxu","mus","goose","22","male","yes","yes","2","1 hour","null","stimuli/sounds/bird_sound_B.wav","null","","","","","","",""
"","","","","","html-keyboard-response","199","2.0.0","167659","pvsufjvyuxu","mus","goose","22","male","yes","yes","2","1 hour","null","","null","","","","","","",""
"","","","","","image-keyboard-response","200","2.0.0","168313","pvsufjvyuxu","mus","goose","22","male","yes","yes","2","1 hour","652","stimuli/pictures/drum_bongo_1.jpg","0","0","","true","no","sound","stimuli/sounds/bird_sound_B.wav",""
"","","","","","audio-keyboard-response","201","2.0.0","169316","pvsufjvyuxu","mus","goose","22","male","yes","yes","2","1 hour","null","stimuli/sounds/bleep.wav","null","","","","","","",""
"","","","","","html-keyboard-response","202","2.0.0","169786","pvsufjvyuxu","mus","goose","22","male","yes","yes","2","1 hour","368","<div style=""font-size:30px;"">Press space to start the trial</div>"," ","","","","","","",""
"","","","","","html-keyboard-response","203","2.0.0","170039","pvsufjvyuxu","mus","goose","22","male","yes","yes","2","1 hour","null","<div style=""font-size:60px;"">+</div>","null","","","","","","",""
"","","","","","audio-keyboard-response","204","2.0.0","170646","pvsufjvyuxu","mus","goose","22","male","yes","yes","2","1 hour","null","stimuli/sounds/flute_label_B.wav","null","","","","","","",""
"","","","","","html-keyboard-response","205","2.0.0","171649","pvsufjvyuxu","mus","goose","22","male","yes","yes","2","1 hour","null","","null","","","","","","",""
"","","","","","image-keyboard-response","206","2.0.0","172226","pvsufjvyuxu","mus","goose","22","male","yes","yes","2","1 hour","577","stimuli/pictures/flute_metal_1.jpg","1","1","","true","yes","sound","stimuli/sounds/flute_label_B.wav",""
"","","","","","audio-keyboard-response","207","2.0.0","173228","pvsufjvyuxu","mus","goose","22","male","yes","yes","2","1 hour","null","stimuli/sounds/bleep.wav","null","","","","","","",""
"","","","","","html-keyboard-response","208","2.0.0","173863","pvsufjvyuxu","mus","goose","22","male","yes","yes","2","1 hour","532","<div style=""font-size:30px;"">Press space to start the trial</div>"," ","","","","","","",""
"","","","","","html-keyboard-response","209","2.0.0","174116","pvsufjvyuxu","mus","goose","22","male","yes","yes","2","1 hour","null","<div style=""font-size:60px;"">+</div>","null","","","","","","",""
"","","","","","audio-keyboard-response","210","2.0.0","174716","pvsufjvyuxu","mus","goose","22","male","yes","yes","2","1 hour","null","stimuli/sounds/phone_sound_B.wav","null","","","","","","",""
"","","","","","html-keyboard-response","211","2.0.0","175718","pvsufjvyuxu","mus","goose","22","male","yes","yes","2","1 hour","null","","null","","","","","","",""
"","","","","","image-keyboard-response","212","2.0.0","176343","pvsufjvyuxu","mus","goose","22","male","yes","yes","2","1 hour","623","stimuli/pictures/phone_rotary_1.jpg","1","1","","true","yes","sound","stimuli/sounds/phone_sound_B.wav",""
"","","","","","audio-keyboard-response","213","2.0.0","177346","pvsufjvyuxu","mus","goose","22","male","yes","yes","2","1 hour","null","stimuli/sounds/bleep.wav","null","","","","","","",""
"","","","","","html-keyboard-response","214","2.0.0","177754","pvsufjvyuxu","mus","goose","22","male","yes","yes","2","1 hour","304","<div style=""font-size:30px;"">Press space to start the trial</div>"," ","","","","","","",""
"","","","","","html-keyboard-response","215","2.0.0","178006","pvsufjvyuxu","mus","goose","22","male","yes","yes","2","1 hour","null","<div style=""font-size:60px;"">+</div>","null","","","","","","",""
"","","","","","audio-keyboard-response","216","2.0.0","178614","pvsufjvyuxu","mus","goose","22","male","yes","yes","2","1 hour","null","stimuli/sounds/piano_sound_A.wav","null","","","","","","",""
"","","","","","html-keyboard-response","217","2.0.0","179618","pvsufjvyuxu","mus","goose","22","male","yes","yes","2","1 hour","null","","null","","","","","","",""
"","","","","","image-keyboard-response","218","2.0.0","180298","pvsufjvyuxu","mus","goose","22","male","yes","yes","2","1 hour","679","stimuli/pictures/drum_kit_2.jpg","1","0","","false","no","sound","stimuli/sounds/piano_sound_A.wav",""
"","","","","","audio-keyboard-response","219","2.0.0","181302","pvsufjvyuxu","mus","goose","22","male","yes","yes","2","1 hour","null","stimuli/sounds/buzz.wav","null","","","","","","",""
"","","","","","html-keyboard-response","220","2.0.0","181778","pvsufjvyuxu","mus","goose","22","male","yes","yes","2","1 hour","373","<div style=""font-size:30px;"">Press space to start the trial</div>"," ","","","","","","",""
"","","","","","html-keyboard-response","221","2.0.0","182031","pvsufjvyuxu","mus","goose","22","male","yes","yes","2","1 hour","null","<div style=""font-size:60px;"">+</div>","null","","","","","","",""
"","","","","","audio-keyboard-response","222","2.0.0","182636","pvsufjvyuxu","mus","goose","22","male","yes","yes","2","1 hour","null","stimuli/sounds/piano_sound_B.wav","null","","","","","","",""
"","","","","","html-keyboard-response","223","2.0.0","183640","pvsufjvyuxu","mus","goose","22","male","yes","yes","2","1 hour","null","","null","","","","","","",""
"","","","","","image-keyboard-response","224","2.0.0","184470","pvsufjvyuxu","mus","goose","22","male","yes","yes","2","1 hour","828","stimuli/pictures/piano_grand_2.jpg","0","1","","false","no","sound","stimuli/sounds/piano_sound_B.wav",""
"","","","","","audio-keyboard-response","225","2.0.0","185473","pvsufjvyuxu","mus","goose","22","male","yes","yes","2","1 hour","null","stimuli/sounds/buzz.wav","null","","","","","","",""
"","","","","","html-keyboard-response","226","2.0.0","186174","pvsufjvyuxu","mus","goose","22","male","yes","yes","2","1 hour","599","<div style=""font-size:30px;"">Press space to start the trial</div>"," ","","","","","","",""
"","","","","","html-keyboard-response","227","2.0.0","186427","pvsufjvyuxu","mus","goose","22","male","yes","yes","2","1 hour","null","<div style=""font-size:60px;"">+</div>","null","","","","","","",""
"","","","","","audio-keyboard-response","228","2.0.0","187030","pvsufjvyuxu","mus","goose","22","male","yes","yes","2","1 hour","null","stimuli/sounds/bird_sound_B.wav","null","","","","","","",""
"","","","","","html-keyboard-response","229","2.0.0","188033","pvsufjvyuxu","mus","goose","22","male","yes","yes","2","1 hour","null","","null","","","","","","",""
"","","","","","image-keyboard-response","230","2.0.0","188604","pvsufjvyuxu","mus","goose","22","male","yes","yes","2","1 hour","570","stimuli/pictures/bird_hawk_1.jpg","1","1","","true","no","sound","stimuli/sounds/bird_sound_B.wav",""
"","","","","","audio-keyboard-response","231","2.0.0","189606","pvsufjvyuxu","mus","goose","22","male","yes","yes","2","1 hour","null","stimuli/sounds/bleep.wav","null","","","","","","",""
"","","","","","html-keyboard-response","232","2.0.0","190082","pvsufjvyuxu","mus","goose","22","male","yes","yes","2","1 hour","374","<div style=""font-size:30px;"">Press space to start the trial</div>"," ","","","","","","",""
"","","","","","html-keyboard-response","233","2.0.0","190335","pvsufjvyuxu","mus","goose","22","male","yes","yes","2","1 hour","null","<div style=""font-size:60px;"">+</div>","null","","","","","","",""
"","","","","","audio-keyboard-response","234","2.0.0","190940","pvsufjvyuxu","mus","goose","22","male","yes","yes","2","1 hour","null","stimuli/sounds/piano_sound_A.wav","null","","","","","","",""
"","","","","","html-keyboard-response","235","2.0.0","191943","pvsufjvyuxu","mus","goose","22","male","yes","yes","2","1 hour","null","","null","","","","","","",""
"","","","","","image-keyboard-response","236","2.0.0","192588","pvsufjvyuxu","mus","goose","22","male","yes","yes","2","1 hour","644","stimuli/pictures/drum_bongo_2.jpg","0","0","","true","no","sound","stimuli/sounds/piano_sound_A.wav",""
"","","","","","audio-keyboard-response","237","2.0.0","193591","pvsufjvyuxu","mus","goose","22","male","yes","yes","2","1 hour","null","stimuli/sounds/bleep.wav","null","","","","","","",""
"","","","","","html-keyboard-response","238","2.0.0","193932","pvsufjvyuxu","mus","goose","22","male","yes","yes","2","1 hour","238","<div style=""font-size:30px;"">Press space to start the trial</div>"," ","","","","","","",""
"","","","","","html-keyboard-response","239","2.0.0","194183","pvsufjvyuxu","mus","goose","22","male","yes","yes","2","1 hour","null","<div style=""font-size:60px;"">+</div>","null","","","","","","",""
"","","","","","audio-keyboard-response","240","2.0.0","194785","pvsufjvyuxu","mus","goose","22","male","yes","yes","2","1 hour","null","stimuli/sounds/piano_label_B.wav","null","","","","","","",""
"","","","","","html-keyboard-response","241","2.0.0","195788","pvsufjvyuxu","mus","goose","22","male","yes","yes","2","1 hour","null","","null","","","","","","",""
"","","","","","image-keyboard-response","242","2.0.0","196549","pvsufjvyuxu","mus","goose","22","male","yes","yes","2","1 hour","760","stimuli/pictures/bird_song_2.jpg","0","0","","true","no","sound","stimuli/sounds/piano_label_B.wav",""
"","","","","","audio-keyboard-response","243","2.0.0","197553","pvsufjvyuxu","mus","goose","22","male","yes","yes","2","1 hour","null","stimuli/sounds/bleep.wav","null","","","","","","",""
"","","","","","html-keyboard-response","244","2.0.0","197996","pvsufjvyuxu","mus","goose","22","male","yes","yes","2","1 hour","341","<div style=""font-size:30px;"">Press space to start the trial</div>"," ","","","","","","",""
"","","","","","html-keyboard-response","245","2.0.0","198249","pvsufjvyuxu","mus","goose","22","male","yes","yes","2","1 hour","null","<div style=""font-size:60px;"">+</div>","null","","","","","","",""
"","","","","","audio-keyboard-response","246","2.0.0","198849","pvsufjvyuxu","mus","goose","22","male","yes","yes","2","1 hour","null","stimuli/sounds/piano_label_B.wav","null","","","","","","",""
"","","","","","html-keyboard-response","247","2.0.0","199852","pvsufjvyuxu","mus","goose","22","male","yes","yes","2","1 hour","null","","null","","","","","","",""
"","","","","","image-keyboard-response","248","2.0.0","200312","pvsufjvyuxu","mus","goose","22","male","yes","yes","2","1 hour","459","stimuli/pictures/piano_electric_2.jpg","1","1","","true","yes","sound","stimuli/sounds/piano_label_B.wav",""
"","","","","","audio-keyboard-response","249","2.0.0","201315","pvsufjvyuxu","mus","goose","22","male","yes","yes","2","1 hour","null","stimuli/sounds/bleep.wav","null","","","","","","",""
"","","","","","html-keyboard-response","250","2.0.0","201950","pvsufjvyuxu","mus","goose","22","male","yes","yes","2","1 hour","533","<div style=""font-size:30px;"">Press space to start the trial</div>"," ","","","","","","",""
"","","","","","html-keyboard-response","251","2.0.0","202203","pvsufjvyuxu","mus","goose","22","male","yes","yes","2","1 hour","null","<div style=""font-size:60px;"">+</div>","null","","","","","","",""
"","","","","","audio-keyboard-response","252","2.0.0","202833","pvsufjvyuxu","mus","goose","22","male","yes","yes","2","1 hour","null","stimuli/sounds/piano_label_A.wav","null","","","","","","",""
"","","","","","html-keyboard-response","253","2.0.0","203836","pvsufjvyuxu","mus","goose","22","male","yes","yes","2","1 hour","null","","null","","","","","","",""
"","","","","","image-keyboard-response","254","2.0.0","204303","pvsufjvyuxu","mus","goose","22","male","yes","yes","2","1 hour","466","stimuli/pictures/piano_grand_2.jpg","1","1","","true","yes","sound","stimuli/sounds/piano_label_A.wav",""
"","","","","","audio-keyboard-response","255","2.0.0","205306","pvsufjvyuxu","mus","goose","22","male","yes","yes","2","1 hour","null","stimuli/sounds/bleep.wav","null","","","","","","",""
"","","","","","html-keyboard-response","256","2.0.0","205788","pvsufjvyuxu","mus","goose","22","male","yes","yes","2","1 hour","379","<div style=""font-size:30px;"">Press space to start the trial</div>"," ","","","","","","",""
"","","","","","html-keyboard-response","257","2.0.0","206041","pvsufjvyuxu","mus","goose","22","male","yes","yes","2","1 hour","null","<div style=""font-size:60px;"">+</div>","null","","","","","","",""
"","","","","","audio-keyboard-response","258","2.0.0","206642","pvsufjvyuxu","mus","goose","22","male","yes","yes","2","1 hour","null","stimuli/sounds/phone_label_B.wav","null","","","","","","",""
"","","","","","html-keyboard-response","259","2.0.0","207643","pvsufjvyuxu","mus","goose","22","male","yes","yes","2","1 hour","null","","null","","","","","","",""
"","","","","","image-keyboard-response","260","2.0.0","208137","pvsufjvyuxu","mus","goose","22","male","yes","yes","2","1 hour","492","stimuli/pictures/phone_cell_2.jpg","1","1","","true","yes","sound","stimuli/sounds/phone_label_B.wav",""
"","","","","","audio-keyboard-response","261","2.0.0","209140","pvsufjvyuxu","mus","goose","22","male","yes","yes","2","1 hour","null","stimuli/sounds/bleep.wav","null","","","","","","",""
"","","","","","html-keyboard-response","262","2.0.0","209598","pvsufjvyuxu","mus","goose","22","male","yes","yes","2","1 hour","356","<div style=""font-size:30px;"">Press space to start the trial</div>"," ","","","","","","",""
"","","","","","html-keyboard-response","263","2.0.0","209850","pvsufjvyuxu","mus","goose","22","male","yes","yes","2","1 hour","null","<div style=""font-size:60px;"">+</div>","null","","","","","","",""
"","","","","","audio-keyboard-response","264","2.0.0","210476","pvsufjvyuxu","mus","goose","22","male","yes","yes","2","1 hour","null","stimuli/sounds/piano_label_A.wav","null","","","","","","",""
"","","","","","html-keyboard-response","265","2.0.0","211478","pvsufjvyuxu","mus","goose","22","male","yes","yes","2","1 hour","null","","null","","","","","","",""
"","","","","","image-keyboard-response","266","2.0.0","212091","pvsufjvyuxu","mus","goose","22","male","yes","yes","2","1 hour","612","stimuli/pictures/piano_electric_1.jpg","1","1","","true","yes","sound","stimuli/sounds/piano_label_A.wav",""
"","","","","","audio-keyboard-response","267","2.0.0","213093","pvsufjvyuxu","mus","goose","22","male","yes","yes","2","1 hour","null","stimuli/sounds/bleep.wav","null","","","","","","",""
"","","","","","html-keyboard-response","268","2.0.0","216051","pvsufjvyuxu","mus","goose","22","male","yes","yes","2","1 hour","2857","<p>You have completed a block. Press R when you are ready to continue</p>","r","","","","","","",""
"","","","","","html-keyboard-response","269","2.0.0","217182","pvsufjvyuxu","mus","goose","22","male","yes","yes","2","1 hour","1130","<div style=""font-size:30px;"">Press space to start the trial</div>"," ","","","","","","",""
"","","","","","html-keyboard-response","270","2.0.0","217434","pvsufjvyuxu","mus","goose","22","male","yes","yes","2","1 hour","null","<div style=""font-size:60px;"">+</div>","null","","","","","","",""
"","","","","","audio-keyboard-response","271","2.0.0","218033","pvsufjvyuxu","mus","goose","22","male","yes","yes","2","1 hour","null","stimuli/sounds/phone_label_B.wav","null","","","","","","",""
"","","","","","html-keyboard-response","272","2.0.0","219036","pvsufjvyuxu","mus","goose","22","male","yes","yes","2","1 hour","null","","null","","","","","","",""
"","","","","","image-keyboard-response","273","2.0.0","219599","pvsufjvyuxu","mus","goose","22","male","yes","yes","2","1 hour","561","stimuli/pictures/phone_rotary_2.jpg","1","1","","true","yes","sound","stimuli/sounds/phone_label_B.wav",""
"","","","","","audio-keyboard-response","274","2.0.0","220601","pvsufjvyuxu","mus","goose","22","male","yes","yes","2","1 hour","null","stimuli/sounds/bleep.wav","null","","","","","","",""
"","","","","","html-keyboard-response","275","2.0.0","221853","pvsufjvyuxu","mus","goose","22","male","yes","yes","2","1 hour","1149","<div style=""font-size:30px;"">Press space to start the trial</div>"," ","","","","","","",""
"","","","","","html-keyboard-response","276","2.0.0","222106","pvsufjvyuxu","mus","goose","22","male","yes","yes","2","1 hour","null","<div style=""font-size:60px;"">+</div>","null","","","","","","",""
"","","","","","audio-keyboard-response","277","2.0.0","222705","pvsufjvyuxu","mus","goose","22","male","yes","yes","2","1 hour","null","stimuli/sounds/flute_label_A.wav","null","","","","","","",""
"","","","","","html-keyboard-response","278","2.0.0","223708","pvsufjvyuxu","mus","goose","22","male","yes","yes","2","1 hour","null","","null","","","","","","",""
"","","","","","image-keyboard-response","279","2.0.0","224139","pvsufjvyuxu","mus","goose","22","male","yes","yes","2","1 hour","429","stimuli/pictures/flute_metal_2.jpg","1","1","","true","yes","sound","stimuli/sounds/flute_label_A.wav",""
"","","","","","audio-keyboard-response","280","2.0.0","225141","pvsufjvyuxu","mus","goose","22","male","yes","yes","2","1 hour","null","stimuli/sounds/bleep.wav","null","","","","","","",""
"","","","","","html-keyboard-response","281","2.0.0","225710","pvsufjvyuxu","mus","goose","22","male","yes","yes","2","1 hour","465","<div style=""font-size:30px;"">Press space to start the trial</div>"," ","","","","","","",""
"","","","","","html-keyboard-response","282","2.0.0","225962","pvsufjvyuxu","mus","goose","22","male","yes","yes","2","1 hour","null","<div style=""font-size:60px;"">+</div>","null","","","","","","",""
"","","","","","audio-keyboard-response","283","2.0.0","226561","pvsufjvyuxu","mus","goose","22","male","yes","yes","2","1 hour","null","stimuli/sounds/bird_label_B.wav","null","","","","","","",""
"","","","","","html-keyboard-response","284","2.0.0","227564","pvsufjvyuxu","mus","goose","22","male","yes","yes","2","1 hour","null","","null","","","","","","",""
"","","","","","image-keyboard-response","285","2.0.0","228090","pvsufjvyuxu","mus","goose","22","male","yes","yes","2","1 hour","525","stimuli/pictures/bird_hawk_1.jpg","1","1","","true","yes","sound","stimuli/sounds/bird_label_B.wav",""
"","","","","","audio-keyboard-response","286","2.0.0","229093","pvsufjvyuxu","mus","goose","22","male","yes","yes","2","1 hour","null","stimuli/sounds/bleep.wav","null","","","","","","",""
"","","","","","html-keyboard-response","287","2.0.0","229561","pvsufjvyuxu","mus","goose","22","male","yes","yes","2","1 hour","366","<div style=""font-size:30px;"">Press space to start the trial</div>"," ","","","","","","",""
"","","","","","html-keyboard-response","288","2.0.0","229813","pvsufjvyuxu","mus","goose","22","male","yes","yes","2","1 hour","null","<div style=""font-size:60px;"">+</div>","null","","","","","","",""
"","","","","","audio-keyboard-response","289","2.0.0","230412","pvsufjvyuxu","mus","goose","22","male","yes","yes","2","1 hour","null","stimuli/sounds/bird_label_A.wav","null","","","","","","",""
"","","","","","html-keyboard-response","290","2.0.0","231414","pvsufjvyuxu","mus","goose","22","male","yes","yes","2","1 hour","null","","null","","","","","","",""
"","","","","","image-keyboard-response","291","2.0.0","232028","pvsufjvyuxu","mus","goose","22","male","yes","yes","2","1 hour","613","stimuli/pictures/flute_wooden_2.jpg","0","0","","true","no","sound","stimuli/sounds/bird_label_A.wav",""
"","","","","","audio-keyboard-response","292","2.0.0","233035","pvsufjvyuxu","mus","goose","22","male","yes","yes","2","1 hour","null","stimuli/sounds/bleep.wav","null","","","","","","",""
"","","","","","html-keyboard-response","293","2.0.0","233731","pvsufjvyuxu","mus","goose","22","male","yes","yes","2","1 hour","595","<div style=""font-size:30px;"">Press space to start the trial</div>"," ","","","","","","",""
"","","","","","html-keyboard-response","294","2.0.0","233983","pvsufjvyuxu","mus","goose","22","male","yes","yes","2","1 hour","null","<div style=""font-size:60px;"">+</div>","null","","","","","","",""
"","","","","","audio-keyboard-response","295","2.0.0","234582","pvsufjvyuxu","mus","goose","22","male","yes","yes","2","1 hour","null","stimuli/sounds/drum_sound_B.wav","null","","","","","","",""
"","","","","","html-keyboard-response","296","2.0.0","235585","pvsufjvyuxu","mus","goose","22","male","yes","yes","2","1 hour","null","","null","","","","","","",""
"","","","","","image-keyboard-response","297","2.0.0","236081","pvsufjvyuxu","mus","goose","22","male","yes","yes","2","1 hour","494","stimuli/pictures/drum_kit_2.jpg","1","1","","true","no","sound","stimuli/sounds/drum_sound_B.wav",""
"","","","","","audio-keyboard-response","298","2.0.0","237084","pvsufjvyuxu","mus","goose","22","male","yes","yes","2","1 hour","null","stimuli/sounds/bleep.wav","null","","","","","","",""
"","","","","","html-keyboard-response","299","2.0.0","237620","pvsufjvyuxu","mus","goose","22","male","yes","yes","2","1 hour","434","<div style=""font-size:30px;"">Press space to start the trial</div>"," ","","","","","","",""
"","","","","","html-keyboard-response","300","2.0.0","237872","pvsufjvyuxu","mus","goose","22","male","yes","yes","2","1 hour","null","<div style=""font-size:60px;"">+</div>","null","","","","","","",""
"","","","","","audio-keyboard-response","301","2.0.0","238476","pvsufjvyuxu","mus","goose","22","male","yes","yes","2","1 hour","null","stimuli/sounds/drum_label_B.wav","null","","","","","","",""
"","","","","","html-keyboard-response","302","2.0.0","239479","pvsufjvyuxu","mus","goose","22","male","yes","yes","2","1 hour","null","","null","","","","","","",""
"","","","","","image-keyboard-response","303","2.0.0","240136","pvsufjvyuxu","mus","goose","22","male","yes","yes","2","1 hour","654","stimuli/pictures/piano_grand_2.jpg","0","0","","true","no","sound","stimuli/sounds/drum_label_B.wav",""
"","","","","","audio-keyboard-response","304","2.0.0","241139","pvsufjvyuxu","mus","goose","22","male","yes","yes","2","1 hour","null","stimuli/sounds/bleep.wav","null","","","","","","",""
"","","","","","html-keyboard-response","305","2.0.0","241599","pvsufjvyuxu","mus","goose","22","male","yes","yes","2","1 hour","358","<div style=""font-size:30px;"">Press space to start the trial</div>"," ","","","","","","",""
"","","","","","html-keyboard-response","306","2.0.0","241852","pvsufjvyuxu","mus","goose","22","male","yes","yes","2","1 hour","null","<div style=""font-size:60px;"">+</div>","null","","","","","","",""
"","","","","","audio-keyboard-response","307","2.0.0","242455","pvsufjvyuxu","mus","goose","22","male","yes","yes","2","1 hour","null","stimuli/sounds/bird_label_A.wav","null","","","","","","",""
"","","","","","html-keyboard-response","308","2.0.0","243458","pvsufjvyuxu","mus","goose","22","male","yes","yes","2","1 hour","null","","null","","","","","","",""
"","","","","","image-keyboard-response","309","2.0.0","244242","pvsufjvyuxu","mus","goose","22","male","yes","yes","2","1 hour","782","stimuli/pictures/flute_wooden_1.jpg","0","0","","true","no","sound","stimuli/sounds/bird_label_A.wav",""
"","","","","","audio-keyboard-response","310","2.0.0","245244","pvsufjvyuxu","mus","goose","22","male","yes","yes","2","1 hour","null","stimuli/sounds/bleep.wav","null","","","","","","",""
"","","","","","html-keyboard-response","311","2.0.0","245702","pvsufjvyuxu","mus","goose","22","male","yes","yes","2","1 hour","356","<div style=""font-size:30px;"">Press space to start the trial</div>"," ","","","","","","",""
"","","","","","html-keyboard-response","312","2.0.0","245955","pvsufjvyuxu","mus","goose","22","male","yes","yes","2","1 hour","null","<div style=""font-size:60px;"">+</div>","null","","","","","","",""
"","","","","","audio-keyboard-response","313","2.0.0","246556","pvsufjvyuxu","mus","goose","22","male","yes","yes","2","1 hour","null","stimuli/sounds/drum_label_B.wav","null","","","","","","",""
"","","","","","html-keyboard-response","314","2.0.0","247559","pvsufjvyuxu","mus","goose","22","male","yes","yes","2","1 hour","null","","null","","","","","","",""
"","","","","","image-keyboard-response","315","2.0.0","248032","pvsufjvyuxu","mus","goose","22","male","yes","yes","2","1 hour","472","stimuli/pictures/piano_electric_2.jpg","0","0","","true","no","sound","stimuli/sounds/drum_label_B.wav",""
"","","","","","audio-keyboard-response","316","2.0.0","249034","pvsufjvyuxu","mus","goose","22","male","yes","yes","2","1 hour","null","stimuli/sounds/bleep.wav","null","","","","","","",""
"","","","","","html-keyboard-response","317","2.0.0","249590","pvsufjvyuxu","mus","goose","22","male","yes","yes","2","1 hour","454","<div style=""font-size:30px;"">Press space to start the trial</div>"," ","","","","","","",""
"","","","","","html-keyboard-response","318","2.0.0","249842","pvsufjvyuxu","mus","goose","22","male","yes","yes","2","1 hour","null","<div style=""font-size:60px;"">+</div>","null","","","","","","",""
"","","","","","audio-keyboard-response","319","2.0.0","250444","pvsufjvyuxu","mus","goose","22","male","yes","yes","2","1 hour","null","stimuli/sounds/bird_label_B.wav","null","","","","","","",""
"","","","","","html-keyboard-response","320","2.0.0","251446","pvsufjvyuxu","mus","goose","22","male","yes","yes","2","1 hour","null","","null","","","","","","",""
"","","","","","image-keyboard-response","321","2.0.0","251948","pvsufjvyuxu","mus","goose","22","male","yes","yes","2","1 hour","500","stimuli/pictures/bird_song_2.jpg","1","1","","true","yes","sound","stimuli/sounds/bird_label_B.wav",""
"","","","","","audio-keyboard-response","322","2.0.0","252950","pvsufjvyuxu","mus","goose","22","male","yes","yes","2","1 hour","null","stimuli/sounds/bleep.wav","null","","","","","","",""
"","","","","","html-keyboard-response","323","2.0.0","253479","pvsufjvyuxu","mus","goose","22","male","yes","yes","2","1 hour","426","<div style=""font-size:30px;"">Press space to start the trial</div>"," ","","","","","","",""
"","","","","","html-keyboard-response","324","2.0.0","253732","pvsufjvyuxu","mus","goose","22","male","yes","yes","2","1 hour","null","<div style=""font-size:60px;"">+</div>","null","","","","","","",""
"","","","","","audio-keyboard-response","325","2.0.0","254332","pvsufjvyuxu","mus","goose","22","male","yes","yes","2","1 hour","null","stimuli/sounds/flute_label_A.wav","null","","","","","","",""
"","","","","","html-keyboard-response","326","2.0.0","255334","pvsufjvyuxu","mus","goose","22","male","yes","yes","2","1 hour","null","","null","","","","","","",""
"","","","","","image-keyboard-response","327","2.0.0","255862","pvsufjvyuxu","mus","goose","22","male","yes","yes","2","1 hour","527","stimuli/pictures/piano_grand_1.jpg","0","0","","true","no","sound","stimuli/sounds/flute_label_A.wav",""
"","","","","","audio-keyboard-response","328","2.0.0","256865","pvsufjvyuxu","mus","goose","22","male","yes","yes","2","1 hour","null","stimuli/sounds/bleep.wav","null","","","","","","",""
"","","","","","html-keyboard-response","329","2.0.0","257319","pvsufjvyuxu","mus","goose","22","male","yes","yes","2","1 hour","352","<div style=""font-size:30px;"">Press space to start the trial</div>"," ","","","","","","",""
"","","","","","html-keyboard-response","330","2.0.0","257571","pvsufjvyuxu","mus","goose","22","male","yes","yes","2","1 hour","null","<div style=""font-size:60px;"">+</div>","null","","","","","","",""
"","","","","","audio-keyboard-response","331","2.0.0","258172","pvsufjvyuxu","mus","goose","22","male","yes","yes","2","1 hour","null","stimuli/sounds/phone_sound_A.wav","null","","","","","","",""
"","","","","","html-keyboard-response","332","2.0.0","259174","pvsufjvyuxu","mus","goose","22","male","yes","yes","2","1 hour","null","","null","","","","","","",""
"","","","","","image-keyboard-response","333","2.0.0","259936","pvsufjvyuxu","mus","goose","22","male","yes","yes","2","1 hour","760","stimuli/pictures/bird_song_2.jpg","0","0","","true","no","sound","stimuli/sounds/phone_sound_A.wav",""
"","","","","","audio-keyboard-response","334","2.0.0","260939","pvsufjvyuxu","mus","goose","22","male","yes","yes","2","1 hour","null","stimuli/sounds/bleep.wav","null","","","","","","",""
"","","","","","html-keyboard-response","335","2.0.0","261633","pvsufjvyuxu","mus","goose","22","male","yes","yes","2","1 hour","592","<div style=""font-size:30px;"">Press space to start the trial</div>"," ","","","","","","",""
"","","","","","html-keyboard-response","336","2.0.0","261886","pvsufjvyuxu","mus","goose","22","male","yes","yes","2","1 hour","null","<div style=""font-size:60px;"">+</div>","null","","","","","","",""
"","","","","","audio-keyboard-response","337","2.0.0","262486","pvsufjvyuxu","mus","goose","22","male","yes","yes","2","1 hour","null","stimuli/sounds/drum_sound_A.wav","null","","","","","","",""
"","","","","","html-keyboard-response","338","2.0.0","263488","pvsufjvyuxu","mus","goose","22","male","yes","yes","2","1 hour","null","","null","","","","","","",""
"","","","","","image-keyboard-response","339","2.0.0","264041","pvsufjvyuxu","mus","goose","22","male","yes","yes","2","1 hour","551","stimuli/pictures/drum_kit_2.jpg","1","1","","true","yes","sound","stimuli/sounds/drum_sound_A.wav",""
"","","","","","audio-keyboard-response","340","2.0.0","265044","pvsufjvyuxu","mus","goose","22","male","yes","yes","2","1 hour","null","stimuli/sounds/bleep.wav","null","","","","","","",""
"","","","","","html-keyboard-response","341","2.0.0","265680","pvsufjvyuxu","mus","goose","22","male","yes","yes","2","1 hour","534","<div style=""font-size:30px;"">Press space to start the trial</div>"," ","","","","","","",""
"","","","","","html-keyboard-response","342","2.0.0","265933","pvsufjvyuxu","mus","goose","22","male","yes","yes","2","1 hour","null","<div style=""font-size:60px;"">+</div>","null","","","","","","",""
"","","","","","audio-keyboard-response","343","2.0.0","266535","pvsufjvyuxu","mus","goose","22","male","yes","yes","2","1 hour","null","stimuli/sounds/piano_label_B.wav","null","","","","","","",""
"","","","","","html-keyboard-response","344","2.0.0","267537","pvsufjvyuxu","mus","goose","22","male","yes","yes","2","1 hour","null","","null","","","","","","",""
"","","","","","image-keyboard-response","345","2.0.0","268157","pvsufjvyuxu","mus","goose","22","male","yes","yes","2","1 hour","620","stimuli/pictures/piano_electric_1.jpg","1","1","","true","yes","sound","stimuli/sounds/piano_label_B.wav",""
"","","","","","audio-keyboard-response","346","2.0.0","269161","pvsufjvyuxu","mus","goose","22","male","yes","yes","2","1 hour","null","stimuli/sounds/bleep.wav","null","","","","","","",""
"","","","","","html-keyboard-response","347","2.0.0","269964","pvsufjvyuxu","mus","goose","22","male","yes","yes","2","1 hour","701","<div style=""font-size:30px;"">Press space to start the trial</div>"," ","","","","","","",""
"","","","","","html-keyboard-response","348","2.0.0","270217","pvsufjvyuxu","mus","goose","22","male","yes","yes","2","1 hour","null","<div style=""font-size:60px;"">+</div>","null","","","","","","",""
"","","","","","audio-keyboard-response","349","2.0.0","270817","pvsufjvyuxu","mus","goose","22","male","yes","yes","2","1 hour","null","stimuli/sounds/bird_sound_A.wav","null","","","","","","",""
"","","","","","html-keyboard-response","350","2.0.0","271820","pvsufjvyuxu","mus","goose","22","male","yes","yes","2","1 hour","null","","null","","","","","","",""
"","","","","","image-keyboard-response","351","2.0.0","272400","pvsufjvyuxu","mus","goose","22","male","yes","yes","2","1 hour","578","stimuli/pictures/piano_electric_1.jpg","0","0","","true","no","sound","stimuli/sounds/bird_sound_A.wav",""
"","","","","","audio-keyboard-response","352","2.0.0","273403","pvsufjvyuxu","mus","goose","22","male","yes","yes","2","1 hour","null","stimuli/sounds/bleep.wav","null","","","","","","",""
"","","","","","html-keyboard-response","353","2.0.0","274076","pvsufjvyuxu","mus","goose","22","male","yes","yes","2","1 hour","570","<div style=""font-size:30px;"">Press space to start the trial</div>"," ","","","","","","",""
"","","","","","html-keyboard-response","354","2.0.0","274329","pvsufjvyuxu","mus","goose","22","male","yes","yes","2","1 hour","null","<div style=""font-size:60px;"">+</div>","null","","","","","","",""
"","","","","","audio-keyboard-response","355","2.0.0","274929","pvsufjvyuxu","mus","goose","22","male","yes","yes","2","1 hour","null","stimuli/sounds/drum_sound_B.wav","null","","","","","","",""
"","","","","","html-keyboard-response","356","2.0.0","275931","pvsufjvyuxu","mus","goose","22","male","yes","yes","2","1 hour","null","","null","","","","","","",""
"","","","","","image-keyboard-response","357","2.0.0","276460","pvsufjvyuxu","mus","goose","22","male","yes","yes","2","1 hour","527","stimuli/pictures/drum_kit_1.jpg","1","1","","true","no","sound","stimuli/sounds/drum_sound_B.wav",""
"","","","","","audio-keyboard-response","358","2.0.0","277464","pvsufjvyuxu","mus","goose","22","male","yes","yes","2","1 hour","null","stimuli/sounds/bleep.wav","null","","","","","","",""
"","","","","","html-keyboard-response","359","2.0.0","277936","pvsufjvyuxu","mus","goose","22","male","yes","yes","2","1 hour","369","<div style=""font-size:30px;"">Press space to start the trial</div>"," ","","","","","","",""
"","","","","","html-keyboard-response","360","2.0.0","278188","pvsufjvyuxu","mus","goose","22","male","yes","yes","2","1 hour","null","<div style=""font-size:60px;"">+</div>","null","","","","","","",""
"","","","","","audio-keyboard-response","361","2.0.0","278791","pvsufjvyuxu","mus","goose","22","male","yes","yes","2","1 hour","null","stimuli/sounds/phone_label_A.wav","null","","","","","","",""
"","","","","","html-keyboard-response","362","2.0.0","279794","pvsufjvyuxu","mus","goose","22","male","yes","yes","2","1 hour","null","","null","","","","","","",""
"","","","","","image-keyboard-response","363","2.0.0","280332","pvsufjvyuxu","mus","goose","22","male","yes","yes","2","1 hour","537","stimuli/pictures/phone_rotary_1.jpg","1","1","","true","yes","sound","stimuli/sounds/phone_label_A.wav",""
"","","","","","audio-keyboard-response","364","2.0.0","281335","pvsufjvyuxu","mus","goose","22","male","yes","yes","2","1 hour","null","stimuli/sounds/bleep.wav","null","","","","","","",""
"","","","","","html-keyboard-response","365","2.0.0","281791","pvsufjvyuxu","mus","goose","22","male","yes","yes","2","1 hour","354","<div style=""font-size:30px;"">Press space to start the trial</div>"," ","","","","","","",""
"","","","","","html-keyboard-response","366","2.0.0","282044","pvsufjvyuxu","mus","goose","22","male","yes","yes","2","1 hour","null","<div style=""font-size:60px;"">+</div>","null","","","","","","",""
"","","","","","audio-keyboard-response","367","2.0.0","282673","pvsufjvyuxu","mus","goose","22","male","yes","yes","2","1 hour","null","stimuli/sounds/piano_label_A.wav","null","","","","","","",""
"","","","","","html-keyboard-response","368","2.0.0","283676","pvsufjvyuxu","mus","goose","22","male","yes","yes","2","1 hour","null","","null","","","","","","",""
"","","","","","image-keyboard-response","369","2.0.0","284198","pvsufjvyuxu","mus","goose","22","male","yes","yes","2","1 hour","520","stimuli/pictures/piano_electric_2.jpg","1","1","","true","yes","sound","stimuli/sounds/piano_label_A.wav",""
"","","","","","audio-keyboard-response","370","2.0.0","285200","pvsufjvyuxu","mus","goose","22","male","yes","yes","2","1 hour","null","stimuli/sounds/bleep.wav","null","","","","","","",""
"","","","","","html-keyboard-response","371","2.0.0","285758","pvsufjvyuxu","mus","goose","22","male","yes","yes","2","1 hour","454","<div style=""font-size:30px;"">Press space to start the trial</div>"," ","","","","","","",""
"","","","","","html-keyboard-response","372","2.0.0","286010","pvsufjvyuxu","mus","goose","22","male","yes","yes","2","1 hour","null","<div style=""font-size:60px;"">+</div>","null","","","","","","",""
"","","","","","audio-keyboard-response","373","2.0.0","286610","pvsufjvyuxu","mus","goose","22","male","yes","yes","2","1 hour","null","stimuli/sounds/flute_label_A.wav","null","","","","","","",""
"","","","","","html-keyboard-response","374","2.0.0","287612","pvsufjvyuxu","mus","goose","22","male","yes","yes","2","1 hour","null","","null","","","","","","",""
"","","","","","image-keyboard-response","375","2.0.0","288195","pvsufjvyuxu","mus","goose","22","male","yes","yes","2","1 hour","581","stimuli/pictures/flute_wooden_1.jpg","1","1","","true","yes","sound","stimuli/sounds/flute_label_A.wav",""
"","","","","","audio-keyboard-response","376","2.0.0","289198","pvsufjvyuxu","mus","goose","22","male","yes","yes","2","1 hour","null","stimuli/sounds/bleep.wav","null","","","","","","",""
"","","","","","html-keyboard-response","377","2.0.0","289758","pvsufjvyuxu","mus","goose","22","male","yes","yes","2","1 hour","457","<div style=""font-size:30px;"">Press space to start the trial</div>"," ","","","","","","",""
"","","","","","html-keyboard-response","378","2.0.0","290010","pvsufjvyuxu","mus","goose","22","male","yes","yes","2","1 hour","null","<div style=""font-size:60px;"">+</div>","null","","","","","","",""
"","","","","","audio-keyboard-response","379","2.0.0","290614","pvsufjvyuxu","mus","goose","22","male","yes","yes","2","1 hour","null","stimuli/sounds/piano_sound_B.wav","null","","","","","","",""
"","","","","","html-keyboard-response","380","2.0.0","291617","pvsufjvyuxu","mus","goose","22","male","yes","yes","2","1 hour","null","","null","","","","","","",""
"","","","","","image-keyboard-response","381","2.0.0","292193","pvsufjvyuxu","mus","goose","22","male","yes","yes","2","1 hour","575","stimuli/pictures/flute_metal_2.jpg","0","0","","true","no","sound","stimuli/sounds/piano_sound_B.wav",""
"","","","","","audio-keyboard-response","382","2.0.0","293196","pvsufjvyuxu","mus","goose","22","male","yes","yes","2","1 hour","null","stimuli/sounds/bleep.wav","null","","","","","","",""
"","","","","","html-keyboard-response","383","2.0.0","293662","pvsufjvyuxu","mus","goose","22","male","yes","yes","2","1 hour","364","<div style=""font-size:30px;"">Press space to start the trial</div>"," ","","","","","","",""
"","","","","","html-keyboard-response","384","2.0.0","293914","pvsufjvyuxu","mus","goose","22","male","yes","yes","2","1 hour","null","<div style=""font-size:60px;"">+</div>","null","","","","","","",""
"","","","","","audio-keyboard-response","385","2.0.0","294513","pvsufjvyuxu","mus","goose","22","male","yes","yes","2","1 hour","null","stimuli/sounds/flute_sound_A.wav","null","","","","","","",""
"","","","","","html-keyboard-response","386","2.0.0","295516","pvsufjvyuxu","mus","goose","22","male","yes","yes","2","1 hour","null","","null","","","","","","",""
"","","","","","image-keyboard-response","387","2.0.0","296061","pvsufjvyuxu","mus","goose","22","male","yes","yes","2","1 hour","543","stimuli/pictures/phone_rotary_1.jpg","0","0","","true","no","sound","stimuli/sounds/flute_sound_A.wav",""
"","","","","","audio-keyboard-response","388","2.0.0","297064","pvsufjvyuxu","mus","goose","22","male","yes","yes","2","1 hour","null","stimuli/sounds/bleep.wav","null","","","","","","",""
"","","","","","html-keyboard-response","389","2.0.0","299221","pvsufjvyuxu","mus","goose","22","male","yes","yes","2","1 hour","2054","<p>You have completed a block. Press R when you are ready to continue</p>","r","","","","","","",""
"","","","","","html-keyboard-response","390","2.0.0","299812","pvsufjvyuxu","mus","goose","22","male","yes","yes","2","1 hour","590","<div style=""font-size:30px;"">Press space to start the trial</div>"," ","","","","","","",""
"","","","","","html-keyboard-response","391","2.0.0","300064","pvsufjvyuxu","mus","goose","22","male","yes","yes","2","1 hour","null","<div style=""font-size:60px;"">+</div>","null","","","","","","",""
"","","","","","audio-keyboard-response","392","2.0.0","300673","pvsufjvyuxu","mus","goose","22","male","yes","yes","2","1 hour","null","stimuli/sounds/piano_sound_A.wav","null","","","","","","",""
"","","","","","html-keyboard-response","393","2.0.0","301676","pvsufjvyuxu","mus","goose","22","male","yes","yes","2","1 hour","null","","null","","","","","","",""
"","","","","","image-keyboard-response","394","2.0.0","302237","pvsufjvyuxu","mus","goose","22","male","yes","yes","2","1 hour","560","stimuli/pictures/drum_bongo_1.jpg","0","0","","true","no","sound","stimuli/sounds/piano_sound_A.wav",""
"","","","","","audio-keyboard-response","395","2.0.0","303239","pvsufjvyuxu","mus","goose","22","male","yes","yes","2","1 hour","null","stimuli/sounds/bleep.wav","null","","","","","","",""
"","","","","","html-keyboard-response","396","2.0.0","303778","pvsufjvyuxu","mus","goose","22","male","yes","yes","2","1 hour","436","<div style=""font-size:30px;"">Press space to start the trial</div>"," ","","","","","","",""
"","","","","","html-keyboard-response","397","2.0.0","304030","pvsufjvyuxu","mus","goose","22","male","yes","yes","2","1 hour","null","<div style=""font-size:60px;"">+</div>","null","","","","","","",""
"","","","","","audio-keyboard-response","398","2.0.0","304636","pvsufjvyuxu","mus","goose","22","male","yes","yes","2","1 hour","null","stimuli/sounds/piano_sound_A.wav","null","","","","","","",""
"","","","","","html-keyboard-response","399","2.0.0","305639","pvsufjvyuxu","mus","goose","22","male","yes","yes","2","1 hour","null","","null","","","","","","",""
"","","","","","image-keyboard-response","400","2.0.0","306262","pvsufjvyuxu","mus","goose","22","male","yes","yes","2","1 hour","622","stimuli/pictures/drum_kit_1.jpg","0","0","","true","no","sound","stimuli/sounds/piano_sound_A.wav",""
"","","","","","audio-keyboard-response","401","2.0.0","307265","pvsufjvyuxu","mus","goose","22","male","yes","yes","2","1 hour","null","stimuli/sounds/bleep.wav","null","","","","","","",""
"","","","","","html-keyboard-response","402","2.0.0","307774","pvsufjvyuxu","mus","goose","22","male","yes","yes","2","1 hour","406","<div style=""font-size:30px;"">Press space to start the trial</div>"," ","","","","","","",""
"","","","","","html-keyboard-response","403","2.0.0","308026","pvsufjvyuxu","mus","goose","22","male","yes","yes","2","1 hour","null","<div style=""font-size:60px;"">+</div>","null","","","","","","",""
"","","","","","audio-keyboard-response","404","2.0.0","308625","pvsufjvyuxu","mus","goose","22","male","yes","yes","2","1 hour","null","stimuli/sounds/drum_label_B.wav","null","","","","","","",""
"","","","","","html-keyboard-response","405","2.0.0","309627","pvsufjvyuxu","mus","goose","22","male","yes","yes","2","1 hour","null","","null","","","","","","",""
"","","","","","image-keyboard-response","406","2.0.0","310238","pvsufjvyuxu","mus","goose","22","male","yes","yes","2","1 hour","609","stimuli/pictures/piano_electric_1.jpg","0","0","","true","no","sound","stimuli/sounds/drum_label_B.wav",""
"","","","","","audio-keyboard-response","407","2.0.0","311241","pvsufjvyuxu","mus","goose","22","male","yes","yes","2","1 hour","null","stimuli/sounds/bleep.wav","null","","","","","","",""
"","","","","","html-keyboard-response","408","2.0.0","311848","pvsufjvyuxu","mus","goose","22","male","yes","yes","2","1 hour","505","<div style=""font-size:30px;"">Press space to start the trial</div>"," ","","","","","","",""
"","","","","","html-keyboard-response","409","2.0.0","312101","pvsufjvyuxu","mus","goose","22","male","yes","yes","2","1 hour","null","<div style=""font-size:60px;"">+</div>","null","","","","","","",""
"","","","","","audio-keyboard-response","410","2.0.0","312707","pvsufjvyuxu","mus","goose","22","male","yes","yes","2","1 hour","null","stimuli/sounds/flute_label_B.wav","null","","","","","","",""
"","","","","","html-keyboard-response","411","2.0.0","313710","pvsufjvyuxu","mus","goose","22","male","yes","yes","2","1 hour","null","","null","","","","","","",""
"","","","","","image-keyboard-response","412","2.0.0","314364","pvsufjvyuxu","mus","goose","22","male","yes","yes","2","1 hour","652","stimuli/pictures/drum_bongo_1.jpg","0","0","","true","no","sound","stimuli/sounds/flute_label_B.wav",""
"","","","","","audio-keyboard-response","413","2.0.0","315367","pvsufjvyuxu","mus","goose","22","male","yes","yes","2","1 hour","null","stimuli/sounds/bleep.wav","null","","","","","","",""
"","","","","","html-keyboard-response","414","2.0.0","315833","pvsufjvyuxu","mus","goose","22","male","yes","yes","2","1 hour","363","<div style=""font-size:30px;"">Press space to start the trial</div>"," ","","","","","","",""
"","","","","","html-keyboard-response","415","2.0.0","316085","pvsufjvyuxu","mus","goose","22","male","yes","yes","2","1 hour","null","<div style=""font-size:60px;"">+</div>","null","","","","","","",""
"","","","","","audio-keyboard-response","416","2.0.0","316691","pvsufjvyuxu","mus","goose","22","male","yes","yes","2","1 hour","null","stimuli/sounds/drum_label_A.wav","null","","","","","","",""
"","","","","","html-keyboard-response","417","2.0.0","317693","pvsufjvyuxu","mus","goose","22","male","yes","yes","2","1 hour","null","","null","","","","","","",""
"","","","","","image-keyboard-response","418","2.0.0","318182","pvsufjvyuxu","mus","goose","22","male","yes","yes","2","1 hour","487","stimuli/pictures/drum_kit_1.jpg","0","1","","false","yes","sound","stimuli/sounds/drum_label_A.wav",""
"","","","","","audio-keyboard-response","419","2.0.0","319185","pvsufjvyuxu","mus","goose","22","male","yes","yes","2","1 hour","null","stimuli/sounds/buzz.wav","null","","","","","","",""
"","","","","","html-keyboard-response","420","2.0.0","319734","pvsufjvyuxu","mus","goose","22","male","yes","yes","2","1 hour","447","<div style=""font-size:30px;"">Press space to start the trial</div>"," ","","","","","","",""
"","","","","","html-keyboard-response","421","2.0.0","319987","pvsufjvyuxu","mus","goose","22","male","yes","yes","2","1 hour","null","<div style=""font-size:60px;"">+</div>","null","","","","","","",""
"","","","","","audio-keyboard-response","422","2.0.0","320588","pvsufjvyuxu","mus","goose","22","male","yes","yes","2","1 hour","null","stimuli/sounds/bird_label_B.wav","null","","","","","","",""
"","","","","","html-keyboard-response","423","2.0.0","321591","pvsufjvyuxu","mus","goose","22","male","yes","yes","2","1 hour","null","","null","","","","","","",""
"","","","","","image-keyboard-response","424","2.0.0","323948","pvsufjvyuxu","mus","goose","22","male","yes","yes","2","1 hour","2356","stimuli/pictures/phone_cell_2.jpg","1","0","","false","no","sound","stimuli/sounds/bird_label_B.wav",""
"","","","","","audio-keyboard-response","425","2.0.0","324950","pvsufjvyuxu","mus","goose","22","male","yes","yes","2","1 hour","null","stimuli/sounds/buzz.wav","null","","","","","","",""
"","","","","","html-keyboard-response","426","2.0.0","325410","pvsufjvyuxu","mus","goose","22","male","yes","yes","2","1 hour","357","<div style=""font-size:30px;"">Press space to start the trial</div>"," ","","","","","","",""
"","","","","","html-keyboard-response","427","2.0.0","325662","pvsufjvyuxu","mus","goose","22","male","yes","yes","2","1 hour","null","<div style=""font-size:60px;"">+</div>","null","","","","","","",""
"","","","","","audio-keyboard-response","428","2.0.0","326263","pvsufjvyuxu","mus","goose","22","male","yes","yes","2","1 hour","null","stimuli/sounds/phone_sound_B.wav","null","","","","","","",""
"","","","","","html-keyboard-response","429","2.0.0","327264","pvsufjvyuxu","mus","goose","22","male","yes","yes","2","1 hour","null","","null","","","","","","",""
"","","","","","image-keyboard-response","430","2.0.0","328570","pvsufjvyuxu","mus","goose","22","male","yes","yes","2","1 hour","1304","stimuli/pictures/piano_electric_1.jpg","0","0","","true","no","sound","stimuli/sounds/phone_sound_B.wav",""
"","","","","","audio-keyboard-response","431","2.0.0","329572","pvsufjvyuxu","mus","goose","22","male","yes","yes","2","1 hour","null","stimuli/sounds/bleep.wav","null","","","","","","",""
"","","","","","html-keyboard-response","432","2.0.0","330237","pvsufjvyuxu","mus","goose","22","male","yes","yes","2","1 hour","561","<div style=""font-size:30px;"">Press space to start the trial</div>"," ","","","","","","",""
"","","","","","html-keyboard-response","433","2.0.0","330489","pvsufjvyuxu","mus","goose","22","male","yes","yes","2","1 hour","null","<div style=""font-size:60px;"">+</div>","null","","","","","","",""
"","","","","","audio-keyboard-response","434","2.0.0","331090","pvsufjvyuxu","mus","goose","22","male","yes","yes","2","1 hour","null","stimuli/sounds/bird_sound_A.wav","null","","","","","","",""
"","","","","","html-keyboard-response","435","2.0.0","332093","pvsufjvyuxu","mus","goose","22","male","yes","yes","2","1 hour","null","","null","","","","","","",""
"","","","","","image-keyboard-response","436","2.0.0","332758","pvsufjvyuxu","mus","goose","22","male","yes","yes","2","1 hour","663","stimuli/pictures/piano_electric_2.jpg","0","0","","true","no","sound","stimuli/sounds/bird_sound_A.wav",""
"","","","","","audio-keyboard-response","437","2.0.0","333760","pvsufjvyuxu","mus","goose","22","male","yes","yes","2","1 hour","null","stimuli/sounds/bleep.wav","null","","","","","","",""
"","","","","","html-keyboard-response","438","2.0.0","334257","pvsufjvyuxu","mus","goose","22","male","yes","yes","2","1 hour","395","<div style=""font-size:30px;"">Press space to start the trial</div>"," ","","","","","","",""
"","","","","","html-keyboard-response","439","2.0.0","334509","pvsufjvyuxu","mus","goose","22","male","yes","yes","2","1 hour","null","<div style=""font-size:60px;"">+</div>","null","","","","","","",""
"","","","","","audio-keyboard-response","440","2.0.0","335116","pvsufjvyuxu","mus","goose","22","male","yes","yes","2","1 hour","null","stimuli/sounds/piano_sound_B.wav","null","","","","","","",""
"","","","","","html-keyboard-response","441","2.0.0","336119","pvsufjvyuxu","mus","goose","22","male","yes","yes","2","1 hour","null","","null","","","","","","",""
"","","","","","image-keyboard-response","442","2.0.0","336933","pvsufjvyuxu","mus","goose","22","male","yes","yes","2","1 hour","811","stimuli/pictures/piano_electric_1.jpg","0","1","","false","yes","sound","stimuli/sounds/piano_sound_B.wav",""
"","","","","","audio-keyboard-response","443","2.0.0","337935","pvsufjvyuxu","mus","goose","22","male","yes","yes","2","1 hour","null","stimuli/sounds/buzz.wav","null","","","","","","",""
"","","","","","html-keyboard-response","444","2.0.0","338943","pvsufjvyuxu","mus","goose","22","male","yes","yes","2","1 hour","905","<div style=""font-size:30px;"">Press space to start the trial</div>"," ","","","","","","",""
"","","","","","html-keyboard-response","445","2.0.0","339195","pvsufjvyuxu","mus","goose","22","male","yes","yes","2","1 hour","null","<div style=""font-size:60px;"">+</div>","null","","","","","","",""
"","","","","","audio-keyboard-response","446","2.0.0","339799","pvsufjvyuxu","mus","goose","22","male","yes","yes","2","1 hour","null","stimuli/sounds/phone_sound_B.wav","null","","","","","","",""
"","","","","","html-keyboard-response","447","2.0.0","340800","pvsufjvyuxu","mus","goose","22","male","yes","yes","2","1 hour","null","","null","","","","","","",""
"","","","","","image-keyboard-response","448","2.0.0","341403","pvsufjvyuxu","mus","goose","22","male","yes","yes","2","1 hour","601","stimuli/pictures/piano_electric_2.jpg","0","0","","true","no","sound","stimuli/sounds/phone_sound_B.wav",""
"","","","","","audio-keyboard-response","449","2.0.0","342200","pvsufjvyuxu","mus","goose","22","male","yes","yes","2","1 hour","795","stimuli/sounds/bleep.wav"," ","","","","","","",""
"","","","","","html-keyboard-response","450","2.0.0","342862","pvsufjvyuxu","mus","goose","22","male","yes","yes","2","1 hour","558","<div style=""font-size:30px;"">Press space to start the trial</div>"," ","","","","","","",""
"","","","","","html-keyboard-response","451","2.0.0","343114","pvsufjvyuxu","mus","goose","22","male","yes","yes","2","1 hour","null","<div style=""font-size:60px;"">+</div>","null","","","","","","",""
"","","","","","audio-keyboard-response","452","2.0.0","343713","pvsufjvyuxu","mus","goose","22","male","yes","yes","2","1 hour","null","stimuli/sounds/phone_label_B.wav","null","","","","","","",""
"","","","","","html-keyboard-response","453","2.0.0","344717","pvsufjvyuxu","mus","goose","22","male","yes","yes","2","1 hour","null","","null","","","","","","",""
"","","","","","image-keyboard-response","454","2.0.0","345291","pvsufjvyuxu","mus","goose","22","male","yes","yes","2","1 hour","573","stimuli/pictures/flute_metal_1.jpg","0","0","","true","no","sound","stimuli/sounds/phone_label_B.wav",""
"","","","","","audio-keyboard-response","455","2.0.0","346293","pvsufjvyuxu","mus","goose","22","male","yes","yes","2","1 hour","null","stimuli/sounds/bleep.wav","null","","","","","","",""
"","","","","","html-keyboard-response","456","2.0.0","346764","pvsufjvyuxu","mus","goose","22","male","yes","yes","2","1 hour","368","<div style=""font-size:30px;"">Press space to start the trial</div>"," ","","","","","","",""
"","","","","","html-keyboard-response","457","2.0.0","347016","pvsufjvyuxu","mus","goose","22","male","yes","yes","2","1 hour","null","<div style=""font-size:60px;"">+</div>","null","","","","","","",""
"","","","","","audio-keyboard-response","458","2.0.0","347617","pvsufjvyuxu","mus","goose","22","male","yes","yes","2","1 hour","null","stimuli/sounds/phone_label_B.wav","null","","","","","","",""
"","","","","","html-keyboard-response","459","2.0.0","348620","pvsufjvyuxu","mus","goose","22","male","yes","yes","2","1 hour","null","","null","","","","","","",""
"","","","","","image-keyboard-response","460","2.0.0","349194","pvsufjvyuxu","mus","goose","22","male","yes","yes","2","1 hour","573","stimuli/pictures/flute_wooden_1.jpg","0","0","","true","no","sound","stimuli/sounds/phone_label_B.wav",""
"","","","","","audio-keyboard-response","461","2.0.0","350196","pvsufjvyuxu","mus","goose","22","male","yes","yes","2","1 hour","null","stimuli/sounds/bleep.wav","null","","","","","","",""
"","","","","","html-keyboard-response","462","2.0.0","350677","pvsufjvyuxu","mus","goose","22","male","yes","yes","2","1 hour","379","<div style=""font-size:30px;"">Press space to start the trial</div>"," ","","","","","","",""
"","","","","","html-keyboard-response","463","2.0.0","350930","pvsufjvyuxu","mus","goose","22","male","yes","yes","2","1 hour","null","<div style=""font-size:60px;"">+</div>","null","","","","","","",""
"","","","","","audio-keyboard-response","464","2.0.0","351532","pvsufjvyuxu","mus","goose","22","male","yes","yes","2","1 hour","null","stimuli/sounds/phone_label_B.wav","null","","","","","","",""
"","","","","","html-keyboard-response","465","2.0.0","352534","pvsufjvyuxu","mus","goose","22","male","yes","yes","2","1 hour","null","","null","","","","","","",""
"","","","","","image-keyboard-response","466","2.0.0","353149","pvsufjvyuxu","mus","goose","22","male","yes","yes","2","1 hour","614","stimuli/pictures/flute_metal_2.jpg","0","0","","true","no","sound","stimuli/sounds/phone_label_B.wav",""
"","","","","","audio-keyboard-response","467","2.0.0","354153","pvsufjvyuxu","mus","goose","22","male","yes","yes","2","1 hour","null","stimuli/sounds/bleep.wav","null","","","","","","",""
"","","","","","html-keyboard-response","468","2.0.0","354684","pvsufjvyuxu","mus","goose","22","male","yes","yes","2","1 hour","428","<div style=""font-size:30px;"">Press space to start the trial</div>"," ","","","","","","",""
"","","","","","html-keyboard-response","469","2.0.0","354937","pvsufjvyuxu","mus","goose","22","male","yes","yes","2","1 hour","null","<div style=""font-size:60px;"">+</div>","null","","","","","","",""
"","","","","","audio-keyboard-response","470","2.0.0","355537","pvsufjvyuxu","mus","goose","22","male","yes","yes","2","1 hour","null","stimuli/sounds/bird_sound_A.wav","null","","","","","","",""
"","","","","","html-keyboard-response","471","2.0.0","356540","pvsufjvyuxu","mus","goose","22","male","yes","yes","2","1 hour","null","","null","","","","","","",""
"","","","","","image-keyboard-response","472","2.0.0","357036","pvsufjvyuxu","mus","goose","22","male","yes","yes","2","1 hour","495","stimuli/pictures/bird_hawk_1.jpg","1","1","","true","yes","sound","stimuli/sounds/bird_sound_A.wav",""
"","","","","","audio-keyboard-response","473","2.0.0","358039","pvsufjvyuxu","mus","goose","22","male","yes","yes","2","1 hour","null","stimuli/sounds/bleep.wav","null","","","","","","",""
"","","","","","html-keyboard-response","474","2.0.0","358718","pvsufjvyuxu","mus","goose","22","male","yes","yes","2","1 hour","576","<div style=""font-size:30px;"">Press space to start the trial</div>"," ","","","","","","",""
"","","","","","html-keyboard-response","475","2.0.0","358970","pvsufjvyuxu","mus","goose","22","male","yes","yes","2","1 hour","null","<div style=""font-size:60px;"">+</div>","null","","","","","","",""
"","","","","","audio-keyboard-response","476","2.0.0","359575","pvsufjvyuxu","mus","goose","22","male","yes","yes","2","1 hour","null","stimuli/sounds/flute_sound_B.wav","null","","","","","","",""
"","","","","","html-keyboard-response","477","2.0.0","360578","pvsufjvyuxu","mus","goose","22","male","yes","yes","2","1 hour","null","","null","","","","","","",""
"","","","","","image-keyboard-response","478","2.0.0","361496","pvsufjvyuxu","mus","goose","22","male","yes","yes","2","1 hour","916","stimuli/pictures/bird_song_2.jpg","0","0","","true","no","sound","stimuli/sounds/flute_sound_B.wav",""
"","","","","","audio-keyboard-response","479","2.0.0","362498","pvsufjvyuxu","mus","goose","22","male","yes","yes","2","1 hour","null","stimuli/sounds/bleep.wav","null","","","","","","",""
"","","","","","html-keyboard-response","480","2.0.0","362939","pvsufjvyuxu","mus","goose","22","male","yes","yes","2","1 hour","338","<div style=""font-size:30px;"">Press space to start the trial</div>"," ","","","","","","",""
