"success","timeout","failed_images","failed_audio","failed_video","trial_type","trial_index","plugin_version","time_elapsed","random_id","condition","participant","age","gender_id","mus_exp","inst_exp","years_exp","mus_listening","rt","stimulus","response","correct_response","practice","correct","congruent","sound_type","audio","question_order"
"true","false","[]","[]","[]","preload","0","2.0.0","702","pvtd02ve3uz","mus","frog","22","female","yes","yes","1","2","","","","","","","","","",""
"","","","","","html-keyboard-response","1","2.0.0","8660","pvtd02ve3uz","mus","frog","22","female","yes","yes","1","2","7956","Welcome to the experiment! Press any key to begin."," ","","","","","","",""
"true","","","","","fullscreen","2","null","10735","pvtd02ve3uz","mus","frog","22","female","yes","yes","1","2","1070","","","","","","","","",""
"","","","","","survey-text","3","2.0.0","12722","pvtd02ve3uz","mus","frog","22","female","yes","yes","1","2","1982","","{""participant_id"":""frog""}","","","","","","",""
"","","","","","html-keyboard-response","4","2.0.0","37729","pvtd02ve3uz","mus","frog","22","female","yes","yes","1","2","25005","
    <p> Please use headphones for the duration of the study.</p>
    <p> Within each trial, you will hear a sound and then be presented with an image in the center of your screen.</p>
    <p>Press the <b>'1'</b> key if what you hear <u>matches</u> what you see.</p>
    <p>Press the <b>'0'</b> key if what you hear <u>does not match</u> what you see.</p>
    <p>Try to respond as quickly and accurately as you can.</p>
    <p> Press any key to begin.</p>
    "," ","","","","","","",""
"","","","","","html-keyboard-response","5","2.0.0","40185","pvtd02ve3uz","mus","frog","22","female","yes","yes","1","2","2455","
    <div style=""font-size:28px;"">
      <p>You will now complete 4 short practice trials.</p>
      <p>This is just to help you get familiar with the task.</p>
      <p>Press any key to begin.</p>
    </div>
  "," ","","","","","","",""
"","","","","","html-keyboard-response","6","2.0.0","40688","pvtd02ve3uz","mus","frog","22","female","yes","yes","1","2","null","<div style=""font-size:60px;"">+</div>","null","","","","","","",""
"","","","","","audio-keyboard-response","7","2.0.0","41613","pvtd02ve3uz","mus","frog","22","female","yes","yes","1","2","null","stimuli/sounds/guitar_label_A.wav","null","","","","","","",""
"","","","","","image-keyboard-response","8","2.0.0","43186","pvtd02ve3uz","mus","frog","22","female","yes","yes","1","2","1570","stimuli/pictures/guitar_acoustic_1.jpg","1","1","true","true","","","",""
"","","","","","audio-keyboard-response","9","2.0.0","43989","pvtd02ve3uz","mus","frog","22","female","yes","yes","1","2","null","stimuli/sounds/bleep.wav","null","","","","","","",""
"","","","","","html-keyboard-response","10","2.0.0","44692","pvtd02ve3uz","mus","frog","22","female","yes","yes","1","2","null","<p style='color:green; font-size:30px;'>Correct!</p>","null","","","","","","",""
"","","","","","html-keyboard-response","11","2.0.0","45194","pvtd02ve3uz","mus","frog","22","female","yes","yes","1","2","null","<div style=""font-size:60px;"">+</div>","null","","","","","","",""
"","","","","","audio-keyboard-response","12","2.0.0","45795","pvtd02ve3uz","mus","frog","22","female","yes","yes","1","2","null","stimuli/sounds/guitar_sound_B.wav","null","","","","","","",""
"","","","","","image-keyboard-response","13","2.0.0","47612","pvtd02ve3uz","mus","frog","22","female","yes","yes","1","2","1815","stimuli/pictures/guitar_acoustic_2.jpg","0","1","true","false","","","",""
"","","","","","audio-keyboard-response","14","2.0.0","48414","pvtd02ve3uz","mus","frog","22","female","yes","yes","1","2","null","stimuli/sounds/buzz.wav","null","","","","","","",""
"","","","","","html-keyboard-response","15","2.0.0","49116","pvtd02ve3uz","mus","frog","22","female","yes","yes","1","2","null","<p style='color:red; font-size:30px;'>Incorrect</p>","null","","","","","","",""
"","","","","","html-keyboard-response","16","2.0.0","49618","pvtd02ve3uz","mus","frog","22","female","yes","yes","1","2","null","<div style=""font-size:60px;"">+</div>","null","","","","","","",""
"","","","","","audio-keyboard-response","17","2.0.0","50219","pvtd02ve3uz","mus","frog","22","female","yes","yes","1","2","null","stimuli/sounds/flute_sound_A.wav","null","","","","","","",""
"","","","","","image-keyboard-response","18","2.0.0","51113","pvtd02ve3uz","mus","frog","22","female","yes","yes","1","2","892","stimuli/pictures/guitar_electric_1.jpg","0","0","true","true","","","",""
"","","","","","audio-keyboard-response","19","2.0.0","51914","pvtd02ve3uz","mus","frog","22","female","yes","yes","1","2","null","stimuli/sounds/bleep.wav","null","","","","","","",""
"","","","","","html-keyboard-response","20","2.0.0","52616","pvtd02ve3uz","mus","frog","22","female","yes","yes","1","2","null","<p style='color:green; font-size:30px;'>Correct!</p>","null","","","","","","",""
"","","","","","html-keyboard-response","21","2.0.0","53118","pvtd02ve3uz","mus","frog","22","female","yes","yes","1","2","null","<div style=""font-size:60px;"">+</div>","null","","","","","","",""
"","","","","","audio-keyboard-response","22","2.0.0","53718","pvtd02ve3uz","mus","frog","22","female","yes","yes","1","2","null","stimuli/sounds/guitar_sound_A.wav","null","","","","","","",""
"","","","","","image-keyboard-response","23","2.0.0","54730","pvtd02ve3uz","mus","frog","22","female","yes","yes","1","2","1010","stimuli/pictures/guitar_acoustic_1.jpg","0","1","true","false","","","",""
"","","","","","audio-keyboard-response","24","2.0.0","55533","pvtd02ve3uz","mus","frog","22","female","yes","yes","1","2","null","stimuli/sounds/buzz.wav","null","","","","","","",""
"","","","","","html-keyboard-response","25","2.0.0","56235","pvtd02ve3uz","mus","frog","22","female","yes","yes","1","2","null","<p style='color:red; font-size:30px;'>Incorrect</p>","null","","","","","","",""
"","","","","","html-keyboard-response","26","2.0.0","58350","pvtd02ve3uz","mus","frog","22","female","yes","yes","1","2","2114","<p>Practice complete. Press any key to begin the real experiment.</p>"," ","","","","","","",""
"","","","","","html-keyboard-response","27","2.0.0","63286","pvtd02ve3uz","mus","frog","22","female","yes","yes","1","2","4935","<div style=""font-size:30px;"">Press space to start the trial</div>"," ","","","","","","",""
"","","","","","html-keyboard-response","28","2.0.0","63539","pvtd02ve3uz","mus","frog","22","female","yes","yes","1","2","null","<div style=""font-size:60px;"">+</div>","null","","","","","","",""
"","","","","","audio-keyboard-response","29","2.0.0","64154","pvtd02ve3uz","mus","frog","22","female","yes","yes","1","2","null","stimuli/sounds/flute_label_B.wav","null","","","","","","",""
"","","","","","html-keyboard-response","30","2.0.0","65157","pvtd02ve3uz","mus","frog","22","female","yes","yes","1","2","null","","null","","","","","","",""
"","","","","","image-keyboard-response","31","2.0.0","72330","pvtd02ve3uz","mus","frog","22","female","yes","yes","1","2","7171","stimuli/pictures/flute_wooden_2.jpg","1","1","","true","yes","sound","stimuli/sounds/flute_label_B.wav",""
"","","","","","audio-keyboard-response","32","2.0.0","73333","pvtd02ve3uz","mus","frog","22","female","yes","yes","1","2","null","stimuli/sounds/bleep.wav","null","","","","","","",""
"","","","","","html-keyboard-response","33","2.0.0","75920","pvtd02ve3uz","mus","frog","22","female","yes","yes","1","2","2483","<div style=""font-size:30px;"">Press space to start the trial</div>"," ","","","","","","",""
"","","","","","html-keyboard-response","34","2.0.0","76171","pvtd02ve3uz","mus","frog","22","female","yes","yes","1","2","null","<div style=""font-size:60px;"">+</div>","null","","","","","","",""
"","","","","","audio-keyboard-response","35","2.0.0","76780","pvtd02ve3uz","mus","frog","22","female","yes","yes","1","2","null","stimuli/sounds/drum_sound_B.wav","null","","","","","","",""
"","","","","","html-keyboard-response","36","2.0.0","77783","pvtd02ve3uz","mus","frog","22","female","yes","yes","1","2","null","","null","","","","","","",""
"","","","","","image-keyboard-response","37","2.0.0","78919","pvtd02ve3uz","mus","frog","22","female","yes","yes","1","2","1134","stimuli/pictures/phone_cell_2.jpg","0","0","","true","no","sound","stimuli/sounds/drum_sound_B.wav",""
"","","","","","audio-keyboard-response","38","2.0.0","79922","pvtd02ve3uz","mus","frog","22","female","yes","yes","1","2","null","stimuli/sounds/bleep.wav","null","","","","","","",""
"","","","","","html-keyboard-response","39","2.0.0","81179","pvtd02ve3uz","mus","frog","22","female","yes","yes","1","2","1154","<div style=""font-size:30px;"">Press space to start the trial</div>"," ","","","","","","",""
"","","","","","html-keyboard-response","40","2.0.0","81431","pvtd02ve3uz","mus","frog","22","female","yes","yes","1","2","null","<div style=""font-size:60px;"">+</div>","null","","","","","","",""
"","","","","","audio-keyboard-response","41","2.0.0","82039","pvtd02ve3uz","mus","frog","22","female","yes","yes","1","2","null","stimuli/sounds/bird_label_B.wav","null","","","","","","",""
"","","","","","html-keyboard-response","42","2.0.0","83041","pvtd02ve3uz","mus","frog","22","female","yes","yes","1","2","null","","null","","","","","","",""
"","","","","","image-keyboard-response","43","2.0.0","84307","pvtd02ve3uz","mus","frog","22","female","yes","yes","1","2","1264","stimuli/pictures/bird_hawk_1.jpg","1","1","","true","yes","sound","stimuli/sounds/bird_label_B.wav",""
"","","","","","audio-keyboard-response","44","2.0.0","85310","pvtd02ve3uz","mus","frog","22","female","yes","yes","1","2","null","stimuli/sounds/bleep.wav","null","","","","","","",""
"","","","","","html-keyboard-response","45","2.0.0","87052","pvtd02ve3uz","mus","frog","22","female","yes","yes","1","2","1638","<div style=""font-size:30px;"">Press space to start the trial</div>"," ","","","","","","",""
"","","","","","html-keyboard-response","46","2.0.0","87305","pvtd02ve3uz","mus","frog","22","female","yes","yes","1","2","null","<div style=""font-size:60px;"">+</div>","null","","","","","","",""
"","","","","","audio-keyboard-response","47","2.0.0","87906","pvtd02ve3uz","mus","frog","22","female","yes","yes","1","2","null","stimuli/sounds/flute_sound_A.wav","null","","","","","","",""
"","","","","","html-keyboard-response","48","2.0.0","88909","pvtd02ve3uz","mus","frog","22","female","yes","yes","1","2","null","","null","","","","","","",""
"","","","","","image-keyboard-response","49","2.0.0","90304","pvtd02ve3uz","mus","frog","22","female","yes","yes","1","2","1393","stimuli/pictures/flute_wooden_1.jpg","1","1","","true","no","sound","stimuli/sounds/flute_sound_A.wav",""
"","","","","","audio-keyboard-response","50","2.0.0","91307","pvtd02ve3uz","mus","frog","22","female","yes","yes","1","2","null","stimuli/sounds/bleep.wav","null","","","","","","",""
"","","","","","html-keyboard-response","51","2.0.0","92069","pvtd02ve3uz","mus","frog","22","female","yes","yes","1","2","658","<div style=""font-size:30px;"">Press space to start the trial</div>"," ","","","","","","",""
"","","","","","html-keyboard-response","52","2.0.0","92322","pvtd02ve3uz","mus","frog","22","female","yes","yes","1","2","null","<div style=""font-size:60px;"">+</div>","null","","","","","","",""
"","","","","","audio-keyboard-response","53","2.0.0","92927","pvtd02ve3uz","mus","frog","22","female","yes","yes","1","2","null","stimuli/sounds/flute_label_B.wav","null","","","","","","",""
"","","","","","html-keyboard-response","54","2.0.0","93930","pvtd02ve3uz","mus","frog","22","female","yes","yes","1","2","null","","null","","","","","","",""
"","","","","","image-keyboard-response","55","2.0.0","94812","pvtd02ve3uz","mus","frog","22","female","yes","yes","1","2","880","stimuli/pictures/drum_bongo_1.jpg","0","0","","true","no","sound","stimuli/sounds/flute_label_B.wav",""
"","","","","","audio-keyboard-response","56","2.0.0","95815","pvtd02ve3uz","mus","frog","22","female","yes","yes","1","2","null","stimuli/sounds/bleep.wav","null","","","","","","",""
"","","","","","html-keyboard-response","57","2.0.0","96860","pvtd02ve3uz","mus","frog","22","female","yes","yes","1","2","943","<div style=""font-size:30px;"">Press space to start the trial</div>"," ","","","","","","",""
"","","","","","html-keyboard-response","58","2.0.0","97113","pvtd02ve3uz","mus","frog","22","female","yes","yes","1","2","null","<div style=""font-size:60px;"">+</div>","null","","","","","","",""
"","","","","","audio-keyboard-response","59","2.0.0","97711","pvtd02ve3uz","mus","frog","22","female","yes","yes","1","2","null","stimuli/sounds/phone_sound_B.wav","null","","","","","","",""
"","","","","","html-keyboard-response","60","2.0.0","98714","pvtd02ve3uz","mus","frog","22","female","yes","yes","1","2","null","","null","","","","","","",""
"","","","","","image-keyboard-response","61","2.0.0","99760","pvtd02ve3uz","mus","frog","22","female","yes","yes","1","2","1043","stimuli/pictures/piano_grand_2.jpg","0","0","","true","no","sound","stimuli/sounds/phone_sound_B.wav",""
"","","","","","audio-keyboard-response","62","2.0.0","100762","pvtd02ve3uz","mus","frog","22","female","yes","yes","1","2","null","stimuli/sounds/bleep.wav","null","","","","","","",""
"","","","","","html-keyboard-response","63","2.0.0","101465","pvtd02ve3uz","mus","frog","22","female","yes","yes","1","2","599","<div style=""font-size:30px;"">Press space to start the trial</div>"," ","","","","","","",""
"","","","","","html-keyboard-response","64","2.0.0","101718","pvtd02ve3uz","mus","frog","22","female","yes","yes","1","2","null","<div style=""font-size:60px;"">+</div>","null","","","","","","",""
"","","","","","audio-keyboard-response","65","2.0.0","102327","pvtd02ve3uz","mus","frog","22","female","yes","yes","1","2","null","stimuli/sounds/phone_label_A.wav","null","","","","","","",""
"","","","","","html-keyboard-response","66","2.0.0","103330","pvtd02ve3uz","mus","frog","22","female","yes","yes","1","2","null","","null","","","","","","",""
"","","","","","image-keyboard-response","67","2.0.0","104048","pvtd02ve3uz","mus","frog","22","female","yes","yes","1","2","716","stimuli/pictures/phone_rotary_1.jpg","1","1","","true","yes","sound","stimuli/sounds/phone_label_A.wav",""
"","","","","","audio-keyboard-response","68","2.0.0","105051","pvtd02ve3uz","mus","frog","22","female","yes","yes","1","2","null","stimuli/sounds/bleep.wav","null","","","","","","",""
"","","","","","html-keyboard-response","69","2.0.0","105899","pvtd02ve3uz","mus","frog","22","female","yes","yes","1","2","745","<div style=""font-size:30px;"">Press space to start the trial</div>"," ","","","","","","",""
"","","","","","html-keyboard-response","70","2.0.0","106152","pvtd02ve3uz","mus","frog","22","female","yes","yes","1","2","null","<div style=""font-size:60px;"">+</div>","null","","","","","","",""
"","","","","","audio-keyboard-response","71","2.0.0","106752","pvtd02ve3uz","mus","frog","22","female","yes","yes","1","2","null","stimuli/sounds/bird_label_A.wav","null","","","","","","",""
"","","","","","html-keyboard-response","72","2.0.0","107755","pvtd02ve3uz","mus","frog","22","female","yes","yes","1","2","null","","null","","","","","","",""
"","","","","","image-keyboard-response","73","2.0.0","108938","pvtd02ve3uz","mus","frog","22","female","yes","yes","1","2","1181","stimuli/pictures/bird_song_1.jpg","1","1","","true","yes","sound","stimuli/sounds/bird_label_A.wav",""
"","","","","","audio-keyboard-response","74","2.0.0","109941","pvtd02ve3uz","mus","frog","22","female","yes","yes","1","2","null","stimuli/sounds/bleep.wav","null","","","","","","",""
"","","","","","html-keyboard-response","75","2.0.0","110763","pvtd02ve3uz","mus","frog","22","female","yes","yes","1","2","717","<div style=""font-size:30px;"">Press space to start the trial</div>"," ","","","","","","",""
"","","","","","html-keyboard-response","76","2.0.0","111015","pvtd02ve3uz","mus","frog","22","female","yes","yes","1","2","null","<div style=""font-size:60px;"">+</div>","null","","","","","","",""
"","","","","","audio-keyboard-response","77","2.0.0","111617","pvtd02ve3uz","mus","frog","22","female","yes","yes","1","2","null","stimuli/sounds/phone_label_A.wav","null","","","","","","",""
"","","","","","html-keyboard-response","78","2.0.0","112619","pvtd02ve3uz","mus","frog","22","female","yes","yes","1","2","null","","null","","","","","","",""
"","","","","","image-keyboard-response","79","2.0.0","113310","pvtd02ve3uz","mus","frog","22","female","yes","yes","1","2","688","stimuli/pictures/drum_kit_2.jpg","0","0","","true","no","sound","stimuli/sounds/phone_label_A.wav",""
"","","","","","audio-keyboard-response","80","2.0.0","114312","pvtd02ve3uz","mus","frog","22","female","yes","yes","1","2","null","stimuli/sounds/bleep.wav","null","","","","","","",""
"","","","","","html-keyboard-response","81","2.0.0","114771","pvtd02ve3uz","mus","frog","22","female","yes","yes","1","2","355","<div style=""font-size:30px;"">Press space to start the trial</div>"," ","","","","","","",""
"","","","","","html-keyboard-response","82","2.0.0","115024","pvtd02ve3uz","mus","frog","22","female","yes","yes","1","2","null","<div style=""font-size:60px;"">+</div>","null","","","","","","",""
"","","","","","audio-keyboard-response","83","2.0.0","115648","pvtd02ve3uz","mus","frog","22","female","yes","yes","1","2","null","stimuli/sounds/piano_label_A.wav","null","","","","","","",""
"","","","","","html-keyboard-response","84","2.0.0","116650","pvtd02ve3uz","mus","frog","22","female","yes","yes","1","2","null","","null","","","","","","",""
"","","","","","image-keyboard-response","85","2.0.0","117270","pvtd02ve3uz","mus","frog","22","female","yes","yes","1","2","618","stimuli/pictures/phone_rotary_2.jpg","0","0","","true","no","sound","stimuli/sounds/piano_label_A.wav",""
"","","","","","audio-keyboard-response","86","2.0.0","118273","pvtd02ve3uz","mus","frog","22","female","yes","yes","1","2","null","stimuli/sounds/bleep.wav","null","","","","","","",""
"","","","","","html-keyboard-response","87","2.0.0","118793","pvtd02ve3uz","mus","frog","22","female","yes","yes","1","2","416","<div style=""font-size:30px;"">Press space to start the trial</div>"," ","","","","","","",""
"","","","","","html-keyboard-response","88","2.0.0","119044","pvtd02ve3uz","mus","frog","22","female","yes","yes","1","2","null","<div style=""font-size:60px;"">+</div>","null","","","","","","",""
"","","","","","audio-keyboard-response","89","2.0.0","119650","pvtd02ve3uz","mus","frog","22","female","yes","yes","1","2","null","stimuli/sounds/phone_sound_A.wav","null","","","","","","",""
"","","","","","html-keyboard-response","90","2.0.0","120652","pvtd02ve3uz","mus","frog","22","female","yes","yes","1","2","null","","null","","","","","","",""
"","","","","","image-keyboard-response","91","2.0.0","121350","pvtd02ve3uz","mus","frog","22","female","yes","yes","1","2","695","stimuli/pictures/phone_rotary_2.jpg","1","1","","true","no","sound","stimuli/sounds/phone_sound_A.wav",""
"","","","","","audio-keyboard-response","92","2.0.0","122352","pvtd02ve3uz","mus","frog","22","female","yes","yes","1","2","null","stimuli/sounds/bleep.wav","null","","","","","","",""
"","","","","","html-keyboard-response","93","2.0.0","122921","pvtd02ve3uz","mus","frog","22","female","yes","yes","1","2","466","<div style=""font-size:30px;"">Press space to start the trial</div>"," ","","","","","","",""
"","","","","","html-keyboard-response","94","2.0.0","123173","pvtd02ve3uz","mus","frog","22","female","yes","yes","1","2","null","<div style=""font-size:60px;"">+</div>","null","","","","","","",""
"","","","","","audio-keyboard-response","95","2.0.0","123774","pvtd02ve3uz","mus","frog","22","female","yes","yes","1","2","null","stimuli/sounds/phone_label_B.wav","null","","","","","","",""
"","","","","","html-keyboard-response","96","2.0.0","124777","pvtd02ve3uz","mus","frog","22","female","yes","yes","1","2","null","","null","","","","","","",""
"","","","","","image-keyboard-response","97","2.0.0","125632","pvtd02ve3uz","mus","frog","22","female","yes","yes","1","2","853","stimuli/pictures/phone_cell_2.jpg","1","1","","true","yes","sound","stimuli/sounds/phone_label_B.wav",""
"","","","","","audio-keyboard-response","98","2.0.0","126634","pvtd02ve3uz","mus","frog","22","female","yes","yes","1","2","null","stimuli/sounds/bleep.wav","null","","","","","","",""
"","","","","","html-keyboard-response","99","2.0.0","127056","pvtd02ve3uz","mus","frog","22","female","yes","yes","1","2","318","<div style=""font-size:30px;"">Press space to start the trial</div>"," ","","","","","","",""
"","","","","","html-keyboard-response","100","2.0.0","127308","pvtd02ve3uz","mus","frog","22","female","yes","yes","1","2","null","<div style=""font-size:60px;"">+</div>","null","","","","","","",""
"","","","","","audio-keyboard-response","101","2.0.0","127909","pvtd02ve3uz","mus","frog","22","female","yes","yes","1","2","null","stimuli/sounds/piano_sound_B.wav","null","","","","","","",""
"","","","","","html-keyboard-response","102","2.0.0","128912","pvtd02ve3uz","mus","frog","22","female","yes","yes","1","2","null","","null","","","","","","",""
"","","","","","image-keyboard-response","103","2.0.0","129599","pvtd02ve3uz","mus","frog","22","female","yes","yes","1","2","685","stimuli/pictures/piano_grand_1.jpg","0","1","","false","no","sound","stimuli/sounds/piano_sound_B.wav",""
"","","","","","audio-keyboard-response","104","2.0.0","130602","pvtd02ve3uz","mus","frog","22","female","yes","yes","1","2","null","stimuli/sounds/buzz.wav","null","","","","","","",""
"","","","","","html-keyboard-response","105","2.0.0","131338","pvtd02ve3uz","mus","frog","22","female","yes","yes","1","2","633","<div style=""font-size:30px;"">Press space to start the trial</div>"," ","","","","","","",""
"","","","","","html-keyboard-response","106","2.0.0","131590","pvtd02ve3uz","mus","frog","22","female","yes","yes","1","2","null","<div style=""font-size:60px;"">+</div>","null","","","","","","",""
"","","","","","audio-keyboard-response","107","2.0.0","132195","pvtd02ve3uz","mus","frog","22","female","yes","yes","1","2","null","stimuli/sounds/flute_label_A.wav","null","","","","","","",""
"","","","","","html-keyboard-response","108","2.0.0","133197","pvtd02ve3uz","mus","frog","22","female","yes","yes","1","2","null","","null","","","","","","",""
"","","","","","image-keyboard-response","109","2.0.0","134178","pvtd02ve3uz","mus","frog","22","female","yes","yes","1","2","979","stimuli/pictures/flute_metal_1.jpg","1","1","","true","yes","sound","stimuli/sounds/flute_label_A.wav",""
"","","","","","audio-keyboard-response","110","2.0.0","135181","pvtd02ve3uz","mus","frog","22","female","yes","yes","1","2","null","stimuli/sounds/bleep.wav","null","","","","","","",""
"","","","","","html-keyboard-response","111","2.0.0","135845","pvtd02ve3uz","mus","frog","22","female","yes","yes","1","2","561","<div style=""font-size:30px;"">Press space to start the trial</div>"," ","","","","","","",""
"","","","","","html-keyboard-response","112","2.0.0","136097","pvtd02ve3uz","mus","frog","22","female","yes","yes","1","2","null","<div style=""font-size:60px;"">+</div>","null","","","","","","",""
"","","","","","audio-keyboard-response","113","2.0.0","136701","pvtd02ve3uz","mus","frog","22","female","yes","yes","1","2","null","stimuli/sounds/flute_label_A.wav","null","","","","","","",""
"","","","","","html-keyboard-response","114","2.0.0","137703","pvtd02ve3uz","mus","frog","22","female","yes","yes","1","2","null","","null","","","","","","",""
"","","","","","image-keyboard-response","115","2.0.0","138163","pvtd02ve3uz","mus","frog","22","female","yes","yes","1","2","458","stimuli/pictures/flute_wooden_1.jpg","1","1","","true","yes","sound","stimuli/sounds/flute_label_A.wav",""
"","","","","","audio-keyboard-response","116","2.0.0","139165","pvtd02ve3uz","mus","frog","22","female","yes","yes","1","2","null","stimuli/sounds/bleep.wav","null","","","","","","",""
"","","","","","html-keyboard-response","117","2.0.0","139771","pvtd02ve3uz","mus","frog","22","female","yes","yes","1","2","502","<div style=""font-size:30px;"">Press space to start the trial</div>"," ","","","","","","",""
"","","","","","html-keyboard-response","118","2.0.0","140025","pvtd02ve3uz","mus","frog","22","female","yes","yes","1","2","null","<div style=""font-size:60px;"">+</div>","null","","","","","","",""
"","","","","","audio-keyboard-response","119","2.0.0","140628","pvtd02ve3uz","mus","frog","22","female","yes","yes","1","2","null","stimuli/sounds/bird_label_A.wav","null","","","","","","",""
"","","","","","html-keyboard-response","120","2.0.0","141631","pvtd02ve3uz","mus","frog","22","female","yes","yes","1","2","null","","null","","","","","","",""
"","","","","","image-keyboard-response","121","2.0.0","142396","pvtd02ve3uz","mus","frog","22","female","yes","yes","1","2","763","stimuli/pictures/flute_wooden_1.jpg","0","0","","true","no","sound","stimuli/sounds/bird_label_A.wav",""
"","","","","","audio-keyboard-response","122","2.0.0","143398","pvtd02ve3uz","mus","frog","22","female","yes","yes","1","2","null","stimuli/sounds/bleep.wav","null","","","","","","",""
"","","","","","html-keyboard-response","123","2.0.0","143873","pvtd02ve3uz","mus","frog","22","female","yes","yes","1","2","372","<div style=""font-size:30px;"">Press space to start the trial</div>"," ","","","","","","",""
"","","","","","html-keyboard-response","124","2.0.0","144126","pvtd02ve3uz","mus","frog","22","female","yes","yes","1","2","null","<div style=""font-size:60px;"">+</div>","null","","","","","","",""
"","","","","","audio-keyboard-response","125","2.0.0","144728","pvtd02ve3uz","mus","frog","22","female","yes","yes","1","2","null","stimuli/sounds/phone_label_A.wav","null","","","","","","",""
"","","","","","html-keyboard-response","126","2.0.0","145731","pvtd02ve3uz","mus","frog","22","female","yes","yes","1","2","null","","null","","","","","","",""
"","","","","","image-keyboard-response","127","2.0.0","146489","pvtd02ve3uz","mus","frog","22","female","yes","yes","1","2","755","stimuli/pictures/drum_bongo_1.jpg","0","0","","true","no","sound","stimuli/sounds/phone_label_A.wav",""
"","","","","","audio-keyboard-response","128","2.0.0","147491","pvtd02ve3uz","mus","frog","22","female","yes","yes","1","2","null","stimuli/sounds/bleep.wav","null","","","","","","",""
"","","","","","html-keyboard-response","129","2.0.0","148135","pvtd02ve3uz","mus","frog","22","female","yes","yes","1","2","541","<div style=""font-size:30px;"">Press space to start the trial</div>"," ","","","","","","",""
"","","","","","html-keyboard-response","130","2.0.0","148387","pvtd02ve3uz","mus","frog","22","female","yes","yes","1","2","null","<div style=""font-size:60px;"">+</div>","null","","","","","","",""
"","","","","","audio-keyboard-response","131","2.0.0","148991","pvtd02ve3uz","mus","frog","22","female","yes","yes","1","2","null","stimuli/sounds/flute_label_B.wav","null","","","","","","",""
"","","","","","html-keyboard-response","132","2.0.0","149992","pvtd02ve3uz","mus","frog","22","female","yes","yes","1","2","null","","null","","","","","","",""
"","","","","","image-keyboard-response","133","2.0.0","150672","pvtd02ve3uz","mus","frog","22","female","yes","yes","1","2","678","stimuli/pictures/flute_metal_2.jpg","1","1","","true","yes","sound","stimuli/sounds/flute_label_B.wav",""
"","","","","","audio-keyboard-response","134","2.0.0","151675","pvtd02ve3uz","mus","frog","22","female","yes","yes","1","2","null","stimuli/sounds/bleep.wav","null","","","","","","",""
"","","","","","html-keyboard-response","135","2.0.0","152136","pvtd02ve3uz","mus","frog","22","female","yes","yes","1","2","358","<div style=""font-size:30px;"">Press space to start the trial</div>"," ","","","","","","",""
"","","","","","html-keyboard-response","136","2.0.0","152388","pvtd02ve3uz","mus","frog","22","female","yes","yes","1","2","null","<div style=""font-size:60px;"">+</div>","null","","","","","","",""
"","","","","","audio-keyboard-response","137","2.0.0","152987","pvtd02ve3uz","mus","frog","22","female","yes","yes","1","2","null","stimuli/sounds/drum_label_B.wav","null","","","","","","",""
"","","","","","html-keyboard-response","138","2.0.0","153990","pvtd02ve3uz","mus","frog","22","female","yes","yes","1","2","null","","null","","","","","","",""
"","","","","","image-keyboard-response","139","2.0.0","154795","pvtd02ve3uz","mus","frog","22","female","yes","yes","1","2","803","stimuli/pictures/piano_electric_2.jpg","0","0","","true","no","sound","stimuli/sounds/drum_label_B.wav",""
"","","","","","audio-keyboard-response","140","2.0.0","155798","pvtd02ve3uz","mus","frog","22","female","yes","yes","1","2","null","stimuli/sounds/bleep.wav","null","","","","","","",""
"","","","","","html-keyboard-response","141","2.0.0","156354","pvtd02ve3uz","mus","frog","22","female","yes","yes","1","2","453","<div style=""font-size:30px;"">Press space to start the trial</div>"," ","","","","","","",""
"","","","","","html-keyboard-response","142","2.0.0","156607","pvtd02ve3uz","mus","frog","22","female","yes","yes","1","2","null","<div style=""font-size:60px;"">+</div>","null","","","","","","",""
"","","","","","audio-keyboard-response","143","2.0.0","157209","pvtd02ve3uz","mus","frog","22","female","yes","yes","1","2","null","stimuli/sounds/drum_sound_B.wav","null","","","","","","",""
"","","","","","html-keyboard-response","144","2.0.0","158212","pvtd02ve3uz","mus","frog","22","female","yes","yes","1","2","null","","null","","","","","","",""
"","","","","","image-keyboard-response","145","2.0.0","158724","pvtd02ve3uz","mus","frog","22","female","yes","yes","1","2","510","stimuli/pictures/drum_bongo_1.jpg","1","1","","true","yes","sound","stimuli/sounds/drum_sound_B.wav",""
"","","","","","audio-keyboard-response","146","2.0.0","159726","pvtd02ve3uz","mus","frog","22","female","yes","yes","1","2","null","stimuli/sounds/bleep.wav","null","","","","","","",""
"","","","","","html-keyboard-response","147","2.0.0","163500","pvtd02ve3uz","mus","frog","22","female","yes","yes","1","2","3671","<p>You have completed a block. Press R when you are ready to continue</p>","r","","","","","","",""
"","","","","","html-keyboard-response","148","2.0.0","166637","pvtd02ve3uz","mus","frog","22","female","yes","yes","1","2","3135","<div style=""font-size:30px;"">Press space to start the trial</div>"," ","","","","","","",""
"","","","","","html-keyboard-response","149","2.0.0","166889","pvtd02ve3uz","mus","frog","22","female","yes","yes","1","2","null","<div style=""font-size:60px;"">+</div>","null","","","","","","",""
"","","","","","audio-keyboard-response","150","2.0.0","167490","pvtd02ve3uz","mus","frog","22","female","yes","yes","1","2","null","stimuli/sounds/bird_sound_B.wav","null","","","","","","",""
"","","","","","html-keyboard-response","151","2.0.0","168492","pvtd02ve3uz","mus","frog","22","female","yes","yes","1","2","null","","null","","","","","","",""
"","","","","","image-keyboard-response","152","2.0.0","169065","pvtd02ve3uz","mus","frog","22","female","yes","yes","1","2","571","stimuli/pictures/drum_bongo_2.jpg","0","0","","true","no","sound","stimuli/sounds/bird_sound_B.wav",""
"","","","","","audio-keyboard-response","153","2.0.0","170068","pvtd02ve3uz","mus","frog","22","female","yes","yes","1","2","null","stimuli/sounds/bleep.wav","null","","","","","","",""
"","","","","","html-keyboard-response","154","2.0.0","171208","pvtd02ve3uz","mus","frog","22","female","yes","yes","1","2","1038","<div style=""font-size:30px;"">Press space to start the trial</div>"," ","","","","","","",""
"","","","","","html-keyboard-response","155","2.0.0","171462","pvtd02ve3uz","mus","frog","22","female","yes","yes","1","2","null","<div style=""font-size:60px;"">+</div>","null","","","","","","",""
"","","","","","audio-keyboard-response","156","2.0.0","172065","pvtd02ve3uz","mus","frog","22","female","yes","yes","1","2","null","stimuli/sounds/flute_sound_A.wav","null","","","","","","",""
"","","","","","html-keyboard-response","157","2.0.0","173067","pvtd02ve3uz","mus","frog","22","female","yes","yes","1","2","null","","null","","","","","","",""
"","","","","","image-keyboard-response","158","2.0.0","173896","pvtd02ve3uz","mus","frog","22","female","yes","yes","1","2","827","stimuli/pictures/phone_rotary_2.jpg","0","0","","true","no","sound","stimuli/sounds/flute_sound_A.wav",""
"","","","","","audio-keyboard-response","159","2.0.0","174899","pvtd02ve3uz","mus","frog","22","female","yes","yes","1","2","null","stimuli/sounds/bleep.wav","null","","","","","","",""
"","","","","","html-keyboard-response","160","2.0.0","175454","pvtd02ve3uz","mus","frog","22","female","yes","yes","1","2","452","<div style=""font-size:30px;"">Press space to start the trial</div>"," ","","","","","","",""
"","","","","","html-keyboard-response","161","2.0.0","175707","pvtd02ve3uz","mus","frog","22","female","yes","yes","1","2","null","<div style=""font-size:60px;"">+</div>","null","","","","","","",""
"","","","","","audio-keyboard-response","162","2.0.0","176316","pvtd02ve3uz","mus","frog","22","female","yes","yes","1","2","null","stimuli/sounds/flute_label_B.wav","null","","","","","","",""
"","","","","","html-keyboard-response","163","2.0.0","177319","pvtd02ve3uz","mus","frog","22","female","yes","yes","1","2","null","","null","","","","","","",""
"","","","","","image-keyboard-response","164","2.0.0","177882","pvtd02ve3uz","mus","frog","22","female","yes","yes","1","2","562","stimuli/pictures/drum_kit_1.jpg","0","0","","true","no","sound","stimuli/sounds/flute_label_B.wav",""
"","","","","","audio-keyboard-response","165","2.0.0","178884","pvtd02ve3uz","mus","frog","22","female","yes","yes","1","2","null","stimuli/sounds/bleep.wav","null","","","","","","",""
"","","","","","html-keyboard-response","166","2.0.0","179310","pvtd02ve3uz","mus","frog","22","female","yes","yes","1","2","323","<div style=""font-size:30px;"">Press space to start the trial</div>"," ","","","","","","",""
"","","","","","html-keyboard-response","167","2.0.0","179563","pvtd02ve3uz","mus","frog","22","female","yes","yes","1","2","null","<div style=""font-size:60px;"">+</div>","null","","","","","","",""
"","","","","","audio-keyboard-response","168","2.0.0","180168","pvtd02ve3uz","mus","frog","22","female","yes","yes","1","2","null","stimuli/sounds/flute_sound_A.wav","null","","","","","","",""
"","","","","","html-keyboard-response","169","2.0.0","181170","pvtd02ve3uz","mus","frog","22","female","yes","yes","1","2","null","","null","","","","","","",""
"","","","","","image-keyboard-response","170","2.0.0","181971","pvtd02ve3uz","mus","frog","22","female","yes","yes","1","2","798","stimuli/pictures/flute_wooden_2.jpg","1","1","","true","no","sound","stimuli/sounds/flute_sound_A.wav",""
"","","","","","audio-keyboard-response","171","2.0.0","182974","pvtd02ve3uz","mus","frog","22","female","yes","yes","1","2","null","stimuli/sounds/bleep.wav","null","","","","","","",""
"","","","","","html-keyboard-response","172","2.0.0","183553","pvtd02ve3uz","mus","frog","22","female","yes","yes","1","2","477","<div style=""font-size:30px;"">Press space to start the trial</div>"," ","","","","","","",""
"","","","","","html-keyboard-response","173","2.0.0","183805","pvtd02ve3uz","mus","frog","22","female","yes","yes","1","2","null","<div style=""font-size:60px;"">+</div>","null","","","","","","",""
"","","","","","audio-keyboard-response","174","2.0.0","184407","pvtd02ve3uz","mus","frog","22","female","yes","yes","1","2","null","stimuli/sounds/piano_sound_B.wav","null","","","","","","",""
"","","","","","html-keyboard-response","175","2.0.0","185410","pvtd02ve3uz","mus","frog","22","female","yes","yes","1","2","null","","null","","","","","","",""
"","","","","","image-keyboard-response","176","2.0.0","186097","pvtd02ve3uz","mus","frog","22","female","yes","yes","1","2","685","stimuli/pictures/piano_grand_2.jpg","0","1","","false","no","sound","stimuli/sounds/piano_sound_B.wav",""
"","","","","","audio-keyboard-response","177","2.0.0","187101","pvtd02ve3uz","mus","frog","22","female","yes","yes","1","2","null","stimuli/sounds/buzz.wav","null","","","","","","",""
"","","","","","html-keyboard-response","178","2.0.0","187790","pvtd02ve3uz","mus","frog","22","female","yes","yes","1","2","586","<div style=""font-size:30px;"">Press space to start the trial</div>"," ","","","","","","",""
"","","","","","html-keyboard-response","179","2.0.0","188043","pvtd02ve3uz","mus","frog","22","female","yes","yes","1","2","null","<div style=""font-size:60px;"">+</div>","null","","","","","","",""
"","","","","","audio-keyboard-response","180","2.0.0","188647","pvtd02ve3uz","mus","frog","22","female","yes","yes","1","2","null","stimuli/sounds/flute_label_B.wav","null","","","","","","",""
"","","","","","html-keyboard-response","181","2.0.0","189650","pvtd02ve3uz","mus","frog","22","female","yes","yes","1","2","null","","null","","","","","","",""
"","","","","","image-keyboard-response","182","2.0.0","191103","pvtd02ve3uz","mus","frog","22","female","yes","yes","1","2","1451","stimuli/pictures/drum_bongo_2.jpg","0","0","","true","no","sound","stimuli/sounds/flute_label_B.wav",""
"","","","","","audio-keyboard-response","183","2.0.0","192106","pvtd02ve3uz","mus","frog","22","female","yes","yes","1","2","null","stimuli/sounds/bleep.wav","null","","","","","","",""
"","","","","","html-keyboard-response","184","2.0.0","192521","pvtd02ve3uz","mus","frog","22","female","yes","yes","1","2","312","<div style=""font-size:30px;"">Press space to start the trial</div>"," ","","","","","","",""
"","","","","","html-keyboard-response","185","2.0.0","192774","pvtd02ve3uz","mus","frog","22","female","yes","yes","1","2","null","<div style=""font-size:60px;"">+</div>","null","","","","","","",""
"","","","","","audio-keyboard-response","186","2.0.0","193378","pvtd02ve3uz","mus","frog","22","female","yes","yes","1","2","null","stimuli/sounds/flute_sound_B.wav","null","","","","","","",""
"","","","","","html-keyboard-response","187","2.0.0","194380","pvtd02ve3uz","mus","frog","22","female","yes","yes","1","2","null","","null","","","","","","",""
"","","","","","image-keyboard-response","188","2.0.0","195684","pvtd02ve3uz","mus","frog","22","female","yes","yes","1","2","1302","stimuli/pictures/bird_hawk_1.jpg","0","0","","true","no","sound","stimuli/sounds/flute_sound_B.wav",""
"","","","","","audio-keyboard-response","189","2.0.0","196686","pvtd02ve3uz","mus","frog","22","female","yes","yes","1","2","null","stimuli/sounds/bleep.wav","null","","","","","","",""
"","","","","","html-keyboard-response","190","2.0.0","197888","pvtd02ve3uz","mus","frog","22","female","yes","yes","1","2","1098","<div style=""font-size:30px;"">Press space to start the trial</div>"," ","","","","","","",""
"","","","","","html-keyboard-response","191","2.0.0","198141","pvtd02ve3uz","mus","frog","22","female","yes","yes","1","2","null","<div style=""font-size:60px;"">+</div>","null","","","","","","",""
"","","","","","audio-keyboard-response","192","2.0.0","198742","pvtd02ve3uz","mus","frog","22","female","yes","yes","1","2","null","stimuli/sounds/bird_sound_B.wav","null","","","","","","",""
"","","","","","html-keyboard-response","193","2.0.0","199744","pvtd02ve3uz","mus","frog","22","female","yes","yes","1","2","null","","null","","","","","","",""
"","","","","","image-keyboard-response","194","2.0.0","201453","pvtd02ve3uz","mus","frog","22","female","yes","yes","1","2","1707","stimuli/pictures/drum_kit_2.jpg","0","0","","true","no","sound","stimuli/sounds/bird_sound_B.wav",""
"","","","","","audio-keyboard-response","195","2.0.0","202455","pvtd02ve3uz","mus","frog","22","female","yes","yes","1","2","null","stimuli/sounds/bleep.wav","null","","","","","","",""
"","","","","","html-keyboard-response","196","2.0.0","203287","pvtd02ve3uz","mus","frog","22","female","yes","yes","1","2","729","<div style=""font-size:30px;"">Press space to start the trial</div>"," ","","","","","","",""
"","","","","","html-keyboard-response","197","2.0.0","203540","pvtd02ve3uz","mus","frog","22","female","yes","yes","1","2","null","<div style=""font-size:60px;"">+</div>","null","","","","","","",""
"","","","","","audio-keyboard-response","198","2.0.0","204163","pvtd02ve3uz","mus","frog","22","female","yes","yes","1","2","null","stimuli/sounds/piano_label_A.wav","null","","","","","","",""
"","","","","","html-keyboard-response","199","2.0.0","205165","pvtd02ve3uz","mus","frog","22","female","yes","yes","1","2","null","","null","","","","","","",""
"","","","","","image-keyboard-response","200","2.0.0","206073","pvtd02ve3uz","mus","frog","22","female","yes","yes","1","2","905","stimuli/pictures/piano_electric_2.jpg","1","1","","true","yes","sound","stimuli/sounds/piano_label_A.wav",""
"","","","","","audio-keyboard-response","201","2.0.0","207075","pvtd02ve3uz","mus","frog","22","female","yes","yes","1","2","null","stimuli/sounds/bleep.wav","null","","","","","","",""
"","","","","","html-keyboard-response","202","2.0.0","207605","pvtd02ve3uz","mus","frog","22","female","yes","yes","1","2","427","<div style=""font-size:30px;"">Press space to start the trial</div>"," ","","","","","","",""
"","","","","","html-keyboard-response","203","2.0.0","207858","pvtd02ve3uz","mus","frog","22","female","yes","yes","1","2","null","<div style=""font-size:60px;"">+</div>","null","","","","","","",""
"","","","","","audio-keyboard-response","204","2.0.0","208466","pvtd02ve3uz","mus","frog","22","female","yes","yes","1","2","null","stimuli/sounds/drum_label_B.wav","null","","","","","","",""
"","","","","","html-keyboard-response","205","2.0.0","209468","pvtd02ve3uz","mus","frog","22","female","yes","yes","1","2","null","","null","","","","","","",""
"","","","","","image-keyboard-response","206","2.0.0","210193","pvtd02ve3uz","mus","frog","22","female","yes","yes","1","2","723","stimuli/pictures/drum_kit_1.jpg","1","1","","true","yes","sound","stimuli/sounds/drum_label_B.wav",""
"","","","","","audio-keyboard-response","207","2.0.0","211196","pvtd02ve3uz","mus","frog","22","female","yes","yes","1","2","null","stimuli/sounds/bleep.wav","null","","","","","","",""
"","","","","","html-keyboard-response","208","2.0.0","212358","pvtd02ve3uz","mus","frog","22","female","yes","yes","1","2","1058","<div style=""font-size:30px;"">Press space to start the trial</div>"," ","","","","","","",""
"","","","","","html-keyboard-response","209","2.0.0","212611","pvtd02ve3uz","mus","frog","22","female","yes","yes","1","2","null","<div style=""font-size:60px;"">+</div>","null","","","","","","",""
"","","","","","audio-keyboard-response","210","2.0.0","213215","pvtd02ve3uz","mus","frog","22","female","yes","yes","1","2","null","stimuli/sounds/piano_label_B.wav","null","","","","","","",""
"","","","","","html-keyboard-response","211","2.0.0","214217","pvtd02ve3uz","mus","frog","22","female","yes","yes","1","2","null","","null","","","","","","",""
"","","","","","image-keyboard-response","212","2.0.0","214852","pvtd02ve3uz","mus","frog","22","female","yes","yes","1","2","633","stimuli/pictures/bird_song_2.jpg","0","0","","true","no","sound","stimuli/sounds/piano_label_B.wav",""
"","","","","","audio-keyboard-response","213","2.0.0","215854","pvtd02ve3uz","mus","frog","22","female","yes","yes","1","2","null","stimuli/sounds/bleep.wav","null","","","","","","",""
"","","","","","html-keyboard-response","214","2.0.0","216369","pvtd02ve3uz","mus","frog","22","female","yes","yes","1","2","412","<div style=""font-size:30px;"">Press space to start the trial</div>"," ","","","","","","",""
"","","","","","html-keyboard-response","215","2.0.0","216621","pvtd02ve3uz","mus","frog","22","female","yes","yes","1","2","null","<div style=""font-size:60px;"">+</div>","null","","","","","","",""
"","","","","","audio-keyboard-response","216","2.0.0","217223","pvtd02ve3uz","mus","frog","22","female","yes","yes","1","2","null","stimuli/sounds/drum_label_A.wav","null","","","","","","",""
"","","","","","html-keyboard-response","217","2.0.0","218226","pvtd02ve3uz","mus","frog","22","female","yes","yes","1","2","null","","null","","","","","","",""
"","","","","","image-keyboard-response","218","2.0.0","218855","pvtd02ve3uz","mus","frog","22","female","yes","yes","1","2","627","stimuli/pictures/bird_hawk_1.jpg","0","0","","true","no","sound","stimuli/sounds/drum_label_A.wav",""
"","","","","","audio-keyboard-response","219","2.0.0","219858","pvtd02ve3uz","mus","frog","22","female","yes","yes","1","2","null","stimuli/sounds/bleep.wav","null","","","","","","",""
"","","","","","html-keyboard-response","220","2.0.0","220238","pvtd02ve3uz","mus","frog","22","female","yes","yes","1","2","277","<div style=""font-size:30px;"">Press space to start the trial</div>"," ","","","","","","",""
"","","","","","html-keyboard-response","221","2.0.0","220491","pvtd02ve3uz","mus","frog","22","female","yes","yes","1","2","null","<div style=""font-size:60px;"">+</div>","null","","","","","","",""
"","","","","","audio-keyboard-response","222","2.0.0","221097","pvtd02ve3uz","mus","frog","22","female","yes","yes","1","2","null","stimuli/sounds/bird_sound_B.wav","null","","","","","","",""
"","","","","","html-keyboard-response","223","2.0.0","222100","pvtd02ve3uz","mus","frog","22","female","yes","yes","1","2","null","","null","","","","","","",""
"","","","","","image-keyboard-response","224","2.0.0","222641","pvtd02ve3uz","mus","frog","22","female","yes","yes","1","2","538","stimuli/pictures/drum_kit_1.jpg","0","0","","true","no","sound","stimuli/sounds/bird_sound_B.wav",""
"","","","","","audio-keyboard-response","225","2.0.0","223643","pvtd02ve3uz","mus","frog","22","female","yes","yes","1","2","null","stimuli/sounds/bleep.wav","null","","","","","","",""
"","","","","","html-keyboard-response","226","2.0.0","224042","pvtd02ve3uz","mus","frog","22","female","yes","yes","1","2","297","<div style=""font-size:30px;"">Press space to start the trial</div>"," ","","","","","","",""
"","","","","","html-keyboard-response","227","2.0.0","224294","pvtd02ve3uz","mus","frog","22","female","yes","yes","1","2","null","<div style=""font-size:60px;"">+</div>","null","","","","","","",""
"","","","","","audio-keyboard-response","228","2.0.0","224897","pvtd02ve3uz","mus","frog","22","female","yes","yes","1","2","null","stimuli/sounds/drum_sound_A.wav","null","","","","","","",""
"","","","","","html-keyboard-response","229","2.0.0","225900","pvtd02ve3uz","mus","frog","22","female","yes","yes","1","2","null","","null","","","","","","",""
"","","","","","image-keyboard-response","230","2.0.0","226293","pvtd02ve3uz","mus","frog","22","female","yes","yes","1","2","392","stimuli/pictures/drum_kit_2.jpg","1","1","","true","yes","sound","stimuli/sounds/drum_sound_A.wav",""
"","","","","","audio-keyboard-response","231","2.0.0","227297","pvtd02ve3uz","mus","frog","22","female","yes","yes","1","2","null","stimuli/sounds/bleep.wav","null","","","","","","",""
"","","","","","html-keyboard-response","232","2.0.0","227860","pvtd02ve3uz","mus","frog","22","female","yes","yes","1","2","460","<div style=""font-size:30px;"">Press space to start the trial</div>"," ","","","","","","",""
"","","","","","html-keyboard-response","233","2.0.0","228113","pvtd02ve3uz","mus","frog","22","female","yes","yes","1","2","null","<div style=""font-size:60px;"">+</div>","null","","","","","","",""
"","","","","","audio-keyboard-response","234","2.0.0","228714","pvtd02ve3uz","mus","frog","22","female","yes","yes","1","2","null","stimuli/sounds/flute_label_A.wav","null","","","","","","",""
"","","","","","html-keyboard-response","235","2.0.0","229717","pvtd02ve3uz","mus","frog","22","female","yes","yes","1","2","null","","null","","","","","","",""
"","","","","","image-keyboard-response","236","2.0.0","230150","pvtd02ve3uz","mus","frog","22","female","yes","yes","1","2","431","stimuli/pictures/flute_metal_2.jpg","1","1","","true","yes","sound","stimuli/sounds/flute_label_A.wav",""
"","","","","","audio-keyboard-response","237","2.0.0","231152","pvtd02ve3uz","mus","frog","22","female","yes","yes","1","2","null","stimuli/sounds/bleep.wav","null","","","","","","",""
"","","","","","html-keyboard-response","238","2.0.0","231546","pvtd02ve3uz","mus","frog","22","female","yes","yes","1","2","290","<div style=""font-size:30px;"">Press space to start the trial</div>"," ","","","","","","",""
"","","","","","html-keyboard-response","239","2.0.0","231799","pvtd02ve3uz","mus","frog","22","female","yes","yes","1","2","null","<div style=""font-size:60px;"">+</div>","null","","","","","","",""
"","","","","","audio-keyboard-response","240","2.0.0","232397","pvtd02ve3uz","mus","frog","22","female","yes","yes","1","2","null","stimuli/sounds/bird_label_A.wav","null","","","","","","",""
"","","","","","html-keyboard-response","241","2.0.0","233400","pvtd02ve3uz","mus","frog","22","female","yes","yes","1","2","null","","null","","","","","","",""
"","","","","","image-keyboard-response","242","2.0.0","234005","pvtd02ve3uz","mus","frog","22","female","yes","yes","1","2","604","stimuli/pictures/flute_metal_2.jpg","1","0","","false","no","sound","stimuli/sounds/bird_label_A.wav",""
"","","","","","audio-keyboard-response","243","2.0.0","235008","pvtd02ve3uz","mus","frog","22","female","yes","yes","1","2","null","stimuli/sounds/buzz.wav","null","","","","","","",""
"","","","","","html-keyboard-response","244","2.0.0","236297","pvtd02ve3uz","mus","frog","22","female","yes","yes","1","2","1186","<div style=""font-size:30px;"">Press space to start the trial</div>"," ","","","","","","",""
"","","","","","html-keyboard-response","245","2.0.0","236549","pvtd02ve3uz","mus","frog","22","female","yes","yes","1","2","null","<div style=""font-size:60px;"">+</div>","null","","","","","","",""
"","","","","","audio-keyboard-response","246","2.0.0","237158","pvtd02ve3uz","mus","frog","22","female","yes","yes","1","2","null","stimuli/sounds/flute_sound_B.wav","null","","","","","","",""
"","","","","","html-keyboard-response","247","2.0.0","238160","pvtd02ve3uz","mus","frog","22","female","yes","yes","1","2","null","","null","","","","","","",""
"","","","","","image-keyboard-response","248","2.0.0","239539","pvtd02ve3uz","mus","frog","22","female","yes","yes","1","2","1376","stimuli/pictures/bird_song_2.jpg","0","0","","true","no","sound","stimuli/sounds/flute_sound_B.wav",""
"","","","","","audio-keyboard-response","249","2.0.0","240542","pvtd02ve3uz","mus","frog","22","female","yes","yes","1","2","null","stimuli/sounds/bleep.wav","null","","","","","","",""
"","","","","","html-keyboard-response","250","2.0.0","241188","pvtd02ve3uz","mus","frog","22","female","yes","yes","1","2","544","<div style=""font-size:30px;"">Press space to start the trial</div>"," ","","","","","","",""
"","","","","","html-keyboard-response","251","2.0.0","241441","pvtd02ve3uz","mus","frog","22","female","yes","yes","1","2","null","<div style=""font-size:60px;"">+</div>","null","","","","","","",""
"","","","","","audio-keyboard-response","252","2.0.0","242040","pvtd02ve3uz","mus","frog","22","female","yes","yes","1","2","null","stimuli/sounds/bird_sound_A.wav","null","","","","","","",""
"","","","","","html-keyboard-response","253","2.0.0","243042","pvtd02ve3uz","mus","frog","22","female","yes","yes","1","2","null","","null","","","","","","",""
"","","","","","image-keyboard-response","254","2.0.0","243607","pvtd02ve3uz","mus","frog","22","female","yes","yes","1","2","563","stimuli/pictures/piano_grand_1.jpg","0","0","","true","no","sound","stimuli/sounds/bird_sound_A.wav",""
"","","","","","audio-keyboard-response","255","2.0.0","244610","pvtd02ve3uz","mus","frog","22","female","yes","yes","1","2","null","stimuli/sounds/bleep.wav","null","","","","","","",""
"","","","","","html-keyboard-response","256","2.0.0","245048","pvtd02ve3uz","mus","frog","22","female","yes","yes","1","2","335","<div style=""font-size:30px;"">Press space to start the trial</div>"," ","","","","","","",""
"","","","","","html-keyboard-response","257","2.0.0","245300","pvtd02ve3uz","mus","frog","22","female","yes","yes","1","2","null","<div style=""font-size:60px;"">+</div>","null","","","","","","",""
"","","","","","audio-keyboard-response","258","2.0.0","245909","pvtd02ve3uz","mus","frog","22","female","yes","yes","1","2","null","stimuli/sounds/flute_label_A.wav","null","","","","","","",""
"","","","","","html-keyboard-response","259","2.0.0","246911","pvtd02ve3uz","mus","frog","22","female","yes","yes","1","2","null","","null","","","","","","",""
"","","","","","image-keyboard-response","260","2.0.0","247772","pvtd02ve3uz","mus","frog","22","female","yes","yes","1","2","858","stimuli/pictures/piano_grand_1.jpg","0","0","","true","no","sound","stimuli/sounds/flute_label_A.wav",""
"","","","","","audio-keyboard-response","261","2.0.0","248775","pvtd02ve3uz","mus","frog","22","female","yes","yes","1","2","null","stimuli/sounds/bleep.wav","null","","","","","","",""
"","","","","","html-keyboard-response","262","2.0.0","249323","pvtd02ve3uz","mus","frog","22","female","yes","yes","1","2","445","<div style=""font-size:30px;"">Press space to start the trial</div>"," ","","","","","","",""
"","","","","","html-keyboard-response","263","2.0.0","249575","pvtd02ve3uz","mus","frog","22","female","yes","yes","1","2","null","<div style=""font-size:60px;"">+</div>","null","","","","","","",""
"","","","","","audio-keyboard-response","264","2.0.0","250183","pvtd02ve3uz","mus","frog","22","female","yes","yes","1","2","null","stimuli/sounds/flute_sound_B.wav","null","","","","","","",""
"","","","","","html-keyboard-response","265","2.0.0","251187","pvtd02ve3uz","mus","frog","22","female","yes","yes","1","2","null","","null","","","","","","",""
"","","","","","image-keyboard-response","266","2.0.0","252414","pvtd02ve3uz","mus","frog","22","female","yes","yes","1","2","1225","stimuli/pictures/bird_song_1.jpg","0","0","","true","no","sound","stimuli/sounds/flute_sound_B.wav",""
"","","","","","audio-keyboard-response","267","2.0.0","253416","pvtd02ve3uz","mus","frog","22","female","yes","yes","1","2","null","stimuli/sounds/bleep.wav","null","","","","","","",""
"","","","","","html-keyboard-response","268","2.0.0","255072","pvtd02ve3uz","mus","frog","22","female","yes","yes","1","2","1554","<p>You have completed a block. Press R when you are ready to continue</p>","r","","","","","","",""
"","","","","","html-keyboard-response","269","2.0.0","259166","pvtd02ve3uz","mus","frog","22","female","yes","yes","1","2","4093","<div style=""font-size:30px;"">Press space to start the trial</div>"," ","","","","","","",""
"","","","","","html-keyboard-response","270","2.0.0","259417","pvtd02ve3uz","mus","frog","22","female","yes","yes","1","2","null","<div style=""font-size:60px;"">+</div>","null","","","","","","",""
"","","","","","audio-keyboard-response","271","2.0.0","260018","pvtd02ve3uz","mus","frog","22","female","yes","yes","1","2","null","stimuli/sounds/drum_label_A.wav","null","","","","","","",""
"","","","","","html-keyboard-response","272","2.0.0","261020","pvtd02ve3uz","mus","frog","22","female","yes","yes","1","2","null","","null","","","","","","",""
"","","","","","image-keyboard-response","273","2.0.0","282384","pvtd02ve3uz","mus","frog","22","female","yes","yes","1","2","21362","stimuli/pictures/drum_kit_2.jpg","0","1","","false","yes","sound","stimuli/sounds/drum_label_A.wav",""
"","","","","","audio-keyboard-response","274","2.0.0","283386","pvtd02ve3uz","mus","frog","22","female","yes","yes","1","2","null","stimuli/sounds/buzz.wav","null","","","","","","",""
"","","","","","html-keyboard-response","275","2.0.0","284309","pvtd02ve3uz","mus","frog","22","female","yes","yes","1","2","819","<div style=""font-size:30px;"">Press space to start the trial</div>"," ","","","","","","",""
"","","","","","html-keyboard-response","276","2.0.0","284561","pvtd02ve3uz","mus","frog","22","female","yes","yes","1","2","null","<div style=""font-size:60px;"">+</div>","null","","","","","","",""
"","","","","","audio-keyboard-response","277","2.0.0","285160","pvtd02ve3uz","mus","frog","22","female","yes","yes","1","2","null","stimuli/sounds/flute_sound_A.wav","null","","","","","","",""
"","","","","","html-keyboard-response","278","2.0.0","286163","pvtd02ve3uz","mus","frog","22","female","yes","yes","1","2","null","","null","","","","","","",""
"","","","","","image-keyboard-response","279","2.0.0","288055","pvtd02ve3uz","mus","frog","22","female","yes","yes","1","2","1890","stimuli/pictures/flute_metal_2.jpg","1","1","","true","yes","sound","stimuli/sounds/flute_sound_A.wav",""
"","","","","","audio-keyboard-response","280","2.0.0","289057","pvtd02ve3uz","mus","frog","22","female","yes","yes","1","2","null","stimuli/sounds/bleep.wav","null","","","","","","",""
"","","","","","html-keyboard-response","281","2.0.0","290039","pvtd02ve3uz","mus","frog","22","female","yes","yes","1","2","880","<div style=""font-size:30px;"">Press space to start the trial</div>"," ","","","","","","",""
"","","","","","html-keyboard-response","282","2.0.0","290293","pvtd02ve3uz","mus","frog","22","female","yes","yes","1","2","null","<div style=""font-size:60px;"">+</div>","null","","","","","","",""
"","","","","","audio-keyboard-response","283","2.0.0","290916","pvtd02ve3uz","mus","frog","22","female","yes","yes","1","2","null","stimuli/sounds/piano_label_A.wav","null","","","","","","",""
"","","","","","html-keyboard-response","284","2.0.0","291919","pvtd02ve3uz","mus","frog","22","female","yes","yes","1","2","null","","null","","","","","","",""
"","","","","","image-keyboard-response","285","2.0.0","292736","pvtd02ve3uz","mus","frog","22","female","yes","yes","1","2","815","stimuli/pictures/piano_electric_1.jpg","1","1","","true","yes","sound","stimuli/sounds/piano_label_A.wav",""
"","","","","","audio-keyboard-response","286","2.0.0","293739","pvtd02ve3uz","mus","frog","22","female","yes","yes","1","2","null","stimuli/sounds/bleep.wav","null","","","","","","",""
"","","","","","html-keyboard-response","287","2.0.0","294440","pvtd02ve3uz","mus","frog","22","female","yes","yes","1","2","598","<div style=""font-size:30px;"">Press space to start the trial</div>"," ","","","","","","",""
"","","","","","html-keyboard-response","288","2.0.0","294693","pvtd02ve3uz","mus","frog","22","female","yes","yes","1","2","null","<div style=""font-size:60px;"">+</div>","null","","","","","","",""
"","","","","","audio-keyboard-response","289","2.0.0","295295","pvtd02ve3uz","mus","frog","22","female","yes","yes","1","2","null","stimuli/sounds/phone_sound_B.wav","null","","","","","","",""
"","","","","","html-keyboard-response","290","2.0.0","296298","pvtd02ve3uz","mus","frog","22","female","yes","yes","1","2","null","","null","","","","","","",""
"","","","","","image-keyboard-response","291","2.0.0","297308","pvtd02ve3uz","mus","frog","22","female","yes","yes","1","2","1008","stimuli/pictures/phone_cell_1.jpg","1","1","","true","no","sound","stimuli/sounds/phone_sound_B.wav",""
"","","","","","audio-keyboard-response","292","2.0.0","298310","pvtd02ve3uz","mus","frog","22","female","yes","yes","1","2","null","stimuli/sounds/bleep.wav","null","","","","","","",""
"","","","","","html-keyboard-response","293","2.0.0","298973","pvtd02ve3uz","mus","frog","22","female","yes","yes","1","2","560","<div style=""font-size:30px;"">Press space to start the trial</div>"," ","","","","","","",""
"","","","","","html-keyboard-response","294","2.0.0","299226","pvtd02ve3uz","mus","frog","22","female","yes","yes","1","2","null","<div style=""font-size:60px;"">+</div>","null","","","","","","",""
"","","","","","audio-keyboard-response","295","2.0.0","299824","pvtd02ve3uz","mus","frog","22","female","yes","yes","1","2","null","stimuli/sounds/phone_label_B.wav","null","","","","","","",""
"","","","","","html-keyboard-response","296","2.0.0","300827","pvtd02ve3uz","mus","frog","22","female","yes","yes","1","2","null","","null","","","","","","",""
"","","","","","image-keyboard-response","297","2.0.0","301544","pvtd02ve3uz","mus","frog","22","female","yes","yes","1","2","715","stimuli/pictures/flute_wooden_2.jpg","0","0","","true","no","sound","stimuli/sounds/phone_label_B.wav",""
"","","","","","audio-keyboard-response","298","2.0.0","302547","pvtd02ve3uz","mus","frog","22","female","yes","yes","1","2","null","stimuli/sounds/bleep.wav","null","","","","","","",""
"","","","","","html-keyboard-response","299","2.0.0","303357","pvtd02ve3uz","mus","frog","22","female","yes","yes","1","2","707","<div style=""font-size:30px;"">Press space to start the trial</div>"," ","","","","","","",""
"","","","","","html-keyboard-response","300","2.0.0","303610","pvtd02ve3uz","mus","frog","22","female","yes","yes","1","2","null","<div style=""font-size:60px;"">+</div>","null","","","","","","",""
"","","","","","audio-keyboard-response","301","2.0.0","304214","pvtd02ve3uz","mus","frog","22","female","yes","yes","1","2","null","stimuli/sounds/drum_label_A.wav","null","","","","","","",""
"","","","","","html-keyboard-response","302","2.0.0","305217","pvtd02ve3uz","mus","frog","22","female","yes","yes","1","2","null","","null","","","","","","",""
"","","","","","image-keyboard-response","303","2.0.0","305719","pvtd02ve3uz","mus","frog","22","female","yes","yes","1","2","500","stimuli/pictures/bird_song_2.jpg","0","0","","true","no","sound","stimuli/sounds/drum_label_A.wav",""
"","","","","","audio-keyboard-response","304","2.0.0","306722","pvtd02ve3uz","mus","frog","22","female","yes","yes","1","2","null","stimuli/sounds/bleep.wav","null","","","","","","",""
"","","","","","html-keyboard-response","305","2.0.0","308239","pvtd02ve3uz","mus","frog","22","female","yes","yes","1","2","1414","<div style=""font-size:30px;"">Press space to start the trial</div>"," ","","","","","","",""
"","","","","","html-keyboard-response","306","2.0.0","308491","pvtd02ve3uz","mus","frog","22","female","yes","yes","1","2","null","<div style=""font-size:60px;"">+</div>","null","","","","","","",""
"","","","","","audio-keyboard-response","307","2.0.0","309097","pvtd02ve3uz","mus","frog","22","female","yes","yes","1","2","null","stimuli/sounds/bird_sound_A.wav","null","","","","","","",""
"","","","","","html-keyboard-response","308","2.0.0","310099","pvtd02ve3uz","mus","frog","22","female","yes","yes","1","2","null","","null","","","","","","",""
"","","","","","image-keyboard-response","309","2.0.0","310612","pvtd02ve3uz","mus","frog","22","female","yes","yes","1","2","511","stimuli/pictures/piano_electric_2.jpg","0","0","","true","no","sound","stimuli/sounds/bird_sound_A.wav",""
"","","","","","audio-keyboard-response","310","2.0.0","311615","pvtd02ve3uz","mus","frog","22","female","yes","yes","1","2","null","stimuli/sounds/bleep.wav","null","","","","","","",""
"","","","","","html-keyboard-response","311","2.0.0","312602","pvtd02ve3uz","mus","frog","22","female","yes","yes","1","2","885","<div style=""font-size:30px;"">Press space to start the trial</div>"," ","","","","","","",""
"","","","","","html-keyboard-response","312","2.0.0","312855","pvtd02ve3uz","mus","frog","22","female","yes","yes","1","2","null","<div style=""font-size:60px;"">+</div>","null","","","","","","",""
"","","","","","audio-keyboard-response","313","2.0.0","313481","pvtd02ve3uz","mus","frog","22","female","yes","yes","1","2","null","stimuli/sounds/piano_label_A.wav","null","","","","","","",""
"","","","","","html-keyboard-response","314","2.0.0","314484","pvtd02ve3uz","mus","frog","22","female","yes","yes","1","2","null","","null","","","","","","",""
"","","","","","image-keyboard-response","315","2.0.0","316589","pvtd02ve3uz","mus","frog","22","female","yes","yes","1","2","2103","stimuli/pictures/phone_rotary_1.jpg","0","0","","true","no","sound","stimuli/sounds/piano_label_A.wav",""
"","","","","","audio-keyboard-response","316","2.0.0","317592","pvtd02ve3uz","mus","frog","22","female","yes","yes","1","2","null","stimuli/sounds/bleep.wav","null","","","","","","",""
"","","","","","html-keyboard-response","317","2.0.0","318156","pvtd02ve3uz","mus","frog","22","female","yes","yes","1","2","461","<div style=""font-size:30px;"">Press space to start the trial</div>"," ","","","","","","",""
"","","","","","html-keyboard-response","318","2.0.0","318409","pvtd02ve3uz","mus","frog","22","female","yes","yes","1","2","null","<div style=""font-size:60px;"">+</div>","null","","","","","","",""
"","","","","","audio-keyboard-response","319","2.0.0","319018","pvtd02ve3uz","mus","frog","22","female","yes","yes","1","2","null","stimuli/sounds/drum_label_B.wav","null","","","","","","",""
"","","","","","html-keyboard-response","320","2.0.0","320020","pvtd02ve3uz","mus","frog","22","female","yes","yes","1","2","null","","null","","","","","","",""
"","","","","","image-keyboard-response","321","2.0.0","320802","pvtd02ve3uz","mus","frog","22","female","yes","yes","1","2","779","stimuli/pictures/piano_grand_1.jpg","0","0","","true","no","sound","stimuli/sounds/drum_label_B.wav",""
"","","","","","audio-keyboard-response","322","2.0.0","321805","pvtd02ve3uz","mus","frog","22","female","yes","yes","1","2","null","stimuli/sounds/bleep.wav","null","","","","","","",""
"","","","","","html-keyboard-response","323","2.0.0","322340","pvtd02ve3uz","mus","frog","22","female","yes","yes","1","2","433","<div style=""font-size:30px;"">Press space to start the trial</div>"," ","","","","","","",""
"","","","","","html-keyboard-response","324","2.0.0","322593","pvtd02ve3uz","mus","frog","22","female","yes","yes","1","2","null","<div style=""font-size:60px;"">+</div>","null","","","","","","",""
"","","","","","audio-keyboard-response","325","2.0.0","323194","pvtd02ve3uz","mus","frog","22","female","yes","yes","1","2","null","stimuli/sounds/piano_label_B.wav","null","","","","","","",""
"","","","","","html-keyboard-response","326","2.0.0","324196","pvtd02ve3uz","mus","frog","22","female","yes","yes","1","2","null","","null","","","","","","",""
"","","","","","image-keyboard-response","327","2.0.0","324690","pvtd02ve3uz","mus","frog","22","female","yes","yes","1","2","492","stimuli/pictures/bird_hawk_1.jpg","0","0","","true","no","sound","stimuli/sounds/piano_label_B.wav",""
"","","","","","audio-keyboard-response","328","2.0.0","325693","pvtd02ve3uz","mus","frog","22","female","yes","yes","1","2","null","stimuli/sounds/bleep.wav","null","","","","","","",""
"","","","","","html-keyboard-response","329","2.0.0","326123","pvtd02ve3uz","mus","frog","22","female","yes","yes","1","2","327","<div style=""font-size:30px;"">Press space to start the trial</div>"," ","","","","","","",""
"","","","","","html-keyboard-response","330","2.0.0","326376","pvtd02ve3uz","mus","frog","22","female","yes","yes","1","2","null","<div style=""font-size:60px;"">+</div>","null","","","","","","",""
"","","","","","audio-keyboard-response","331","2.0.0","326981","pvtd02ve3uz","mus","frog","22","female","yes","yes","1","2","null","stimuli/sounds/flute_sound_A.wav","null","","","","","","",""
"","","","","","html-keyboard-response","332","2.0.0","327985","pvtd02ve3uz","mus","frog","22","female","yes","yes","1","2","null","","null","","","","","","",""
"","","","","","image-keyboard-response","333","2.0.0","328607","pvtd02ve3uz","mus","frog","22","female","yes","yes","1","2","620","stimuli/pictures/phone_rotary_1.jpg","0","0","","true","no","sound","stimuli/sounds/flute_sound_A.wav",""
"","","","","","audio-keyboard-response","334","2.0.0","329610","pvtd02ve3uz","mus","frog","22","female","yes","yes","1","2","null","stimuli/sounds/bleep.wav","null","","","","","","",""
"","","","","","html-keyboard-response","335","2.0.0","330024","pvtd02ve3uz","mus","frog","22","female","yes","yes","1","2","311","<div style=""font-size:30px;"">Press space to start the trial</div>"," ","","","","","","",""
"","","","","","html-keyboard-response","336","2.0.0","330277","pvtd02ve3uz","mus","frog","22","female","yes","yes","1","2","null","<div style=""font-size:60px;"">+</div>","null","","","","","","",""
"","","","","","audio-keyboard-response","337","2.0.0","330879","pvtd02ve3uz","mus","frog","22","female","yes","yes","1","2","null","stimuli/sounds/drum_label_B.wav","null","","","","","","",""
"","","","","","html-keyboard-response","338","2.0.0","331881","pvtd02ve3uz","mus","frog","22","female","yes","yes","1","2","null","","null","","","","","","",""
"","","","","","image-keyboard-response","339","2.0.0","332774","pvtd02ve3uz","mus","frog","22","female","yes","yes","1","2","890","stimuli/pictures/drum_kit_2.jpg","1","1","","true","yes","sound","stimuli/sounds/drum_label_B.wav",""
"","","","","","audio-keyboard-response","340","2.0.0","333777","pvtd02ve3uz","mus","frog","22","female","yes","yes","1","2","null","stimuli/sounds/bleep.wav","null","","","","","","",""
"","","","","","html-keyboard-response","341","2.0.0","334157","pvtd02ve3uz","mus","frog","22","female","yes","yes","1","2","277","<div style=""font-size:30px;"">Press space to start the trial</div>"," ","","","","","","",""
"","","","","","html-keyboard-response","342","2.0.0","334410","pvtd02ve3uz","mus","frog","22","female","yes","yes","1","2","null","<div style=""font-size:60px;"">+</div>","null","","","","","","",""
"","","","","","audio-keyboard-response","343","2.0.0","335009","pvtd02ve3uz","mus","frog","22","female","yes","yes","1","2","null","stimuli/sounds/phone_sound_B.wav","null","","","","","","",""
"","","","","","html-keyboard-response","344","2.0.0","336011","pvtd02ve3uz","mus","frog","22","female","yes","yes","1","2","null","","null","","","","","","",""
"","","","","","image-keyboard-response","345","2.0.0","336579","pvtd02ve3uz","mus","frog","22","female","yes","yes","1","2","566","stimuli/pictures/piano_grand_1.jpg","0","0","","true","no","sound","stimuli/sounds/phone_sound_B.wav",""
"","","","","","audio-keyboard-response","346","2.0.0","337582","pvtd02ve3uz","mus","frog","22","female","yes","yes","1","2","null","stimuli/sounds/bleep.wav","null","","","","","","",""
"","","","","","html-keyboard-response","347","2.0.0","338290","pvtd02ve3uz","mus","frog","22","female","yes","yes","1","2","605","<div style=""font-size:30px;"">Press space to start the trial</div>"," ","","","","","","",""
"","","","","","html-keyboard-response","348","2.0.0","338542","pvtd02ve3uz","mus","frog","22","female","yes","yes","1","2","null","<div style=""font-size:60px;"">+</div>","null","","","","","","",""
"","","","","","audio-keyboard-response","349","2.0.0","339173","pvtd02ve3uz","mus","frog","22","female","yes","yes","1","2","null","stimuli/sounds/piano_label_A.wav","null","","","","","","",""
"","","","","","html-keyboard-response","350","2.0.0","340176","pvtd02ve3uz","mus","frog","22","female","yes","yes","1","2","null","","null","","","","","","",""
"","","","","","image-keyboard-response","351","2.0.0","340668","pvtd02ve3uz","mus","frog","22","female","yes","yes","1","2","490","stimuli/pictures/piano_grand_2.jpg","1","1","","true","yes","sound","stimuli/sounds/piano_label_A.wav",""
"","","","","","audio-keyboard-response","352","2.0.0","341671","pvtd02ve3uz","mus","frog","22","female","yes","yes","1","2","null","stimuli/sounds/bleep.wav","null","","","","","","",""
"","","","","","html-keyboard-response","353","2.0.0","342074","pvtd02ve3uz","mus","frog","22","female","yes","yes","1","2","300","<div style=""font-size:30px;"">Press space to start the trial</div>"," ","","","","","","",""
"","","","","","html-keyboard-response","354","2.0.0","342326","pvtd02ve3uz","mus","frog","22","female","yes","yes","1","2","null","<div style=""font-size:60px;"">+</div>","null","","","","","","",""
"","","","","","audio-keyboard-response","355","2.0.0","342932","pvtd02ve3uz","mus","frog","22","female","yes","yes","1","2","null","stimuli/sounds/flute_sound_B.wav","null","","","","","","",""
"","","","","","html-keyboard-response","356","2.0.0","343934","pvtd02ve3uz","mus","frog","22","female","yes","yes","1","2","null","","null","","","","","","",""
"","","","","","image-keyboard-response","357","2.0.0","344394","pvtd02ve3uz","mus","frog","22","female","yes","yes","1","2","458","stimuli/pictures/bird_hawk_1.jpg","0","0","","true","no","sound","stimuli/sounds/flute_sound_B.wav",""
"","","","","","audio-keyboard-response","358","2.0.0","345397","pvtd02ve3uz","mus","frog","22","female","yes","yes","1","2","null","stimuli/sounds/bleep.wav","null","","","","","","",""
"","","","","","html-keyboard-response","359","2.0.0","345992","pvtd02ve3uz","mus","frog","22","female","yes","yes","1","2","493","<div style=""font-size:30px;"">Press space to start the trial</div>"," ","","","","","","",""
"","","","","","html-keyboard-response","360","2.0.0","346244","pvtd02ve3uz","mus","frog","22","female","yes","yes","1","2","null","<div style=""font-size:60px;"">+</div>","null","","","","","","",""
"","","","","","audio-keyboard-response","361","2.0.0","346853","pvtd02ve3uz","mus","frog","22","female","yes","yes","1","2","null","stimuli/sounds/piano_sound_B.wav","null","","","","","","",""
"","","","","","html-keyboard-response","362","2.0.0","347855","pvtd02ve3uz","mus","frog","22","female","yes","yes","1","2","null","","null","","","","","","",""
"","","","","","image-keyboard-response","363","2.0.0","348542","pvtd02ve3uz","mus","frog","22","female","yes","yes","1","2","684","stimuli/pictures/flute_wooden_1.jpg","0","0","","true","no","sound","stimuli/sounds/piano_sound_B.wav",""
"","","","","","audio-keyboard-response","364","2.0.0","349545","pvtd02ve3uz","mus","frog","22","female","yes","yes","1","2","null","stimuli/sounds/bleep.wav","null","","","","","","",""
"","","","","","html-keyboard-response","365","2.0.0","350115","pvtd02ve3uz","mus","frog","22","female","yes","yes","1","2","467","<div style=""font-size:30px;"">Press space to start the trial</div>"," ","","","","","","",""
"","","","","","html-keyboard-response","366","2.0.0","350368","pvtd02ve3uz","mus","frog","22","female","yes","yes","1","2","null","<div style=""font-size:60px;"">+</div>","null","","","","","","",""
"","","","","","audio-keyboard-response","367","2.0.0","350971","pvtd02ve3uz","mus","frog","22","female","yes","yes","1","2","null","stimuli/sounds/bird_label_B.wav","null","","","","","","",""
"","","","","","html-keyboard-response","368","2.0.0","351973","pvtd02ve3uz","mus","frog","22","female","yes","yes","1","2","null","","null","","","","","","",""
"","","","","","image-keyboard-response","369","2.0.0","352606","pvtd02ve3uz","mus","frog","22","female","yes","yes","1","2","631","stimuli/pictures/phone_cell_2.jpg","0","0","","true","no","sound","stimuli/sounds/bird_label_B.wav",""
"","","","","","audio-keyboard-response","370","2.0.0","353609","pvtd02ve3uz","mus","frog","22","female","yes","yes","1","2","null","stimuli/sounds/bleep.wav","null","","","","","","",""
"","","","","","html-keyboard-response","371","2.0.0","354191","pvtd02ve3uz","mus","frog","22","female","yes","yes","1","2","479","<div style=""font-size:30px;"">Press space to start the trial</div>"," ","","","","","","",""
"","","","","","html-keyboard-response","372","2.0.0","354444","pvtd02ve3uz","mus","frog","22","female","yes","yes","1","2","null","<div style=""font-size:60px;"">+</div>","null","","","","","","",""
"","","","","","audio-keyboard-response","373","2.0.0","355048","pvtd02ve3uz","mus","frog","22","female","yes","yes","1","2","null","stimuli/sounds/piano_sound_A.wav","null","","","","","","",""
"","","","","","html-keyboard-response","374","2.0.0","356051","pvtd02ve3uz","mus","frog","22","female","yes","yes","1","2","null","","null","","","","","","",""
"","","","","","image-keyboard-response","375","2.0.0","356536","pvtd02ve3uz","mus","frog","22","female","yes","yes","1","2","483","stimuli/pictures/piano_electric_2.jpg","1","1","","true","no","sound","stimuli/sounds/piano_sound_A.wav",""
"","","","","","audio-keyboard-response","376","2.0.0","357540","pvtd02ve3uz","mus","frog","22","female","yes","yes","1","2","null","stimuli/sounds/bleep.wav","null","","","","","","",""
"","","","","","html-keyboard-response","377","2.0.0","358363","pvtd02ve3uz","mus","frog","22","female","yes","yes","1","2","720","<div style=""font-size:30px;"">Press space to start the trial</div>"," ","","","","","","",""
"","","","","","html-keyboard-response","378","2.0.0","358615","pvtd02ve3uz","mus","frog","22","female","yes","yes","1","2","null","<div style=""font-size:60px;"">+</div>","null","","","","","","",""
"","","","","","audio-keyboard-response","379","2.0.0","359218","pvtd02ve3uz","mus","frog","22","female","yes","yes","1","2","null","stimuli/sounds/drum_sound_A.wav","null","","","","","","",""
"","","","","","html-keyboard-response","380","2.0.0","360221","pvtd02ve3uz","mus","frog","22","female","yes","yes","1","2","null","","null","","","","","","",""
"","","","","","image-keyboard-response","381","2.0.0","360711","pvtd02ve3uz","mus","frog","22","female","yes","yes","1","2","488","stimuli/pictures/flute_wooden_2.jpg","0","0","","true","no","sound","stimuli/sounds/drum_sound_A.wav",""
"","","","","","audio-keyboard-response","382","2.0.0","361714","pvtd02ve3uz","mus","frog","22","female","yes","yes","1","2","null","stimuli/sounds/bleep.wav","null","","","","","","",""
"","","","","","html-keyboard-response","383","2.0.0","362145","pvtd02ve3uz","mus","frog","22","female","yes","yes","1","2","328","<div style=""font-size:30px;"">Press space to start the trial</div>"," ","","","","","","",""
"","","","","","html-keyboard-response","384","2.0.0","362397","pvtd02ve3uz","mus","frog","22","female","yes","yes","1","2","null","<div style=""font-size:60px;"">+</div>","null","","","","","","",""
"","","","","","audio-keyboard-response","385","2.0.0","363000","pvtd02ve3uz","mus","frog","22","female","yes","yes","1","2","null","stimuli/sounds/bird_sound_A.wav","null","","","","","","",""
"","","","","","html-keyboard-response","386","2.0.0","364003","pvtd02ve3uz","mus","frog","22","female","yes","yes","1","2","null","","null","","","","","","",""
"","","","","","image-keyboard-response","387","2.0.0","364659","pvtd02ve3uz","mus","frog","22","female","yes","yes","1","2","654","stimuli/pictures/bird_hawk_1.jpg","1","1","","true","yes","sound","stimuli/sounds/bird_sound_A.wav",""
"","","","","","audio-keyboard-response","388","2.0.0","365663","pvtd02ve3uz","mus","frog","22","female","yes","yes","1","2","null","stimuli/sounds/bleep.wav","null","","","","","","",""
"","","","","","html-keyboard-response","389","2.0.0","367889","pvtd02ve3uz","mus","frog","22","female","yes","yes","1","2","2124","<p>You have completed a block. Press R when you are ready to continue</p>","r","","","","","","",""
"","","","","","html-keyboard-response","390","2.0.0","369105","pvtd02ve3uz","mus","frog","22","female","yes","yes","1","2","1214","<div style=""font-size:30px;"">Press space to start the trial</div>"," ","","","","","","",""
"","","","","","html-keyboard-response","391","2.0.0","369357","pvtd02ve3uz","mus","frog","22","female","yes","yes","1","2","null","<div style=""font-size:60px;"">+</div>","null","","","","","","",""
"","","","","","audio-keyboard-response","392","2.0.0","369962","pvtd02ve3uz","mus","frog","22","female","yes","yes","1","2","null","stimuli/sounds/phone_sound_B.wav","null","","","","","","",""
"","","","","","html-keyboard-response","393","2.0.0","370964","pvtd02ve3uz","mus","frog","22","female","yes","yes","1","2","null","","null","","","","","","",""
"","","","","","image-keyboard-response","394","2.0.0","371903","pvtd02ve3uz","mus","frog","22","female","yes","yes","1","2","937","stimuli/pictures/piano_electric_2.jpg","0","0","","true","no","sound","stimuli/sounds/phone_sound_B.wav",""
"","","","","","audio-keyboard-response","395","2.0.0","372906","pvtd02ve3uz","mus","frog","22","female","yes","yes","1","2","null","stimuli/sounds/bleep.wav","null","","","","","","",""
"","","","","","html-keyboard-response","396","2.0.0","374041","pvtd02ve3uz","mus","frog","22","female","yes","yes","1","2","1032","<div style=""font-size:30px;"">Press space to start the trial</div>"," ","","","","","","",""
"","","","","","html-keyboard-response","397","2.0.0","374293","pvtd02ve3uz","mus","frog","22","female","yes","yes","1","2","null","<div style=""font-size:60px;"">+</div>","null","","","","","","",""
"","","","","","audio-keyboard-response","398","2.0.0","374902","pvtd02ve3uz","mus","frog","22","female","yes","yes","1","2","null","stimuli/sounds/bird_label_B.wav","null","","","","","","",""
"","","","","","html-keyboard-response","399","2.0.0","375905","pvtd02ve3uz","mus","frog","22","female","yes","yes","1","2","null","","null","","","","","","",""
"","","","","","image-keyboard-response","400","2.0.0","376920","pvtd02ve3uz","mus","frog","22","female","yes","yes","1","2","1012","stimuli/pictures/phone_rotary_1.jpg","0","0","","true","no","sound","stimuli/sounds/bird_label_B.wav",""
"","","","","","audio-keyboard-response","401","2.0.0","377923","pvtd02ve3uz","mus","frog","22","female","yes","yes","1","2","null","stimuli/sounds/bleep.wav","null","","","","","","",""
"","","","","","html-keyboard-response","402","2.0.0","378357","pvtd02ve3uz","mus","frog","22","female","yes","yes","1","2","332","<div style=""font-size:30px;"">Press space to start the trial</div>"," ","","","","","","",""
"","","","","","html-keyboard-response","403","2.0.0","378610","pvtd02ve3uz","mus","frog","22","female","yes","yes","1","2","null","<div style=""font-size:60px;"">+</div>","null","","","","","","",""
"","","","","","audio-keyboard-response","404","2.0.0","379211","pvtd02ve3uz","mus","frog","22","female","yes","yes","1","2","null","stimuli/sounds/flute_sound_A.wav","null","","","","","","",""
"","","","","","html-keyboard-response","405","2.0.0","380214","pvtd02ve3uz","mus","frog","22","female","yes","yes","1","2","null","","null","","","","","","",""
"","","","","","image-keyboard-response","406","2.0.0","382507","pvtd02ve3uz","mus","frog","22","female","yes","yes","1","2","2291","stimuli/pictures/phone_cell_2.jpg","0","0","","true","no","sound","stimuli/sounds/flute_sound_A.wav",""
"","","","","","audio-keyboard-response","407","2.0.0","383510","pvtd02ve3uz","mus","frog","22","female","yes","yes","1","2","null","stimuli/sounds/bleep.wav","null","","","","","","",""
"","","","","","html-keyboard-response","408","2.0.0","384274","pvtd02ve3uz","mus","frog","22","female","yes","yes","1","2","662","<div style=""font-size:30px;"">Press space to start the trial</div>"," ","","","","","","",""
"","","","","","html-keyboard-response","409","2.0.0","384526","pvtd02ve3uz","mus","frog","22","female","yes","yes","1","2","null","<div style=""font-size:60px;"">+</div>","null","","","","","","",""
"","","","","","audio-keyboard-response","410","2.0.0","385136","pvtd02ve3uz","mus","frog","22","female","yes","yes","1","2","null","stimuli/sounds/phone_sound_A.wav","null","","","","","","",""
"","","","","","html-keyboard-response","411","2.0.0","386139","pvtd02ve3uz","mus","frog","22","female","yes","yes","1","2","null","","null","","","","","","",""
"","","","","","image-keyboard-response","412","2.0.0","386747","pvtd02ve3uz","mus","frog","22","female","yes","yes","1","2","606","stimuli/pictures/phone_cell_1.jpg","1","1","","true","yes","sound","stimuli/sounds/phone_sound_A.wav",""
"","","","","","audio-keyboard-response","413","2.0.0","387750","pvtd02ve3uz","mus","frog","22","female","yes","yes","1","2","null","stimuli/sounds/bleep.wav","null","","","","","","",""
"","","","","","html-keyboard-response","414","2.0.0","388181","pvtd02ve3uz","mus","frog","22","female","yes","yes","1","2","328","<div style=""font-size:30px;"">Press space to start the trial</div>"," ","","","","","","",""
"","","","","","html-keyboard-response","415","2.0.0","388433","pvtd02ve3uz","mus","frog","22","female","yes","yes","1","2","null","<div style=""font-size:60px;"">+</div>","null","","","","","","",""
"","","","","","audio-keyboard-response","416","2.0.0","389034","pvtd02ve3uz","mus","frog","22","female","yes","yes","1","2","null","stimuli/sounds/bird_sound_B.wav","null","","","","","","",""
"","","","","","html-keyboard-response","417","2.0.0","390036","pvtd02ve3uz","mus","frog","22","female","yes","yes","1","2","null","","null","","","","","","",""
"","","","","","image-keyboard-response","418","2.0.0","390486","pvtd02ve3uz","mus","frog","22","female","yes","yes","1","2","448","stimuli/pictures/bird_song_2.jpg","1","1","","true","yes","sound","stimuli/sounds/bird_sound_B.wav",""
"","","","","","audio-keyboard-response","419","2.0.0","391489","pvtd02ve3uz","mus","frog","22","female","yes","yes","1","2","null","stimuli/sounds/bleep.wav","null","","","","","","",""
"","","","","","html-keyboard-response","420","2.0.0","391874","pvtd02ve3uz","mus","frog","22","female","yes","yes","1","2","283","<div style=""font-size:30px;"">Press space to start the trial</div>"," ","","","","","","",""
"","","","","","html-keyboard-response","421","2.0.0","392126","pvtd02ve3uz","mus","frog","22","female","yes","yes","1","2","null","<div style=""font-size:60px;"">+</div>","null","","","","","","",""
"","","","","","audio-keyboard-response","422","2.0.0","392729","pvtd02ve3uz","mus","frog","22","female","yes","yes","1","2","null","stimuli/sounds/drum_sound_A.wav","null","","","","","","",""
"","","","","","html-keyboard-response","423","2.0.0","393732","pvtd02ve3uz","mus","frog","22","female","yes","yes","1","2","null","","null","","","","","","",""
"","","","","","image-keyboard-response","424","2.0.0","395048","pvtd02ve3uz","mus","frog","22","female","yes","yes","1","2","1314","stimuli/pictures/flute_metal_2.jpg","0","0","","true","no","sound","stimuli/sounds/drum_sound_A.wav",""
"","","","","","audio-keyboard-response","425","2.0.0","395294","pvtd02ve3uz","mus","frog","22","female","yes","yes","1","2","244","stimuli/sounds/bleep.wav"," ","","","","","","",""
"","","","","","html-keyboard-response","426","2.0.0","395908","pvtd02ve3uz","mus","frog","22","female","yes","yes","1","2","512","<div style=""font-size:30px;"">Press space to start the trial</div>"," ","","","","","","",""
"","","","","","html-keyboard-response","427","2.0.0","396161","pvtd02ve3uz","mus","frog","22","female","yes","yes","1","2","null","<div style=""font-size:60px;"">+</div>","null","","","","","","",""
"","","","","","audio-keyboard-response","428","2.0.0","396766","pvtd02ve3uz","mus","frog","22","female","yes","yes","1","2","null","stimuli/sounds/flute_sound_B.wav","null","","","","","","",""
"","","","","","html-keyboard-response","429","2.0.0","397769","pvtd02ve3uz","mus","frog","22","female","yes","yes","1","2","null","","null","","","","","","",""
"","","","","","image-keyboard-response","430","2.0.0","398171","pvtd02ve3uz","mus","frog","22","female","yes","yes","1","2","401","stimuli/pictures/flute_wooden_1.jpg","1","1","","true","yes","sound","stimuli/sounds/flute_sound_B.wav",""
"","","","","","audio-keyboard-response","431","2.0.0","399174","pvtd02ve3uz","mus","frog","22","female","yes","yes","1","2","null","stimuli/sounds/bleep.wav","null","","","","","","",""
"","","","","","html-keyboard-response","432","2.0.0","399591","pvtd02ve3uz","mus","frog","22","female","yes","yes","1","2","314","<div style=""font-size:30px;"">Press space to start the trial</div>"," ","","","","","","",""
"","","","","","html-keyboard-response","433","2.0.0","399844","pvtd02ve3uz","mus","frog","22","female","yes","yes","1","2","null","<div style=""font-size:60px;"">+</div>","null","","","","","","",""
"","","","","","audio-keyboard-response","434","2.0.0","400443","pvtd02ve3uz","mus","frog","22","female","yes","yes","1","2","null","stimuli/sounds/bird_sound_B.wav","null","","","","","","",""
"","","","","","html-keyboard-response","435","2.0.0","401446","pvtd02ve3uz","mus","frog","22","female","yes","yes","1","2","null","","null","","","","","","",""
"","","","","","image-keyboard-response","436","2.0.0","402375","pvtd02ve3uz","mus","frog","22","female","yes","yes","1","2","927","stimuli/pictures/bird_hawk_1.jpg","1","1","","true","no","sound","stimuli/sounds/bird_sound_B.wav",""
"","","","","","audio-keyboard-response","437","2.0.0","403378","pvtd02ve3uz","mus","frog","22","female","yes","yes","1","2","null","stimuli/sounds/bleep.wav","null","","","","","","",""
"","","","","","html-keyboard-response","438","2.0.0","404012","pvtd02ve3uz","mus","frog","22","female","yes","yes","1","2","532","<div style=""font-size:30px;"">Press space to start the trial</div>"," ","","","","","","",""
"","","","","","html-keyboard-response","439","2.0.0","404264","pvtd02ve3uz","mus","frog","22","female","yes","yes","1","2","null","<div style=""font-size:60px;"">+</div>","null","","","","","","",""
"","","","","","audio-keyboard-response","440","2.0.0","404868","pvtd02ve3uz","mus","frog","22","female","yes","yes","1","2","null","stimuli/sounds/bird_label_B.wav","null","","","","","","",""
"","","","","","html-keyboard-response","441","2.0.0","405871","pvtd02ve3uz","mus","frog","22","female","yes","yes","1","2","null","","null","","","","","","",""
"","","","","","image-keyboard-response","442","2.0.0","407675","pvtd02ve3uz","mus","frog","22","female","yes","yes","1","2","1801","stimuli/pictures/phone_cell_1.jpg","0","0","","true","no","sound","stimuli/sounds/bird_label_B.wav",""
"","","","","","audio-keyboard-response","443","2.0.0","408677","pvtd02ve3uz","mus","frog","22","female","yes","yes","1","2","null","stimuli/sounds/bleep.wav","null","","","","","","",""
"","","","","","html-keyboard-response","444","2.0.0","409066","pvtd02ve3uz","mus","frog","22","female","yes","yes","1","2","285","<div style=""font-size:30px;"">Press space to start the trial</div>"," ","","","","","","",""
"","","","","","html-keyboard-response","445","2.0.0","409319","pvtd02ve3uz","mus","frog","22","female","yes","yes","1","2","null","<div style=""font-size:60px;"">+</div>","null","","","","","","",""
"","","","","","audio-keyboard-response","446","2.0.0","409924","pvtd02ve3uz","mus","frog","22","female","yes","yes","1","2","null","stimuli/sounds/bird_sound_A.wav","null","","","","","","",""
"","","","","","html-keyboard-response","447","2.0.0","410927","pvtd02ve3uz","mus","frog","22","female","yes","yes","1","2","null","","null","","","","","","",""
"","","","","","image-keyboard-response","448","2.0.0","411410","pvtd02ve3uz","mus","frog","22","female","yes","yes","1","2","482","stimuli/pictures/piano_grand_2.jpg","0","0","","true","no","sound","stimuli/sounds/bird_sound_A.wav",""
"","","","","","audio-keyboard-response","449","2.0.0","412413","pvtd02ve3uz","mus","frog","22","female","yes","yes","1","2","null","stimuli/sounds/bleep.wav","null","","","","","","",""
"","","","","","html-keyboard-response","450","2.0.0","412806","pvtd02ve3uz","mus","frog","22","female","yes","yes","1","2","289","<div style=""font-size:30px;"">Press space to start the trial</div>"," ","","","","","","",""
"","","","","","html-keyboard-response","451","2.0.0","413058","pvtd02ve3uz","mus","frog","22","female","yes","yes","1","2","null","<div style=""font-size:60px;"">+</div>","null","","","","","","",""
"","","","","","audio-keyboard-response","452","2.0.0","413660","pvtd02ve3uz","mus","frog","22","female","yes","yes","1","2","null","stimuli/sounds/bird_label_A.wav","null","","","","","","",""
"","","","","","html-keyboard-response","453","2.0.0","414662","pvtd02ve3uz","mus","frog","22","female","yes","yes","1","2","null","","null","","","","","","",""
"","","","","","image-keyboard-response","454","2.0.0","415175","pvtd02ve3uz","mus","frog","22","female","yes","yes","1","2","510","stimuli/pictures/flute_wooden_2.jpg","0","0","","true","no","sound","stimuli/sounds/bird_label_A.wav",""
"","","","","","audio-keyboard-response","455","2.0.0","416178","pvtd02ve3uz","mus","frog","22","female","yes","yes","1","2","null","stimuli/sounds/bleep.wav","null","","","","","","",""
"","","","","","html-keyboard-response","456","2.0.0","416742","pvtd02ve3uz","mus","frog","22","female","yes","yes","1","2","461","<div style=""font-size:30px;"">Press space to start the trial</div>"," ","","","","","","",""
"","","","","","html-keyboard-response","457","2.0.0","416994","pvtd02ve3uz","mus","frog","22","female","yes","yes","1","2","null","<div style=""font-size:60px;"">+</div>","null","","","","","","",""
"","","","","","audio-keyboard-response","458","2.0.0","417598","pvtd02ve3uz","mus","frog","22","female","yes","yes","1","2","null","stimuli/sounds/phone_sound_B.wav","null","","","","","","",""
"","","","","","html-keyboard-response","459","2.0.0","418601","pvtd02ve3uz","mus","frog","22","female","yes","yes","1","2","null","","null","","","","","","",""
"","","","","","image-keyboard-response","460","2.0.0","419126","pvtd02ve3uz","mus","frog","22","female","yes","yes","1","2","523","stimuli/pictures/phone_rotary_1.jpg","1","1","","true","yes","sound","stimuli/sounds/phone_sound_B.wav",""
"","","","","","audio-keyboard-response","461","2.0.0","420129","pvtd02ve3uz","mus","frog","22","female","yes","yes","1","2","null","stimuli/sounds/bleep.wav","null","","","","","","",""
"","","","","","html-keyboard-response","462","2.0.0","420496","pvtd02ve3uz","mus","frog","22","female","yes","yes","1","2","265","<div style=""font-size:30px;"">Press space to start the trial</div>"," ","","","","","","",""
"","","","","","html-keyboard-response","463","2.0.0","420749","pvtd02ve3uz","mus","frog","22","female","yes","yes","1","2","null","<div style=""font-size:60px;"">+</div>","null","","","","","","",""
"","","","","","audio-keyboard-response","464","2.0.0","421351","pvtd02ve3uz","mus","frog","22","female","yes","yes","1","2","null","stimuli/sounds/piano_label_B.wav","null","","","","","","",""
"","","","","","html-keyboard-response","465","2.0.0","422354","pvtd02ve3uz","mus","frog","22","female","yes","yes","1","2","null","","null","","","","","","",""
"","","","","","image-keyboard-response","466","2.0.0","422875","pvtd02ve3uz","mus","frog","22","female","yes","yes","1","2","519","stimuli/pictures/piano_grand_1.jpg","1","1","","true","yes","sound","stimuli/sounds/piano_label_B.wav",""
"","","","","","audio-keyboard-response","467","2.0.0","423878","pvtd02ve3uz","mus","frog","22","female","yes","yes","1","2","null","stimuli/sounds/bleep.wav","null","","","","","","",""
"","","","","","html-keyboard-response","468","2.0.0","424285","pvtd02ve3uz","mus","frog","22","female","yes","yes","1","2","305","<div style=""font-size:30px;"">Press space to start the trial</div>"," ","","","","","","",""
"","","","","","html-keyboard-response","469","2.0.0","424537","pvtd02ve3uz","mus","frog","22","female","yes","yes","1","2","null","<div style=""font-size:60px;"">+</div>","null","","","","","","",""
"","","","","","audio-keyboard-response","470","2.0.0","425145","pvtd02ve3uz","mus","frog","22","female","yes","yes","1","2","null","stimuli/sounds/bird_label_B.wav","null","","","","","","",""
"","","","","","html-keyboard-response","471","2.0.0","426148","pvtd02ve3uz","mus","frog","22","female","yes","yes","1","2","null","","null","","","","","","",""
"","","","","","image-keyboard-response","472","2.0.0","426679","pvtd02ve3uz","mus","frog","22","female","yes","yes","1","2","528","stimuli/pictures/phone_rotary_2.jpg","0","0","","true","no","sound","stimuli/sounds/bird_label_B.wav",""
"","","","","","audio-keyboard-response","473","2.0.0","427682","pvtd02ve3uz","mus","frog","22","female","yes","yes","1","2","null","stimuli/sounds/bleep.wav","null","","","","","","",""
"","","","","","html-keyboard-response","474","2.0.0","428275","pvtd02ve3uz","mus","frog","22","female","yes","yes","1","2","490","<div style=""font-size:30px;"">Press space to start the trial</div>"," ","","","","","","",""
"","","","","","html-keyboard-response","475","2.0.0","428528","pvtd02ve3uz","mus","frog","22","female","yes","yes","1","2","null","<div style=""font-size:60px;"">+</div>","null","","","","","","",""
"","","","","","audio-keyboard-response","476","2.0.0","429130","pvtd02ve3uz","mus","frog","22","female","yes","yes","1","2","null","stimuli/sounds/drum_sound_A.wav","null","","","","","","",""
"","","","","","html-keyboard-response","477","2.0.0","430132","pvtd02ve3uz","mus","frog","22","female","yes","yes","1","2","null","","null","","","","","","",""
"","","","","","image-keyboard-response","478","2.0.0","431017","pvtd02ve3uz","mus","frog","22","female","yes","yes","1","2","883","stimuli/pictures/drum_bongo_1.jpg","1","1","","true","no","sound","stimuli/sounds/drum_sound_A.wav",""
"","","","","","audio-keyboard-response","479","2.0.0","432021","pvtd02ve3uz","mus","frog","22","female","yes","yes","1","2","null","stimuli/sounds/bleep.wav","null","","","","","","",""
"","","","","","html-keyboard-response","480","2.0.0","432559","pvtd02ve3uz","mus","frog","22","female","yes","yes","1","2","437","<div style=""font-size:30px;"">Press space to start the trial</div>"," ","","","","","","",""
"","","","","","html-keyboard-response","481","2.0.0","432812","pvtd02ve3uz","mus","frog","22","female","yes","yes","1","2","null","<div style=""font-size:60px;"">+</div>","null","","","","","","",""
"","","","","","audio-keyboard-response","482","2.0.0","433416","pvtd02ve3uz","mus","frog","22","female","yes","yes","1","2","null","stimuli/sounds/phone_label_B.wav","null","","","","","","",""
"","","","","","html-keyboard-response","483","2.0.0","434418","pvtd02ve3uz","mus","frog","22","female","yes","yes","1","2","null","","null","","","","","","",""
"","","","","","image-keyboard-response","484","2.0.0","434911","pvtd02ve3uz","mus","frog","22","female","yes","yes","1","2","491","stimuli/pictures/phone_rotary_1.jpg","1","1","","true","yes","sound","stimuli/sounds/phone_label_B.wav",""
"","","","","","audio-keyboard-response","485","2.0.0","435914","pvtd02ve3uz","mus","frog","22","female","yes","yes","1","2","null","stimuli/sounds/bleep.wav","null","","","","","","",""
"","","","","","html-keyboard-response","486","2.0.0","436808","pvtd02ve3uz","mus","frog","22","female","yes","yes","1","2","792","<div style=""font-size:30px;"">Press space to start the trial</div>"," ","","","","","","",""
"","","","","","html-keyboard-response","487","2.0.0","437061","pvtd02ve3uz","mus","frog","22","female","yes","yes","1","2","null","<div style=""font-size:60px;"">+</div>","null","","","","","","",""
"","","","","","audio-keyboard-response","488","2.0.0","437667","pvtd02ve3uz","mus","frog","22","female","yes","yes","1","2","null","stimuli/sounds/piano_label_B.wav","null","","","","","","",""
"","","","","","html-keyboard-response","489","2.0.0","438669","pvtd02ve3uz","mus","frog","22","female","yes","yes","1","2","null","","null","","","","","","",""
"","","","","","image-keyboard-response","490","2.0.0","439144","pvtd02ve3uz","mus","frog","22","female","yes","yes","1","2","473","stimuli/pictures/bird_hawk_1.jpg","0","0","","true","no","sound","stimuli/sounds/piano_label_B.wav",""
