"success","timeout","failed_images","failed_audio","failed_video","trial_type","trial_index","plugin_version","time_elapsed","random_id","condition","participant","age","gender_id","mus_exp","inst_exp","years_exp","mus_listening","rt","stimulus","response","correct_response","practice","correct","congruent","sound_type","audio","question_order"
"true","false","[]","[]","[]","preload","0","2.0.0","446","pyq7harcz8f","ono","koala","21","male","no","no","0","4","","","","","","","","","",""
"","","","","","html-keyboard-response","1","2.0.0","1538","pyq7harcz8f","ono","koala","21","male","no","no","0","4","1090","Welcome to the experiment! Press any key to begin."," ","","","","","","",""
"true","","","","","fullscreen","2","null","4046","pyq7harcz8f","ono","koala","21","male","no","no","0","4","1499","","","","","","","","",""
"","","","","","survey-text","3","2.0.0","7315","pyq7harcz8f","ono","koala","21","male","no","no","0","4","3265","","{""participant_id"":""koala""}","","","","","","",""
"","","","","","html-keyboard-response","4","2.0.0","23254","pyq7harcz8f","ono","koala","21","male","no","no","0","4","15938","
    <p> Please use headphones for the duration of the study.</p>
    <p> Within each trial, you will hear a sound and then be presented with an image in the center of your screen.</p>
    <p>Press the <b>'1'</b> key if what you hear <u>matches</u> what you see.</p>
    <p>Press the <b>'0'</b> key if what you hear <u>does not match</u> what you see.</p>
    <p>Try to respond as quickly and accurately as you can.</p>
    <p> Press any key to begin.</p>
    ","Enter","","","","","","",""
"","","","","","html-keyboard-response","5","2.0.0","26393","pyq7harcz8f","ono","koala","21","male","no","no","0","4","3137","
    <div style=""font-size:28px;"">
      <p>You will now complete 4 short practice trials.</p>
      <p>This is just to help you get familiar with the task.</p>
      <p>Press any key to begin.</p>
    </div>
  "," ","","","","","","",""
"","","","","","html-keyboard-response","6","2.0.0","26895","pyq7harcz8f","ono","koala","21","male","no","no","0","4","null","<div style=""font-size:60px;"">+</div>","null","","","","","","",""
"","","","","","audio-keyboard-response","7","2.0.0","27678","pyq7harcz8f","ono","koala","21","male","no","no","0","4","null","stimuli/sounds/guitar_label_A.wav","null","","","","","","",""
"","","","","","image-keyboard-response","8","2.0.0","30058","pyq7harcz8f","ono","koala","21","male","no","no","0","4","2377","stimuli/pictures/guitar_acoustic_1.jpg","1","1","true","true","","","",""
"","","","","","audio-keyboard-response","9","2.0.0","30864","pyq7harcz8f","ono","koala","21","male","no","no","0","4","null","stimuli/sounds/bleep.wav","null","","","","","","",""
"","","","","","html-keyboard-response","10","2.0.0","31570","pyq7harcz8f","ono","koala","21","male","no","no","0","4","null","<p style='color:green; font-size:30px;'>Correct!</p>","null","","","","","","",""
"","","","","","html-keyboard-response","11","2.0.0","32080","pyq7harcz8f","ono","koala","21","male","no","no","0","4","null","<div style=""font-size:60px;"">+</div>","null","","","","","","",""
"","","","","","audio-keyboard-response","12","2.0.0","32678","pyq7harcz8f","ono","koala","21","male","no","no","0","4","null","stimuli/sounds/guitar_sound_B.wav","null","","","","","","",""
"","","","","","image-keyboard-response","13","2.0.0","33555","pyq7harcz8f","ono","koala","21","male","no","no","0","4","876","stimuli/pictures/guitar_acoustic_2.jpg","1","1","true","true","","","",""
"","","","","","audio-keyboard-response","14","2.0.0","34363","pyq7harcz8f","ono","koala","21","male","no","no","0","4","null","stimuli/sounds/bleep.wav","null","","","","","","",""
"","","","","","html-keyboard-response","15","2.0.0","35077","pyq7harcz8f","ono","koala","21","male","no","no","0","4","null","<p style='color:green; font-size:30px;'>Correct!</p>","null","","","","","","",""
"","","","","","html-keyboard-response","16","2.0.0","35589","pyq7harcz8f","ono","koala","21","male","no","no","0","4","null","<div style=""font-size:60px;"">+</div>","null","","","","","","",""
"","","","","","audio-keyboard-response","17","2.0.0","36197","pyq7harcz8f","ono","koala","21","male","no","no","0","4","null","stimuli/sounds/flute_sound_A.wav","null","","","","","","",""
"","","","","","image-keyboard-response","18","2.0.0","37384","pyq7harcz8f","ono","koala","21","male","no","no","0","4","1186","stimuli/pictures/guitar_electric_1.jpg","0","0","true","true","","","",""
"","","","","","audio-keyboard-response","19","2.0.0","38188","pyq7harcz8f","ono","koala","21","male","no","no","0","4","null","stimuli/sounds/bleep.wav","null","","","","","","",""
"","","","","","html-keyboard-response","20","2.0.0","38901","pyq7harcz8f","ono","koala","21","male","no","no","0","4","null","<p style='color:green; font-size:30px;'>Correct!</p>","null","","","","","","",""
"","","","","","html-keyboard-response","21","2.0.0","39403","pyq7harcz8f","ono","koala","21","male","no","no","0","4","null","<div style=""font-size:60px;"">+</div>","null","","","","","","",""
"","","","","","audio-keyboard-response","22","2.0.0","39998","pyq7harcz8f","ono","koala","21","male","no","no","0","4","null","stimuli/sounds/guitar_sound_A.wav","null","","","","","","",""
"","","","","","image-keyboard-response","23","2.0.0","41428","pyq7harcz8f","ono","koala","21","male","no","no","0","4","1428","stimuli/pictures/guitar_acoustic_1.jpg","0","1","true","false","","","",""
"","","","","","audio-keyboard-response","24","2.0.0","42242","pyq7harcz8f","ono","koala","21","male","no","no","0","4","null","stimuli/sounds/buzz.wav","null","","","","","","",""
"","","","","","html-keyboard-response","25","2.0.0","42952","pyq7harcz8f","ono","koala","21","male","no","no","0","4","null","<p style='color:red; font-size:30px;'>Incorrect</p>","null","","","","","","",""
"","","","","","html-keyboard-response","26","2.0.0","44235","pyq7harcz8f","ono","koala","21","male","no","no","0","4","1282","<p>Practice complete. Press any key to begin the real experiment.</p>"," ","","","","","","",""
"","","","","","html-keyboard-response","27","2.0.0","51060","pyq7harcz8f","ono","koala","21","male","no","no","0","4","6825","<div style=""font-size:30px;"">Press space to start the trial</div>"," ","","","","","","",""
"","","","","","html-keyboard-response","28","2.0.0","51314","pyq7harcz8f","ono","koala","21","male","no","no","0","4","null","<div style=""font-size:60px;"">+</div>","null","","","","","","",""
"","","","","","audio-keyboard-response","29","2.0.0","51917","pyq7harcz8f","ono","koala","21","male","no","no","0","4","null","stimuli/sounds/dog_sound_B.wav","null","","","","","","",""
"","","","","","html-keyboard-response","30","2.0.0","52923","pyq7harcz8f","ono","koala","21","male","no","no","0","4","null","","null","","","","","","",""
"","","","","","image-keyboard-response","31","2.0.0","53758","pyq7harcz8f","ono","koala","21","male","no","no","0","4","833","stimuli/pictures/motor_harley_2.jpg","0","0","","true","no","sound","stimuli/sounds/dog_sound_B.wav",""
"","","","","","audio-keyboard-response","32","2.0.0","54774","pyq7harcz8f","ono","koala","21","male","no","no","0","4","null","stimuli/sounds/bleep.wav","null","","","","","","",""
"","","","","","html-keyboard-response","33","2.0.0","58288","pyq7harcz8f","ono","koala","21","male","no","no","0","4","3411","<div style=""font-size:30px;"">Press space to start the trial</div>"," ","","","","","","",""
"","","","","","html-keyboard-response","34","2.0.0","58549","pyq7harcz8f","ono","koala","21","male","no","no","0","4","null","<div style=""font-size:60px;"">+</div>","null","","","","","","",""
"","","","","","audio-keyboard-response","35","2.0.0","59088","pyq7harcz8f","ono","koala","21","male","no","no","0","4","null","stimuli/sounds/hiccup_label_A.wav","null","","","","","","",""
"","","","","","html-keyboard-response","36","2.0.0","60099","pyq7harcz8f","ono","koala","21","male","no","no","0","4","null","","null","","","","","","",""
"","","","","","image-keyboard-response","37","2.0.0","61434","pyq7harcz8f","ono","koala","21","male","no","no","0","4","1333","stimuli/pictures/hiccup_man_1.jpg","0","1","","false","yes","sound","stimuli/sounds/hiccup_label_A.wav",""
"","","","","","audio-keyboard-response","38","2.0.0","62445","pyq7harcz8f","ono","koala","21","male","no","no","0","4","null","stimuli/sounds/buzz.wav","null","","","","","","",""
"","","","","","html-keyboard-response","39","2.0.0","64713","pyq7harcz8f","ono","koala","21","male","no","no","0","4","2157","<div style=""font-size:30px;"">Press space to start the trial</div>"," ","","","","","","",""
"","","","","","html-keyboard-response","40","2.0.0","64967","pyq7harcz8f","ono","koala","21","male","no","no","0","4","null","<div style=""font-size:60px;"">+</div>","null","","","","","","",""
"","","","","","audio-keyboard-response","41","2.0.0","65578","pyq7harcz8f","ono","koala","21","male","no","no","0","4","null","stimuli/sounds/hiccup_sound_A.wav","null","","","","","","",""
"","","","","","html-keyboard-response","42","2.0.0","66593","pyq7harcz8f","ono","koala","21","male","no","no","0","4","null","","null","","","","","","",""
"","","","","","image-keyboard-response","43","2.0.0","67311","pyq7harcz8f","ono","koala","21","male","no","no","0","4","716","stimuli/pictures/motor_dirt_1.jpg","0","0","","true","no","sound","stimuli/sounds/hiccup_sound_A.wav",""
"","","","","","audio-keyboard-response","44","2.0.0","68317","pyq7harcz8f","ono","koala","21","male","no","no","0","4","null","stimuli/sounds/bleep.wav","null","","","","","","",""
"","","","","","html-keyboard-response","45","2.0.0","70803","pyq7harcz8f","ono","koala","21","male","no","no","0","4","2370","<div style=""font-size:30px;"">Press space to start the trial</div>"," ","","","","","","",""
"","","","","","html-keyboard-response","46","2.0.0","71059","pyq7harcz8f","ono","koala","21","male","no","no","0","4","null","<div style=""font-size:60px;"">+</div>","null","","","","","","",""
"","","","","","audio-keyboard-response","47","2.0.0","71658","pyq7harcz8f","ono","koala","21","male","no","no","0","4","null","stimuli/sounds/motor_sound_B.wav","null","","","","","","",""
"","","","","","html-keyboard-response","48","2.0.0","72669","pyq7harcz8f","ono","koala","21","male","no","no","0","4","null","","null","","","","","","",""
"","","","","","image-keyboard-response","49","2.0.0","73794","pyq7harcz8f","ono","koala","21","male","no","no","0","4","1123","stimuli/pictures/motor_dirt_1.jpg","0","1","","false","no","sound","stimuli/sounds/motor_sound_B.wav",""
"","","","","","audio-keyboard-response","50","2.0.0","74809","pyq7harcz8f","ono","koala","21","male","no","no","0","4","null","stimuli/sounds/buzz.wav","null","","","","","","",""
"","","","","","html-keyboard-response","51","2.0.0","76148","pyq7harcz8f","ono","koala","21","male","no","no","0","4","1224","<div style=""font-size:30px;"">Press space to start the trial</div>"," ","","","","","","",""
"","","","","","html-keyboard-response","52","2.0.0","76412","pyq7harcz8f","ono","koala","21","male","no","no","0","4","null","<div style=""font-size:60px;"">+</div>","null","","","","","","",""
"","","","","","audio-keyboard-response","53","2.0.0","77008","pyq7harcz8f","ono","koala","21","male","no","no","0","4","null","stimuli/sounds/motor_sound_A.wav","null","","","","","","",""
"","","","","","html-keyboard-response","54","2.0.0","78009","pyq7harcz8f","ono","koala","21","male","no","no","0","4","null","","null","","","","","","",""
"","","","","","image-keyboard-response","55","2.0.0","78948","pyq7harcz8f","ono","koala","21","male","no","no","0","4","938","stimuli/pictures/drop_single_2.jpg","0","0","","true","no","sound","stimuli/sounds/motor_sound_A.wav",""
"","","","","","audio-keyboard-response","56","2.0.0","79955","pyq7harcz8f","ono","koala","21","male","no","no","0","4","null","stimuli/sounds/bleep.wav","null","","","","","","",""
"","","","","","html-keyboard-response","57","2.0.0","80865","pyq7harcz8f","ono","koala","21","male","no","no","0","4","799","<div style=""font-size:30px;"">Press space to start the trial</div>"," ","","","","","","",""
"","","","","","html-keyboard-response","58","2.0.0","81127","pyq7harcz8f","ono","koala","21","male","no","no","0","4","null","<div style=""font-size:60px;"">+</div>","null","","","","","","",""
"","","","","","audio-keyboard-response","59","2.0.0","81797","pyq7harcz8f","ono","koala","21","male","no","no","0","4","null","stimuli/sounds/cough_sound_A.wav","null","","","","","","",""
"","","","","","html-keyboard-response","60","2.0.0","82812","pyq7harcz8f","ono","koala","21","male","no","no","0","4","null","","null","","","","","","",""
"","","","","","image-keyboard-response","61","2.0.0","83340","pyq7harcz8f","ono","koala","21","male","no","no","0","4","527","stimuli/pictures/cough_wom_2.jpg","1","1","","true","yes","sound","stimuli/sounds/cough_sound_A.wav",""
"","","","","","audio-keyboard-response","62","2.0.0","84352","pyq7harcz8f","ono","koala","21","male","no","no","0","4","null","stimuli/sounds/bleep.wav","null","","","","","","",""
"","","","","","html-keyboard-response","63","2.0.0","85818","pyq7harcz8f","ono","koala","21","male","no","no","0","4","1354","<div style=""font-size:30px;"">Press space to start the trial</div>"," ","","","","","","",""
"","","","","","html-keyboard-response","64","2.0.0","86073","pyq7harcz8f","ono","koala","21","male","no","no","0","4","null","<div style=""font-size:60px;"">+</div>","null","","","","","","",""
"","","","","","audio-keyboard-response","65","2.0.0","86668","pyq7harcz8f","ono","koala","21","male","no","no","0","4","null","stimuli/sounds/dog_label_A.wav","null","","","","","","",""
"","","","","","html-keyboard-response","66","2.0.0","87672","pyq7harcz8f","ono","koala","21","male","no","no","0","4","null","","null","","","","","","",""
"","","","","","image-keyboard-response","67","2.0.0","89567","pyq7harcz8f","ono","koala","21","male","no","no","0","4","1894","stimuli/pictures/drop_multi_1.jpg","0","0","","true","no","sound","stimuli/sounds/dog_label_A.wav",""
"","","","","","audio-keyboard-response","68","2.0.0","90576","pyq7harcz8f","ono","koala","21","male","no","no","0","4","null","stimuli/sounds/bleep.wav","null","","","","","","",""
"","","","","","html-keyboard-response","69","2.0.0","91437","pyq7harcz8f","ono","koala","21","male","no","no","0","4","746","<div style=""font-size:30px;"">Press space to start the trial</div>"," ","","","","","","",""
"","","","","","html-keyboard-response","70","2.0.0","91693","pyq7harcz8f","ono","koala","21","male","no","no","0","4","null","<div style=""font-size:60px;"">+</div>","null","","","","","","",""
"","","","","","audio-keyboard-response","71","2.0.0","92278","pyq7harcz8f","ono","koala","21","male","no","no","0","4","null","stimuli/sounds/drop_sound_A.wav","null","","","","","","",""
"","","","","","html-keyboard-response","72","2.0.0","93279","pyq7harcz8f","ono","koala","21","male","no","no","0","4","null","","null","","","","","","",""
"","","","","","image-keyboard-response","73","2.0.0","93855","pyq7harcz8f","ono","koala","21","male","no","no","0","4","576","stimuli/pictures/drop_multi_1.jpg","1","1","","true","no","sound","stimuli/sounds/drop_sound_A.wav",""
"","","","","","audio-keyboard-response","74","2.0.0","94858","pyq7harcz8f","ono","koala","21","male","no","no","0","4","null","stimuli/sounds/bleep.wav","null","","","","","","",""
"","","","","","html-keyboard-response","75","2.0.0","95788","pyq7harcz8f","ono","koala","21","male","no","no","0","4","817","<div style=""font-size:30px;"">Press space to start the trial</div>"," ","","","","","","",""
"","","","","","html-keyboard-response","76","2.0.0","96039","pyq7harcz8f","ono","koala","21","male","no","no","0","4","null","<div style=""font-size:60px;"">+</div>","null","","","","","","",""
"","","","","","audio-keyboard-response","77","2.0.0","96648","pyq7harcz8f","ono","koala","21","male","no","no","0","4","null","stimuli/sounds/dog_sound_A.wav","null","","","","","","",""
"","","","","","html-keyboard-response","78","2.0.0","97656","pyq7harcz8f","ono","koala","21","male","no","no","0","4","null","","null","","","","","","",""
"","","","","","image-keyboard-response","79","2.0.0","98396","pyq7harcz8f","ono","koala","21","male","no","no","0","4","739","stimuli/pictures/dog_rott_1.jpg","1","1","","true","yes","sound","stimuli/sounds/dog_sound_A.wav",""
"","","","","","audio-keyboard-response","80","2.0.0","99404","pyq7harcz8f","ono","koala","21","male","no","no","0","4","null","stimuli/sounds/bleep.wav","null","","","","","","",""
"","","","","","html-keyboard-response","81","2.0.0","100593","pyq7harcz8f","ono","koala","21","male","no","no","0","4","1077","<div style=""font-size:30px;"">Press space to start the trial</div>"," ","","","","","","",""
"","","","","","html-keyboard-response","82","2.0.0","100848","pyq7harcz8f","ono","koala","21","male","no","no","0","4","null","<div style=""font-size:60px;"">+</div>","null","","","","","","",""
"","","","","","audio-keyboard-response","83","2.0.0","101458","pyq7harcz8f","ono","koala","21","male","no","no","0","4","null","stimuli/sounds/hiccup_label_B.wav","null","","","","","","",""
"","","","","","html-keyboard-response","84","2.0.0","102475","pyq7harcz8f","ono","koala","21","male","no","no","0","4","null","","null","","","","","","",""
"","","","","","image-keyboard-response","85","2.0.0","104539","pyq7harcz8f","ono","koala","21","male","no","no","0","4","2063","stimuli/pictures/hiccup_man_1.jpg","1","1","","true","yes","sound","stimuli/sounds/hiccup_label_B.wav",""
"","","","","","audio-keyboard-response","86","2.0.0","105549","pyq7harcz8f","ono","koala","21","male","no","no","0","4","null","stimuli/sounds/bleep.wav","null","","","","","","",""
"","","","","","html-keyboard-response","87","2.0.0","106275","pyq7harcz8f","ono","koala","21","male","no","no","0","4","613","<div style=""font-size:30px;"">Press space to start the trial</div>"," ","","","","","","",""
"","","","","","html-keyboard-response","88","2.0.0","106539","pyq7harcz8f","ono","koala","21","male","no","no","0","4","null","<div style=""font-size:60px;"">+</div>","null","","","","","","",""
"","","","","","audio-keyboard-response","89","2.0.0","107148","pyq7harcz8f","ono","koala","21","male","no","no","0","4","null","stimuli/sounds/hiccup_sound_A.wav","null","","","","","","",""
"","","","","","html-keyboard-response","90","2.0.0","108159","pyq7harcz8f","ono","koala","21","male","no","no","0","4","null","","null","","","","","","",""
"","","","","","image-keyboard-response","91","2.0.0","108699","pyq7harcz8f","ono","koala","21","male","no","no","0","4","539","stimuli/pictures/hiccup_wom_2.jpg","1","1","","true","yes","sound","stimuli/sounds/hiccup_sound_A.wav",""
"","","","","","audio-keyboard-response","92","2.0.0","109706","pyq7harcz8f","ono","koala","21","male","no","no","0","4","null","stimuli/sounds/bleep.wav","null","","","","","","",""
"","","","","","html-keyboard-response","93","2.0.0","110316","pyq7harcz8f","ono","koala","21","male","no","no","0","4","497","<div style=""font-size:30px;"">Press space to start the trial</div>"," ","","","","","","",""
"","","","","","html-keyboard-response","94","2.0.0","110575","pyq7harcz8f","ono","koala","21","male","no","no","0","4","null","<div style=""font-size:60px;"">+</div>","null","","","","","","",""
"","","","","","audio-keyboard-response","95","2.0.0","111178","pyq7harcz8f","ono","koala","21","male","no","no","0","4","null","stimuli/sounds/drop_sound_B.wav","null","","","","","","",""
"","","","","","html-keyboard-response","96","2.0.0","112188","pyq7harcz8f","ono","koala","21","male","no","no","0","4","null","","null","","","","","","",""
"","","","","","image-keyboard-response","97","2.0.0","112662","pyq7harcz8f","ono","koala","21","male","no","no","0","4","473","stimuli/pictures/drop_single_2.jpg","1","1","","true","no","sound","stimuli/sounds/drop_sound_B.wav",""
"","","","","","audio-keyboard-response","98","2.0.0","113679","pyq7harcz8f","ono","koala","21","male","no","no","0","4","null","stimuli/sounds/bleep.wav","null","","","","","","",""
"","","","","","html-keyboard-response","99","2.0.0","114367","pyq7harcz8f","ono","koala","21","male","no","no","0","4","574","<div style=""font-size:30px;"">Press space to start the trial</div>"," ","","","","","","",""
"","","","","","html-keyboard-response","100","2.0.0","114633","pyq7harcz8f","ono","koala","21","male","no","no","0","4","null","<div style=""font-size:60px;"">+</div>","null","","","","","","",""
"","","","","","audio-keyboard-response","101","2.0.0","115238","pyq7harcz8f","ono","koala","21","male","no","no","0","4","null","stimuli/sounds/hiccup_sound_B.wav","null","","","","","","",""
"","","","","","html-keyboard-response","102","2.0.0","116248","pyq7harcz8f","ono","koala","21","male","no","no","0","4","null","","null","","","","","","",""
"","","","","","image-keyboard-response","103","2.0.0","116906","pyq7harcz8f","ono","koala","21","male","no","no","0","4","657","stimuli/pictures/hiccup_man_1.jpg","1","1","","true","yes","sound","stimuli/sounds/hiccup_sound_B.wav",""
"","","","","","audio-keyboard-response","104","2.0.0","117914","pyq7harcz8f","ono","koala","21","male","no","no","0","4","null","stimuli/sounds/bleep.wav","null","","","","","","",""
"","","","","","html-keyboard-response","105","2.0.0","118846","pyq7harcz8f","ono","koala","21","male","no","no","0","4","819","<div style=""font-size:30px;"">Press space to start the trial</div>"," ","","","","","","",""
"","","","","","html-keyboard-response","106","2.0.0","119099","pyq7harcz8f","ono","koala","21","male","no","no","0","4","null","<div style=""font-size:60px;"">+</div>","null","","","","","","",""
"","","","","","audio-keyboard-response","107","2.0.0","119698","pyq7harcz8f","ono","koala","21","male","no","no","0","4","null","stimuli/sounds/motor_label_B.wav","null","","","","","","",""
"","","","","","html-keyboard-response","108","2.0.0","120706","pyq7harcz8f","ono","koala","21","male","no","no","0","4","null","","null","","","","","","",""
"","","","","","image-keyboard-response","109","2.0.0","121160","pyq7harcz8f","ono","koala","21","male","no","no","0","4","453","stimuli/pictures/hiccup_wom_2.jpg","0","0","","true","no","sound","stimuli/sounds/motor_label_B.wav",""
"","","","","","audio-keyboard-response","110","2.0.0","122176","pyq7harcz8f","ono","koala","21","male","no","no","0","4","null","stimuli/sounds/bleep.wav","null","","","","","","",""
"","","","","","html-keyboard-response","111","2.0.0","122961","pyq7harcz8f","ono","koala","21","male","no","no","0","4","671","<div style=""font-size:30px;"">Press space to start the trial</div>"," ","","","","","","",""
"","","","","","html-keyboard-response","112","2.0.0","123223","pyq7harcz8f","ono","koala","21","male","no","no","0","4","null","<div style=""font-size:60px;"">+</div>","null","","","","","","",""
"","","","","","audio-keyboard-response","113","2.0.0","123818","pyq7harcz8f","ono","koala","21","male","no","no","0","4","null","stimuli/sounds/motor_label_A.wav","null","","","","","","",""
"","","","","","html-keyboard-response","114","2.0.0","124831","pyq7harcz8f","ono","koala","21","male","no","no","0","4","null","","null","","","","","","",""
"","","","","","image-keyboard-response","115","2.0.0","125202","pyq7harcz8f","ono","koala","21","male","no","no","0","4","370","stimuli/pictures/motor_dirt_2.jpg","1","1","","true","yes","sound","stimuli/sounds/motor_label_A.wav",""
"","","","","","audio-keyboard-response","116","2.0.0","126208","pyq7harcz8f","ono","koala","21","male","no","no","0","4","null","stimuli/sounds/bleep.wav","null","","","","","","",""
"","","","","","html-keyboard-response","117","2.0.0","126586","pyq7harcz8f","ono","koala","21","male","no","no","0","4","265","<div style=""font-size:30px;"">Press space to start the trial</div>"," ","","","","","","",""
"","","","","","html-keyboard-response","118","2.0.0","126844","pyq7harcz8f","ono","koala","21","male","no","no","0","4","null","<div style=""font-size:60px;"">+</div>","null","","","","","","",""
"","","","","","audio-keyboard-response","119","2.0.0","127427","pyq7harcz8f","ono","koala","21","male","no","no","0","4","null","stimuli/sounds/drop_sound_A.wav","null","","","","","","",""
"","","","","","html-keyboard-response","120","2.0.0","128432","pyq7harcz8f","ono","koala","21","male","no","no","0","4","null","","null","","","","","","",""
"","","","","","image-keyboard-response","121","2.0.0","128853","pyq7harcz8f","ono","koala","21","male","no","no","0","4","419","stimuli/pictures/drop_single_1.jpg","1","1","","true","yes","sound","stimuli/sounds/drop_sound_A.wav",""
"","","","","","audio-keyboard-response","122","2.0.0","129866","pyq7harcz8f","ono","koala","21","male","no","no","0","4","null","stimuli/sounds/bleep.wav","null","","","","","","",""
"","","","","","html-keyboard-response","123","2.0.0","131715","pyq7harcz8f","ono","koala","21","male","no","no","0","4","1737","<div style=""font-size:30px;"">Press space to start the trial</div>"," ","","","","","","",""
"","","","","","html-keyboard-response","124","2.0.0","131968","pyq7harcz8f","ono","koala","21","male","no","no","0","4","null","<div style=""font-size:60px;"">+</div>","null","","","","","","",""
"","","","","","audio-keyboard-response","125","2.0.0","132567","pyq7harcz8f","ono","koala","21","male","no","no","0","4","null","stimuli/sounds/motor_label_B.wav","null","","","","","","",""
"","","","","","html-keyboard-response","126","2.0.0","133577","pyq7harcz8f","ono","koala","21","male","no","no","0","4","null","","null","","","","","","",""
"","","","","","image-keyboard-response","127","2.0.0","133866","pyq7harcz8f","ono","koala","21","male","no","no","0","4","287","stimuli/pictures/motor_dirt_1.jpg","1","1","","true","yes","sound","stimuli/sounds/motor_label_B.wav",""
"","","","","","audio-keyboard-response","128","2.0.0","134871","pyq7harcz8f","ono","koala","21","male","no","no","0","4","null","stimuli/sounds/bleep.wav","null","","","","","","",""
"","","","","","html-keyboard-response","129","2.0.0","135808","pyq7harcz8f","ono","koala","21","male","no","no","0","4","826","<div style=""font-size:30px;"">Press space to start the trial</div>"," ","","","","","","",""
"","","","","","html-keyboard-response","130","2.0.0","136061","pyq7harcz8f","ono","koala","21","male","no","no","0","4","null","<div style=""font-size:60px;"">+</div>","null","","","","","","",""
"","","","","","audio-keyboard-response","131","2.0.0","136668","pyq7harcz8f","ono","koala","21","male","no","no","0","4","null","stimuli/sounds/hiccup_sound_B.wav","null","","","","","","",""
"","","","","","html-keyboard-response","132","2.0.0","137680","pyq7harcz8f","ono","koala","21","male","no","no","0","4","null","","null","","","","","","",""
"","","","","","image-keyboard-response","133","2.0.0","138444","pyq7harcz8f","ono","koala","21","male","no","no","0","4","762","stimuli/pictures/drop_single_1.jpg","1","0","","false","no","sound","stimuli/sounds/hiccup_sound_B.wav",""
"","","","","","audio-keyboard-response","134","2.0.0","139455","pyq7harcz8f","ono","koala","21","male","no","no","0","4","null","stimuli/sounds/buzz.wav","null","","","","","","",""
"","","","","","html-keyboard-response","135","2.0.0","140497","pyq7harcz8f","ono","koala","21","male","no","no","0","4","930","<div style=""font-size:30px;"">Press space to start the trial</div>"," ","","","","","","",""
"","","","","","html-keyboard-response","136","2.0.0","140755","pyq7harcz8f","ono","koala","21","male","no","no","0","4","null","<div style=""font-size:60px;"">+</div>","null","","","","","","",""
"","","","","","audio-keyboard-response","137","2.0.0","141348","pyq7harcz8f","ono","koala","21","male","no","no","0","4","null","stimuli/sounds/motor_label_B.wav","null","","","","","","",""
"","","","","","html-keyboard-response","138","2.0.0","142364","pyq7harcz8f","ono","koala","21","male","no","no","0","4","null","","null","","","","","","",""
"","","","","","image-keyboard-response","139","2.0.0","142956","pyq7harcz8f","ono","koala","21","male","no","no","0","4","590","stimuli/pictures/motor_harley_2.jpg","1","1","","true","yes","sound","stimuli/sounds/motor_label_B.wav",""
"","","","","","audio-keyboard-response","140","2.0.0","143968","pyq7harcz8f","ono","koala","21","male","no","no","0","4","null","stimuli/sounds/bleep.wav","null","","","","","","",""
"","","","","","html-keyboard-response","141","2.0.0","144925","pyq7harcz8f","ono","koala","21","male","no","no","0","4","843","<div style=""font-size:30px;"">Press space to start the trial</div>"," ","","","","","","",""
"","","","","","html-keyboard-response","142","2.0.0","145177","pyq7harcz8f","ono","koala","21","male","no","no","0","4","null","<div style=""font-size:60px;"">+</div>","null","","","","","","",""
"","","","","","audio-keyboard-response","143","2.0.0","145768","pyq7harcz8f","ono","koala","21","male","no","no","0","4","null","stimuli/sounds/motor_sound_A.wav","null","","","","","","",""
"","","","","","html-keyboard-response","144","2.0.0","146773","pyq7harcz8f","ono","koala","21","male","no","no","0","4","null","","null","","","","","","",""
"","","","","","image-keyboard-response","145","2.0.0","147558","pyq7harcz8f","ono","koala","21","male","no","no","0","4","784","stimuli/pictures/drop_single_1.jpg","1","0","","false","no","sound","stimuli/sounds/motor_sound_A.wav",""
"","","","","","audio-keyboard-response","146","2.0.0","148568","pyq7harcz8f","ono","koala","21","male","no","no","0","4","null","stimuli/sounds/buzz.wav","null","","","","","","",""
"","","","","","html-keyboard-response","147","2.0.0","153384","pyq7harcz8f","ono","koala","21","male","no","no","0","4","4702","<p>You have completed a block. Press R when you are ready to continue</p>","r","","","","","","",""
"","","","","","html-keyboard-response","148","2.0.0","154096","pyq7harcz8f","ono","koala","21","male","no","no","0","4","711","<div style=""font-size:30px;"">Press space to start the trial</div>"," ","","","","","","",""
"","","","","","html-keyboard-response","149","2.0.0","154355","pyq7harcz8f","ono","koala","21","male","no","no","0","4","null","<div style=""font-size:60px;"">+</div>","null","","","","","","",""
"","","","","","audio-keyboard-response","150","2.0.0","154948","pyq7harcz8f","ono","koala","21","male","no","no","0","4","null","stimuli/sounds/dog_label_B.wav","null","","","","","","",""
"","","","","","html-keyboard-response","151","2.0.0","155959","pyq7harcz8f","ono","koala","21","male","no","no","0","4","null","","null","","","","","","",""
"","","","","","image-keyboard-response","152","2.0.0","156556","pyq7harcz8f","ono","koala","21","male","no","no","0","4","596","stimuli/pictures/dog_york_2.jpg","1","1","","true","yes","sound","stimuli/sounds/dog_label_B.wav",""
"","","","","","audio-keyboard-response","153","2.0.0","157571","pyq7harcz8f","ono","koala","21","male","no","no","0","4","null","stimuli/sounds/bleep.wav","null","","","","","","",""
"","","","","","html-keyboard-response","154","2.0.0","158742","pyq7harcz8f","ono","koala","21","male","no","no","0","4","1057","<div style=""font-size:30px;"">Press space to start the trial</div>"," ","","","","","","",""
"","","","","","html-keyboard-response","155","2.0.0","159003","pyq7harcz8f","ono","koala","21","male","no","no","0","4","null","<div style=""font-size:60px;"">+</div>","null","","","","","","",""
"","","","","","audio-keyboard-response","156","2.0.0","159598","pyq7harcz8f","ono","koala","21","male","no","no","0","4","null","stimuli/sounds/motor_sound_B.wav","null","","","","","","",""
"","","","","","html-keyboard-response","157","2.0.0","160613","pyq7harcz8f","ono","koala","21","male","no","no","0","4","null","","null","","","","","","",""
"","","","","","image-keyboard-response","158","2.0.0","161571","pyq7harcz8f","ono","koala","21","male","no","no","0","4","956","stimuli/pictures/cough_wom_2.jpg","0","0","","true","no","sound","stimuli/sounds/motor_sound_B.wav",""
"","","","","","audio-keyboard-response","159","2.0.0","162574","pyq7harcz8f","ono","koala","21","male","no","no","0","4","null","stimuli/sounds/bleep.wav","null","","","","","","",""
"","","","","","html-keyboard-response","160","2.0.0","163312","pyq7harcz8f","ono","koala","21","male","no","no","0","4","625","<div style=""font-size:30px;"">Press space to start the trial</div>"," ","","","","","","",""
"","","","","","html-keyboard-response","161","2.0.0","163572","pyq7harcz8f","ono","koala","21","male","no","no","0","4","null","<div style=""font-size:60px;"">+</div>","null","","","","","","",""
"","","","","","audio-keyboard-response","162","2.0.0","164168","pyq7harcz8f","ono","koala","21","male","no","no","0","4","null","stimuli/sounds/motor_label_A.wav","null","","","","","","",""
"","","","","","html-keyboard-response","163","2.0.0","165181","pyq7harcz8f","ono","koala","21","male","no","no","0","4","null","","null","","","","","","",""
"","","","","","image-keyboard-response","164","2.0.0","165620","pyq7harcz8f","ono","koala","21","male","no","no","0","4","437","stimuli/pictures/motor_harley_1.jpg","1","1","","true","yes","sound","stimuli/sounds/motor_label_A.wav",""
"","","","","","audio-keyboard-response","165","2.0.0","166633","pyq7harcz8f","ono","koala","21","male","no","no","0","4","null","stimuli/sounds/bleep.wav","null","","","","","","",""
"","","","","","html-keyboard-response","166","2.0.0","168463","pyq7harcz8f","ono","koala","21","male","no","no","0","4","1717","<div style=""font-size:30px;"">Press space to start the trial</div>"," ","","","","","","",""
"","","","","","html-keyboard-response","167","2.0.0","168721","pyq7harcz8f","ono","koala","21","male","no","no","0","4","null","<div style=""font-size:60px;"">+</div>","null","","","","","","",""
"","","","","","audio-keyboard-response","168","2.0.0","169328","pyq7harcz8f","ono","koala","21","male","no","no","0","4","null","stimuli/sounds/dog_sound_B.wav","null","","","","","","",""
"","","","","","html-keyboard-response","169","2.0.0","170341","pyq7harcz8f","ono","koala","21","male","no","no","0","4","null","","null","","","","","","",""
"","","","","","image-keyboard-response","170","2.0.0","171874","pyq7harcz8f","ono","koala","21","male","no","no","0","4","1532","stimuli/pictures/motor_harley_1.jpg","0","0","","true","no","sound","stimuli/sounds/dog_sound_B.wav",""
"","","","","","audio-keyboard-response","171","2.0.0","172882","pyq7harcz8f","ono","koala","21","male","no","no","0","4","null","stimuli/sounds/bleep.wav","null","","","","","","",""
"","","","","","html-keyboard-response","172","2.0.0","173694","pyq7harcz8f","ono","koala","21","male","no","no","0","4","699","<div style=""font-size:30px;"">Press space to start the trial</div>"," ","","","","","","",""
"","","","","","html-keyboard-response","173","2.0.0","173946","pyq7harcz8f","ono","koala","21","male","no","no","0","4","null","<div style=""font-size:60px;"">+</div>","null","","","","","","",""
"","","","","","audio-keyboard-response","174","2.0.0","174538","pyq7harcz8f","ono","koala","21","male","no","no","0","4","null","stimuli/sounds/motor_sound_B.wav","null","","","","","","",""
"","","","","","html-keyboard-response","175","2.0.0","175542","pyq7harcz8f","ono","koala","21","male","no","no","0","4","null","","null","","","","","","",""
"","","","","","image-keyboard-response","176","2.0.0","176225","pyq7harcz8f","ono","koala","21","male","no","no","0","4","682","stimuli/pictures/motor_dirt_2.jpg","1","1","","true","no","sound","stimuli/sounds/motor_sound_B.wav",""
"","","","","","audio-keyboard-response","177","2.0.0","177007","pyq7harcz8f","ono","koala","21","male","no","no","0","4","779","stimuli/sounds/bleep.wav"," ","","","","","","",""
"","","","","","html-keyboard-response","178","2.0.0","178631","pyq7harcz8f","ono","koala","21","male","no","no","0","4","1518","<div style=""font-size:30px;"">Press space to start the trial</div>"," ","","","","","","",""
"","","","","","html-keyboard-response","179","2.0.0","178893","pyq7harcz8f","ono","koala","21","male","no","no","0","4","null","<div style=""font-size:60px;"">+</div>","null","","","","","","",""
"","","","","","audio-keyboard-response","180","2.0.0","179488","pyq7harcz8f","ono","koala","21","male","no","no","0","4","null","stimuli/sounds/motor_label_B.wav","null","","","","","","",""
"","","","","","html-keyboard-response","181","2.0.0","180503","pyq7harcz8f","ono","koala","21","male","no","no","0","4","null","","null","","","","","","",""
"","","","","","image-keyboard-response","182","2.0.0","180977","pyq7harcz8f","ono","koala","21","male","no","no","0","4","472","stimuli/pictures/hiccup_man_1.jpg","1","0","","false","no","sound","stimuli/sounds/motor_label_B.wav",""
"","","","","","audio-keyboard-response","183","2.0.0","181981","pyq7harcz8f","ono","koala","21","male","no","no","0","4","null","stimuli/sounds/buzz.wav","null","","","","","","",""
"","","","","","html-keyboard-response","184","2.0.0","183133","pyq7harcz8f","ono","koala","21","male","no","no","0","4","1038","<div style=""font-size:30px;"">Press space to start the trial</div>"," ","","","","","","",""
"","","","","","html-keyboard-response","185","2.0.0","183385","pyq7harcz8f","ono","koala","21","male","no","no","0","4","null","<div style=""font-size:60px;"">+</div>","null","","","","","","",""
"","","","","","audio-keyboard-response","186","2.0.0","184048","pyq7harcz8f","ono","koala","21","male","no","no","0","4","null","stimuli/sounds/cough_sound_A.wav","null","","","","","","",""
"","","","","","html-keyboard-response","187","2.0.0","185062","pyq7harcz8f","ono","koala","21","male","no","no","0","4","null","","null","","","","","","",""
"","","","","","image-keyboard-response","188","2.0.0","186271","pyq7harcz8f","ono","koala","21","male","no","no","0","4","1208","stimuli/pictures/dog_rott_1.jpg","0","0","","true","no","sound","stimuli/sounds/cough_sound_A.wav",""
"","","","","","audio-keyboard-response","189","2.0.0","187285","pyq7harcz8f","ono","koala","21","male","no","no","0","4","null","stimuli/sounds/bleep.wav","null","","","","","","",""
"","","","","","html-keyboard-response","190","2.0.0","189294","pyq7harcz8f","ono","koala","21","male","no","no","0","4","1896","<div style=""font-size:30px;"">Press space to start the trial</div>"," ","","","","","","",""
"","","","","","html-keyboard-response","191","2.0.0","189550","pyq7harcz8f","ono","koala","21","male","no","no","0","4","null","<div style=""font-size:60px;"">+</div>","null","","","","","","",""
"","","","","","audio-keyboard-response","192","2.0.0","190147","pyq7harcz8f","ono","koala","21","male","no","no","0","4","null","stimuli/sounds/motor_sound_A.wav","null","","","","","","",""
"","","","","","html-keyboard-response","193","2.0.0","191153","pyq7harcz8f","ono","koala","21","male","no","no","0","4","null","","null","","","","","","",""
"","","","","","image-keyboard-response","194","2.0.0","192062","pyq7harcz8f","ono","koala","21","male","no","no","0","4","908","stimuli/pictures/motor_harley_1.jpg","0","1","","false","no","sound","stimuli/sounds/motor_sound_A.wav",""
"","","","","","audio-keyboard-response","195","2.0.0","193066","pyq7harcz8f","ono","koala","21","male","no","no","0","4","null","stimuli/sounds/buzz.wav","null","","","","","","",""
"","","","","","html-keyboard-response","196","2.0.0","195773","pyq7harcz8f","ono","koala","21","male","no","no","0","4","2594","<div style=""font-size:30px;"">Press space to start the trial</div>"," ","","","","","","",""
"","","","","","html-keyboard-response","197","2.0.0","196039","pyq7harcz8f","ono","koala","21","male","no","no","0","4","null","<div style=""font-size:60px;"">+</div>","null","","","","","","",""
"","","","","","audio-keyboard-response","198","2.0.0","196638","pyq7harcz8f","ono","koala","21","male","no","no","0","4","null","stimuli/sounds/motor_sound_B.wav","null","","","","","","",""
"","","","","","html-keyboard-response","199","2.0.0","197651","pyq7harcz8f","ono","koala","21","male","no","no","0","4","null","","null","","","","","","",""
"","","","","","image-keyboard-response","200","2.0.0","198037","pyq7harcz8f","ono","koala","21","male","no","no","0","4","384","stimuli/pictures/motor_harley_1.jpg","1","1","","true","yes","sound","stimuli/sounds/motor_sound_B.wav",""
"","","","","","audio-keyboard-response","201","2.0.0","199054","pyq7harcz8f","ono","koala","21","male","no","no","0","4","null","stimuli/sounds/bleep.wav","null","","","","","","",""
"","","","","","html-keyboard-response","202","2.0.0","199841","pyq7harcz8f","ono","koala","21","male","no","no","0","4","674","<div style=""font-size:30px;"">Press space to start the trial</div>"," ","","","","","","",""
"","","","","","html-keyboard-response","203","2.0.0","200100","pyq7harcz8f","ono","koala","21","male","no","no","0","4","null","<div style=""font-size:60px;"">+</div>","null","","","","","","",""
"","","","","","audio-keyboard-response","204","2.0.0","200778","pyq7harcz8f","ono","koala","21","male","no","no","0","4","null","stimuli/sounds/cough_sound_B.wav","null","","","","","","",""
"","","","","","html-keyboard-response","205","2.0.0","201781","pyq7harcz8f","ono","koala","21","male","no","no","0","4","null","","null","","","","","","",""
"","","","","","image-keyboard-response","206","2.0.0","202428","pyq7harcz8f","ono","koala","21","male","no","no","0","4","645","stimuli/pictures/hiccup_wom_1.jpg","1","0","","false","no","sound","stimuli/sounds/cough_sound_B.wav",""
"","","","","","audio-keyboard-response","207","2.0.0","203443","pyq7harcz8f","ono","koala","21","male","no","no","0","4","null","stimuli/sounds/buzz.wav","null","","","","","","",""
"","","","","","html-keyboard-response","208","2.0.0","204438","pyq7harcz8f","ono","koala","21","male","no","no","0","4","882","<div style=""font-size:30px;"">Press space to start the trial</div>"," ","","","","","","",""
"","","","","","html-keyboard-response","209","2.0.0","204699","pyq7harcz8f","ono","koala","21","male","no","no","0","4","null","<div style=""font-size:60px;"">+</div>","null","","","","","","",""
"","","","","","audio-keyboard-response","210","2.0.0","205308","pyq7harcz8f","ono","koala","21","male","no","no","0","4","null","stimuli/sounds/drop_sound_B.wav","null","","","","","","",""
"","","","","","html-keyboard-response","211","2.0.0","206310","pyq7harcz8f","ono","koala","21","male","no","no","0","4","null","","null","","","","","","",""
"","","","","","image-keyboard-response","212","2.0.0","206876","pyq7harcz8f","ono","koala","21","male","no","no","0","4","565","stimuli/pictures/dog_york_1.jpg","0","0","","true","no","sound","stimuli/sounds/drop_sound_B.wav",""
"","","","","","audio-keyboard-response","213","2.0.0","207889","pyq7harcz8f","ono","koala","21","male","no","no","0","4","null","stimuli/sounds/bleep.wav","null","","","","","","",""
"","","","","","html-keyboard-response","214","2.0.0","209566","pyq7harcz8f","ono","koala","21","male","no","no","0","4","1564","<div style=""font-size:30px;"">Press space to start the trial</div>"," ","","","","","","",""
"","","","","","html-keyboard-response","215","2.0.0","209832","pyq7harcz8f","ono","koala","21","male","no","no","0","4","null","<div style=""font-size:60px;"">+</div>","null","","","","","","",""
"","","","","","audio-keyboard-response","216","2.0.0","210438","pyq7harcz8f","ono","koala","21","male","no","no","0","4","null","stimuli/sounds/hiccup_label_B.wav","null","","","","","","",""
"","","","","","html-keyboard-response","217","2.0.0","211441","pyq7harcz8f","ono","koala","21","male","no","no","0","4","null","","null","","","","","","",""
"","","","","","image-keyboard-response","218","2.0.0","211888","pyq7harcz8f","ono","koala","21","male","no","no","0","4","447","stimuli/pictures/hiccup_wom_1.jpg","1","1","","true","yes","sound","stimuli/sounds/hiccup_label_B.wav",""
"","","","","","audio-keyboard-response","219","2.0.0","212903","pyq7harcz8f","ono","koala","21","male","no","no","0","4","null","stimuli/sounds/bleep.wav","null","","","","","","",""
"","","","","","html-keyboard-response","220","2.0.0","213692","pyq7harcz8f","ono","koala","21","male","no","no","0","4","675","<div style=""font-size:30px;"">Press space to start the trial</div>"," ","","","","","","",""
"","","","","","html-keyboard-response","221","2.0.0","213953","pyq7harcz8f","ono","koala","21","male","no","no","0","4","null","<div style=""font-size:60px;"">+</div>","null","","","","","","",""
"","","","","","audio-keyboard-response","222","2.0.0","214558","pyq7harcz8f","ono","koala","21","male","no","no","0","4","null","stimuli/sounds/cough_label_B.wav","null","","","","","","",""
"","","","","","html-keyboard-response","223","2.0.0","215565","pyq7harcz8f","ono","koala","21","male","no","no","0","4","null","","null","","","","","","",""
"","","","","","image-keyboard-response","224","2.0.0","216018","pyq7harcz8f","ono","koala","21","male","no","no","0","4","451","stimuli/pictures/cough_wom_2.jpg","1","1","","true","yes","sound","stimuli/sounds/cough_label_B.wav",""
"","","","","","audio-keyboard-response","225","2.0.0","217022","pyq7harcz8f","ono","koala","21","male","no","no","0","4","null","stimuli/sounds/bleep.wav","null","","","","","","",""
"","","","","","html-keyboard-response","226","2.0.0","217960","pyq7harcz8f","ono","koala","21","male","no","no","0","4","824","<div style=""font-size:30px;"">Press space to start the trial</div>"," ","","","","","","",""
"","","","","","html-keyboard-response","227","2.0.0","218214","pyq7harcz8f","ono","koala","21","male","no","no","0","4","null","<div style=""font-size:60px;"">+</div>","null","","","","","","",""
"","","","","","audio-keyboard-response","228","2.0.0","218818","pyq7harcz8f","ono","koala","21","male","no","no","0","4","null","stimuli/sounds/drop_label_B.wav","null","","","","","","",""
"","","","","","html-keyboard-response","229","2.0.0","219827","pyq7harcz8f","ono","koala","21","male","no","no","0","4","null","","null","","","","","","",""
"","","","","","image-keyboard-response","230","2.0.0","220649","pyq7harcz8f","ono","koala","21","male","no","no","0","4","821","stimuli/pictures/drop_single_2.jpg","1","1","","true","yes","sound","stimuli/sounds/drop_label_B.wav",""
"","","","","","audio-keyboard-response","231","2.0.0","221656","pyq7harcz8f","ono","koala","21","male","no","no","0","4","null","stimuli/sounds/bleep.wav","null","","","","","","",""
"","","","","","html-keyboard-response","232","2.0.0","222863","pyq7harcz8f","ono","koala","21","male","no","no","0","4","1094","<div style=""font-size:30px;"">Press space to start the trial</div>"," ","","","","","","",""
"","","","","","html-keyboard-response","233","2.0.0","223123","pyq7harcz8f","ono","koala","21","male","no","no","0","4","null","<div style=""font-size:60px;"">+</div>","null","","","","","","",""
"","","","","","audio-keyboard-response","234","2.0.0","223728","pyq7harcz8f","ono","koala","21","male","no","no","0","4","null","stimuli/sounds/cough_label_B.wav","null","","","","","","",""
"","","","","","html-keyboard-response","235","2.0.0","224737","pyq7harcz8f","ono","koala","21","male","no","no","0","4","null","","null","","","","","","",""
"","","","","","image-keyboard-response","236","2.0.0","225252","pyq7harcz8f","ono","koala","21","male","no","no","0","4","513","stimuli/pictures/drop_single_1.jpg","0","0","","true","no","sound","stimuli/sounds/cough_label_B.wav",""
"","","","","","audio-keyboard-response","237","2.0.0","226256","pyq7harcz8f","ono","koala","21","male","no","no","0","4","null","stimuli/sounds/bleep.wav","null","","","","","","",""
"","","","","","html-keyboard-response","238","2.0.0","227568","pyq7harcz8f","ono","koala","21","male","no","no","0","4","1201","<div style=""font-size:30px;"">Press space to start the trial</div>"," ","","","","","","",""
"","","","","","html-keyboard-response","239","2.0.0","227835","pyq7harcz8f","ono","koala","21","male","no","no","0","4","null","<div style=""font-size:60px;"">+</div>","null","","","","","","",""
"","","","","","audio-keyboard-response","240","2.0.0","228427","pyq7harcz8f","ono","koala","21","male","no","no","0","4","null","stimuli/sounds/dog_label_B.wav","null","","","","","","",""
"","","","","","html-keyboard-response","241","2.0.0","229443","pyq7harcz8f","ono","koala","21","male","no","no","0","4","null","","null","","","","","","",""
"","","","","","image-keyboard-response","242","2.0.0","229994","pyq7harcz8f","ono","koala","21","male","no","no","0","4","550","stimuli/pictures/cough_wom_2.jpg","0","0","","true","no","sound","stimuli/sounds/dog_label_B.wav",""
"","","","","","audio-keyboard-response","243","2.0.0","230996","pyq7harcz8f","ono","koala","21","male","no","no","0","4","null","stimuli/sounds/bleep.wav","null","","","","","","",""
"","","","","","html-keyboard-response","244","2.0.0","232509","pyq7harcz8f","ono","koala","21","male","no","no","0","4","1399","<div style=""font-size:30px;"">Press space to start the trial</div>"," ","","","","","","",""
"","","","","","html-keyboard-response","245","2.0.0","232769","pyq7harcz8f","ono","koala","21","male","no","no","0","4","null","<div style=""font-size:60px;"">+</div>","null","","","","","","",""
"","","","","","audio-keyboard-response","246","2.0.0","233378","pyq7harcz8f","ono","koala","21","male","no","no","0","4","null","stimuli/sounds/hiccup_sound_A.wav","null","","","","","","",""
"","","","","","html-keyboard-response","247","2.0.0","234384","pyq7harcz8f","ono","koala","21","male","no","no","0","4","null","","null","","","","","","",""
"","","","","","image-keyboard-response","248","2.0.0","235303","pyq7harcz8f","ono","koala","21","male","no","no","0","4","918","stimuli/pictures/hiccup_man_2.jpg","1","1","","true","no","sound","stimuli/sounds/hiccup_sound_A.wav",""
"","","","","","audio-keyboard-response","249","2.0.0","236321","pyq7harcz8f","ono","koala","21","male","no","no","0","4","null","stimuli/sounds/bleep.wav","null","","","","","","",""
"","","","","","html-keyboard-response","250","2.0.0","237838","pyq7harcz8f","ono","koala","21","male","no","no","0","4","1404","<div style=""font-size:30px;"">Press space to start the trial</div>"," ","","","","","","",""
"","","","","","html-keyboard-response","251","2.0.0","238096","pyq7harcz8f","ono","koala","21","male","no","no","0","4","null","<div style=""font-size:60px;"">+</div>","null","","","","","","",""
"","","","","","audio-keyboard-response","252","2.0.0","238698","pyq7harcz8f","ono","koala","21","male","no","no","0","4","null","stimuli/sounds/hiccup_label_B.wav","null","","","","","","",""
"","","","","","html-keyboard-response","253","2.0.0","239709","pyq7harcz8f","ono","koala","21","male","no","no","0","4","null","","null","","","","","","",""
"","","","","","image-keyboard-response","254","2.0.0","240329","pyq7harcz8f","ono","koala","21","male","no","no","0","4","619","stimuli/pictures/dog_rott_1.jpg","1","0","","false","no","sound","stimuli/sounds/hiccup_label_B.wav",""
"","","","","","audio-keyboard-response","255","2.0.0","241333","pyq7harcz8f","ono","koala","21","male","no","no","0","4","null","stimuli/sounds/buzz.wav","null","","","","","","",""
"","","","","","html-keyboard-response","256","2.0.0","241982","pyq7harcz8f","ono","koala","21","male","no","no","0","4","536","<div style=""font-size:30px;"">Press space to start the trial</div>"," ","","","","","","",""
"","","","","","html-keyboard-response","257","2.0.0","242243","pyq7harcz8f","ono","koala","21","male","no","no","0","4","null","<div style=""font-size:60px;"">+</div>","null","","","","","","",""
"","","","","","audio-keyboard-response","258","2.0.0","242838","pyq7harcz8f","ono","koala","21","male","no","no","0","4","null","stimuli/sounds/motor_label_A.wav","null","","","","","","",""
"","","","","","html-keyboard-response","259","2.0.0","243846","pyq7harcz8f","ono","koala","21","male","no","no","0","4","null","","null","","","","","","",""
"","","","","","image-keyboard-response","260","2.0.0","244325","pyq7harcz8f","ono","koala","21","male","no","no","0","4","478","stimuli/pictures/motor_dirt_1.jpg","1","1","","true","yes","sound","stimuli/sounds/motor_label_A.wav",""
"","","","","","audio-keyboard-response","261","2.0.0","245336","pyq7harcz8f","ono","koala","21","male","no","no","0","4","null","stimuli/sounds/bleep.wav","null","","","","","","",""
"","","","","","html-keyboard-response","262","2.0.0","245986","pyq7harcz8f","ono","koala","21","male","no","no","0","4","536","<div style=""font-size:30px;"">Press space to start the trial</div>"," ","","","","","","",""
"","","","","","html-keyboard-response","263","2.0.0","246250","pyq7harcz8f","ono","koala","21","male","no","no","0","4","null","<div style=""font-size:60px;"">+</div>","null","","","","","","",""
"","","","","","audio-keyboard-response","264","2.0.0","246918","pyq7harcz8f","ono","koala","21","male","no","no","0","4","null","stimuli/sounds/cough_sound_A.wav","null","","","","","","",""
"","","","","","html-keyboard-response","265","2.0.0","247928","pyq7harcz8f","ono","koala","21","male","no","no","0","4","null","","null","","","","","","",""
"","","","","","image-keyboard-response","266","2.0.0","248329","pyq7harcz8f","ono","koala","21","male","no","no","0","4","400","stimuli/pictures/cough_man_1.jpg","0","1","","false","no","sound","stimuli/sounds/cough_sound_A.wav",""
"","","","","","audio-keyboard-response","267","2.0.0","249334","pyq7harcz8f","ono","koala","21","male","no","no","0","4","null","stimuli/sounds/buzz.wav","null","","","","","","",""
"","","","","","html-keyboard-response","268","2.0.0","252238","pyq7harcz8f","ono","koala","21","male","no","no","0","4","2791","<p>You have completed a block. Press R when you are ready to continue</p>","r","","","","","","",""
"","","","","","html-keyboard-response","269","2.0.0","253629","pyq7harcz8f","ono","koala","21","male","no","no","0","4","1390","<div style=""font-size:30px;"">Press space to start the trial</div>"," ","","","","","","",""
"","","","","","html-keyboard-response","270","2.0.0","253883","pyq7harcz8f","ono","koala","21","male","no","no","0","4","null","<div style=""font-size:60px;"">+</div>","null","","","","","","",""
"","","","","","audio-keyboard-response","271","2.0.0","254478","pyq7harcz8f","ono","koala","21","male","no","no","0","4","null","stimuli/sounds/dog_label_B.wav","null","","","","","","",""
"","","","","","html-keyboard-response","272","2.0.0","255482","pyq7harcz8f","ono","koala","21","male","no","no","0","4","null","","null","","","","","","",""
"","","","","","image-keyboard-response","273","2.0.0","257238","pyq7harcz8f","ono","koala","21","male","no","no","0","4","1755","stimuli/pictures/dog_rott_1.jpg","0","1","","false","yes","sound","stimuli/sounds/dog_label_B.wav",""
"","","","","","audio-keyboard-response","274","2.0.0","257924","pyq7harcz8f","ono","koala","21","male","no","no","0","4","680","stimuli/sounds/buzz.wav","1","","","","","","",""
"","","","","","html-keyboard-response","275","2.0.0","258989","pyq7harcz8f","ono","koala","21","male","no","no","0","4","956","<div style=""font-size:30px;"">Press space to start the trial</div>"," ","","","","","","",""
"","","","","","html-keyboard-response","276","2.0.0","259252","pyq7harcz8f","ono","koala","21","male","no","no","0","4","null","<div style=""font-size:60px;"">+</div>","null","","","","","","",""
"","","","","","audio-keyboard-response","277","2.0.0","259858","pyq7harcz8f","ono","koala","21","male","no","no","0","4","null","stimuli/sounds/hiccup_sound_A.wav","null","","","","","","",""
"","","","","","html-keyboard-response","278","2.0.0","260867","pyq7harcz8f","ono","koala","21","male","no","no","0","4","null","","null","","","","","","",""
"","","","","","image-keyboard-response","279","2.0.0","262182","pyq7harcz8f","ono","koala","21","male","no","no","0","4","1313","stimuli/pictures/motor_dirt_2.jpg","0","0","","true","no","sound","stimuli/sounds/hiccup_sound_A.wav",""
"","","","","","audio-keyboard-response","280","2.0.0","263187","pyq7harcz8f","ono","koala","21","male","no","no","0","4","null","stimuli/sounds/bleep.wav","null","","","","","","",""
"","","","","","html-keyboard-response","281","2.0.0","264126","pyq7harcz8f","ono","koala","21","male","no","no","0","4","827","<div style=""font-size:30px;"">Press space to start the trial</div>"," ","","","","","","",""
"","","","","","html-keyboard-response","282","2.0.0","264385","pyq7harcz8f","ono","koala","21","male","no","no","0","4","null","<div style=""font-size:60px;"">+</div>","null","","","","","","",""
"","","","","","audio-keyboard-response","283","2.0.0","264988","pyq7harcz8f","ono","koala","21","male","no","no","0","4","null","stimuli/sounds/drop_label_B.wav","null","","","","","","",""
"","","","","","html-keyboard-response","284","2.0.0","266004","pyq7harcz8f","ono","koala","21","male","no","no","0","4","null","","null","","","","","","",""
"","","","","","image-keyboard-response","285","2.0.0","266379","pyq7harcz8f","ono","koala","21","male","no","no","0","4","373","stimuli/pictures/drop_single_1.jpg","1","1","","true","yes","sound","stimuli/sounds/drop_label_B.wav",""
"","","","","","audio-keyboard-response","286","2.0.0","267391","pyq7harcz8f","ono","koala","21","male","no","no","0","4","null","stimuli/sounds/bleep.wav","null","","","","","","",""
"","","","","","html-keyboard-response","287","2.0.0","267546","pyq7harcz8f","ono","koala","21","male","no","no","0","4","43","<div style=""font-size:30px;"">Press space to start the trial</div>"," ","","","","","","",""
"","","","","","html-keyboard-response","288","2.0.0","267800","pyq7harcz8f","ono","koala","21","male","no","no","0","4","null","<div style=""font-size:60px;"">+</div>","null","","","","","","",""
"","","","","","audio-keyboard-response","289","2.0.0","268408","pyq7harcz8f","ono","koala","21","male","no","no","0","4","null","stimuli/sounds/dog_sound_A.wav","null","","","","","","",""
"","","","","","html-keyboard-response","290","2.0.0","269417","pyq7harcz8f","ono","koala","21","male","no","no","0","4","null","","null","","","","","","",""
"","","","","","image-keyboard-response","291","2.0.0","270013","pyq7harcz8f","ono","koala","21","male","no","no","0","4","594","stimuli/pictures/hiccup_wom_1.jpg","1","0","","false","no","sound","stimuli/sounds/dog_sound_A.wav",""
"","","","","","audio-keyboard-response","292","2.0.0","270550","pyq7harcz8f","ono","koala","21","male","no","no","0","4","541","stimuli/sounds/buzz.wav","0","","","","","","",""
"","","","","","html-keyboard-response","293","2.0.0","272051","pyq7harcz8f","ono","koala","21","male","no","no","0","4","1395","<div style=""font-size:30px;"">Press space to start the trial</div>"," ","","","","","","",""
"","","","","","html-keyboard-response","294","2.0.0","272311","pyq7harcz8f","ono","koala","21","male","no","no","0","4","null","<div style=""font-size:60px;"">+</div>","null","","","","","","",""
"","","","","","audio-keyboard-response","295","2.0.0","272908","pyq7harcz8f","ono","koala","21","male","no","no","0","4","null","stimuli/sounds/dog_label_B.wav","null","","","","","","",""
"","","","","","html-keyboard-response","296","2.0.0","273919","pyq7harcz8f","ono","koala","21","male","no","no","0","4","null","","null","","","","","","",""
"","","","","","image-keyboard-response","297","2.0.0","278376","pyq7harcz8f","ono","koala","21","male","no","no","0","4","4456","stimuli/pictures/cough_man_1.jpg","0","0","","true","no","sound","stimuli/sounds/dog_label_B.wav",""
"","","","","","audio-keyboard-response","298","2.0.0","279380","pyq7harcz8f","ono","koala","21","male","no","no","0","4","null","stimuli/sounds/bleep.wav","null","","","","","","",""
"","","","","","html-keyboard-response","299","2.0.0","280028","pyq7harcz8f","ono","koala","21","male","no","no","0","4","535","<div style=""font-size:30px;"">Press space to start the trial</div>"," ","","","","","","",""
"","","","","","html-keyboard-response","300","2.0.0","280292","pyq7harcz8f","ono","koala","21","male","no","no","0","4","null","<div style=""font-size:60px;"">+</div>","null","","","","","","",""
"","","","","","audio-keyboard-response","301","2.0.0","280888","pyq7harcz8f","ono","koala","21","male","no","no","0","4","null","stimuli/sounds/motor_label_B.wav","null","","","","","","",""
"","","","","","html-keyboard-response","302","2.0.0","281892","pyq7harcz8f","ono","koala","21","male","no","no","0","4","null","","null","","","","","","",""
"","","","","","image-keyboard-response","303","2.0.0","282484","pyq7harcz8f","ono","koala","21","male","no","no","0","4","590","stimuli/pictures/hiccup_wom_1.jpg","0","0","","true","no","sound","stimuli/sounds/motor_label_B.wav",""
"","","","","","audio-keyboard-response","304","2.0.0","283485","pyq7harcz8f","ono","koala","21","male","no","no","0","4","null","stimuli/sounds/bleep.wav","null","","","","","","",""
"","","","","","html-keyboard-response","305","2.0.0","284648","pyq7harcz8f","ono","koala","21","male","no","no","0","4","1049","<div style=""font-size:30px;"">Press space to start the trial</div>"," ","","","","","","",""
"","","","","","html-keyboard-response","306","2.0.0","284913","pyq7harcz8f","ono","koala","21","male","no","no","0","4","null","<div style=""font-size:60px;"">+</div>","null","","","","","","",""
"","","","","","audio-keyboard-response","307","2.0.0","285508","pyq7harcz8f","ono","koala","21","male","no","no","0","4","null","stimuli/sounds/motor_sound_A.wav","null","","","","","","",""
"","","","","","html-keyboard-response","308","2.0.0","286524","pyq7harcz8f","ono","koala","21","male","no","no","0","4","null","","null","","","","","","",""
"","","","","","image-keyboard-response","309","2.0.0","287010","pyq7harcz8f","ono","koala","21","male","no","no","0","4","485","stimuli/pictures/motor_harley_2.jpg","1","1","","true","no","sound","stimuli/sounds/motor_sound_A.wav",""
"","","","","","audio-keyboard-response","310","2.0.0","288015","pyq7harcz8f","ono","koala","21","male","no","no","0","4","null","stimuli/sounds/bleep.wav","null","","","","","","",""
"","","","","","html-keyboard-response","311","2.0.0","288441","pyq7harcz8f","ono","koala","21","male","no","no","0","4","313","<div style=""font-size:30px;"">Press space to start the trial</div>"," ","","","","","","",""
"","","","","","html-keyboard-response","312","2.0.0","288703","pyq7harcz8f","ono","koala","21","male","no","no","0","4","null","<div style=""font-size:60px;"">+</div>","null","","","","","","",""
"","","","","","audio-keyboard-response","313","2.0.0","289298","pyq7harcz8f","ono","koala","21","male","no","no","0","4","null","stimuli/sounds/dog_label_A.wav","null","","","","","","",""
"","","","","","html-keyboard-response","314","2.0.0","290313","pyq7harcz8f","ono","koala","21","male","no","no","0","4","null","","null","","","","","","",""
"","","","","","image-keyboard-response","315","2.0.0","290907","pyq7harcz8f","ono","koala","21","male","no","no","0","4","592","stimuli/pictures/drop_single_1.jpg","0","0","","true","no","sound","stimuli/sounds/dog_label_A.wav",""
"","","","","","audio-keyboard-response","316","2.0.0","291922","pyq7harcz8f","ono","koala","21","male","no","no","0","4","null","stimuli/sounds/bleep.wav","null","","","","","","",""
"","","","","","html-keyboard-response","317","2.0.0","292620","pyq7harcz8f","ono","koala","21","male","no","no","0","4","587","<div style=""font-size:30px;"">Press space to start the trial</div>"," ","","","","","","",""
"","","","","","html-keyboard-response","318","2.0.0","292880","pyq7harcz8f","ono","koala","21","male","no","no","0","4","null","<div style=""font-size:60px;"">+</div>","null","","","","","","",""
"","","","","","audio-keyboard-response","319","2.0.0","293488","pyq7harcz8f","ono","koala","21","male","no","no","0","4","null","stimuli/sounds/dog_sound_A.wav","null","","","","","","",""
"","","","","","html-keyboard-response","320","2.0.0","294491","pyq7harcz8f","ono","koala","21","male","no","no","0","4","null","","null","","","","","","",""
"","","","","","image-keyboard-response","321","2.0.0","295437","pyq7harcz8f","ono","koala","21","male","no","no","0","4","945","stimuli/pictures/dog_york_1.jpg","0","1","","false","no","sound","stimuli/sounds/dog_sound_A.wav",""
"","","","","","audio-keyboard-response","322","2.0.0","296363","pyq7harcz8f","ono","koala","21","male","no","no","0","4","928","stimuli/sounds/buzz.wav"," ","","","","","","",""
"","","","","","html-keyboard-response","323","2.0.0","296638","pyq7harcz8f","ono","koala","21","male","no","no","0","4","163","<div style=""font-size:30px;"">Press space to start the trial</div>"," ","","","","","","",""
"","","","","","html-keyboard-response","324","2.0.0","296896","pyq7harcz8f","ono","koala","21","male","no","no","0","4","null","<div style=""font-size:60px;"">+</div>","null","","","","","","",""
"","","","","","audio-keyboard-response","325","2.0.0","297478","pyq7harcz8f","ono","koala","21","male","no","no","0","4","null","stimuli/sounds/drop_sound_A.wav","null","","","","","","",""
"","","","","","html-keyboard-response","326","2.0.0","298488","pyq7harcz8f","ono","koala","21","male","no","no","0","4","null","","null","","","","","","",""
"","","","","","image-keyboard-response","327","2.0.0","298918","pyq7harcz8f","ono","koala","21","male","no","no","0","4","428","stimuli/pictures/cough_man_1.jpg","1","0","","false","no","sound","stimuli/sounds/drop_sound_A.wav",""
"","","","","","audio-keyboard-response","328","2.0.0","299913","pyq7harcz8f","ono","koala","21","male","no","no","0","4","992","stimuli/sounds/buzz.wav"," ","","","","","","",""
"","","","","","html-keyboard-response","329","2.0.0","300201","pyq7harcz8f","ono","koala","21","male","no","no","0","4","180","<div style=""font-size:30px;"">Press space to start the trial</div>"," ","","","","","","",""
"","","","","","html-keyboard-response","330","2.0.0","300458","pyq7harcz8f","ono","koala","21","male","no","no","0","4","null","<div style=""font-size:60px;"">+</div>","null","","","","","","",""
"","","","","","audio-keyboard-response","331","2.0.0","301067","pyq7harcz8f","ono","koala","21","male","no","no","0","4","null","stimuli/sounds/dog_sound_B.wav","null","","","","","","",""
"","","","","","html-keyboard-response","332","2.0.0","302073","pyq7harcz8f","ono","koala","21","male","no","no","0","4","null","","null","","","","","","",""
"","","","","","image-keyboard-response","333","2.0.0","302851","pyq7harcz8f","ono","koala","21","male","no","no","0","4","778","stimuli/pictures/dog_york_1.jpg","1","1","","true","yes","sound","stimuli/sounds/dog_sound_B.wav",""
"","","","","","audio-keyboard-response","334","2.0.0","303863","pyq7harcz8f","ono","koala","21","male","no","no","0","4","null","stimuli/sounds/bleep.wav","null","","","","","","",""
"","","","","","html-keyboard-response","335","2.0.0","304500","pyq7harcz8f","ono","koala","21","male","no","no","0","4","527","<div style=""font-size:30px;"">Press space to start the trial</div>"," ","","","","","","",""
"","","","","","html-keyboard-response","336","2.0.0","304755","pyq7harcz8f","ono","koala","21","male","no","no","0","4","null","<div style=""font-size:60px;"">+</div>","null","","","","","","",""
"","","","","","audio-keyboard-response","337","2.0.0","305358","pyq7harcz8f","ono","koala","21","male","no","no","0","4","null","stimuli/sounds/cough_label_B.wav","null","","","","","","",""
"","","","","","html-keyboard-response","338","2.0.0","306368","pyq7harcz8f","ono","koala","21","male","no","no","0","4","null","","null","","","","","","",""
"","","","","","image-keyboard-response","339","2.0.0","307142","pyq7harcz8f","ono","koala","21","male","no","no","0","4","772","stimuli/pictures/drop_single_2.jpg","0","0","","true","no","sound","stimuli/sounds/cough_label_B.wav",""
"","","","","","audio-keyboard-response","340","2.0.0","308155","pyq7harcz8f","ono","koala","21","male","no","no","0","4","null","stimuli/sounds/bleep.wav","null","","","","","","",""
"","","","","","html-keyboard-response","341","2.0.0","309009","pyq7harcz8f","ono","koala","21","male","no","no","0","4","742","<div style=""font-size:30px;"">Press space to start the trial</div>"," ","","","","","","",""
"","","","","","html-keyboard-response","342","2.0.0","309275","pyq7harcz8f","ono","koala","21","male","no","no","0","4","null","<div style=""font-size:60px;"">+</div>","null","","","","","","",""
"","","","","","audio-keyboard-response","343","2.0.0","309867","pyq7harcz8f","ono","koala","21","male","no","no","0","4","null","stimuli/sounds/dog_label_A.wav","null","","","","","","",""
"","","","","","html-keyboard-response","344","2.0.0","310878","pyq7harcz8f","ono","koala","21","male","no","no","0","4","null","","null","","","","","","",""
"","","","","","image-keyboard-response","345","2.0.0","311373","pyq7harcz8f","ono","koala","21","male","no","no","0","4","494","stimuli/pictures/dog_york_1.jpg","1","1","","true","yes","sound","stimuli/sounds/dog_label_A.wav",""
"","","","","","audio-keyboard-response","346","2.0.0","312384","pyq7harcz8f","ono","koala","21","male","no","no","0","4","null","stimuli/sounds/bleep.wav","null","","","","","","",""
"","","","","","html-keyboard-response","347","2.0.0","313214","pyq7harcz8f","ono","koala","21","male","no","no","0","4","718","<div style=""font-size:30px;"">Press space to start the trial</div>"," ","","","","","","",""
"","","","","","html-keyboard-response","348","2.0.0","313479","pyq7harcz8f","ono","koala","21","male","no","no","0","4","null","<div style=""font-size:60px;"">+</div>","null","","","","","","",""
"","","","","","audio-keyboard-response","349","2.0.0","314108","pyq7harcz8f","ono","koala","21","male","no","no","0","4","null","stimuli/sounds/cough_label_A.wav","null","","","","","","",""
"","","","","","html-keyboard-response","350","2.0.0","315117","pyq7harcz8f","ono","koala","21","male","no","no","0","4","null","","null","","","","","","",""
"","","","","","image-keyboard-response","351","2.0.0","317951","pyq7harcz8f","ono","koala","21","male","no","no","0","4","2832","stimuli/pictures/cough_wom_1.jpg","0","1","","false","yes","sound","stimuli/sounds/cough_label_A.wav",""
"","","","","","audio-keyboard-response","352","2.0.0","318965","pyq7harcz8f","ono","koala","21","male","no","no","0","4","null","stimuli/sounds/buzz.wav","null","","","","","","",""
"","","","","","html-keyboard-response","353","2.0.0","319907","pyq7harcz8f","ono","koala","21","male","no","no","0","4","830","<div style=""font-size:30px;"">Press space to start the trial</div>"," ","","","","","","",""
"","","","","","html-keyboard-response","354","2.0.0","320163","pyq7harcz8f","ono","koala","21","male","no","no","0","4","null","<div style=""font-size:60px;"">+</div>","null","","","","","","",""
"","","","","","audio-keyboard-response","355","2.0.0","320708","pyq7harcz8f","ono","koala","21","male","no","no","0","4","null","stimuli/sounds/drop_label_A.wav","null","","","","","","",""
"","","","","","html-keyboard-response","356","2.0.0","321725","pyq7harcz8f","ono","koala","21","male","no","no","0","4","null","","null","","","","","","",""
"","","","","","image-keyboard-response","357","2.0.0","322837","pyq7harcz8f","ono","koala","21","male","no","no","0","4","1110","stimuli/pictures/drop_single_1.jpg","1","1","","true","yes","sound","stimuli/sounds/drop_label_A.wav",""
"","","","","","audio-keyboard-response","358","2.0.0","323845","pyq7harcz8f","ono","koala","21","male","no","no","0","4","null","stimuli/sounds/bleep.wav","null","","","","","","",""
"","","","","","html-keyboard-response","359","2.0.0","324431","pyq7harcz8f","ono","koala","21","male","no","no","0","4","474","<div style=""font-size:30px;"">Press space to start the trial</div>"," ","","","","","","",""
"","","","","","html-keyboard-response","360","2.0.0","324696","pyq7harcz8f","ono","koala","21","male","no","no","0","4","null","<div style=""font-size:60px;"">+</div>","null","","","","","","",""
"","","","","","audio-keyboard-response","361","2.0.0","325238","pyq7harcz8f","ono","koala","21","male","no","no","0","4","null","stimuli/sounds/drop_label_A.wav","null","","","","","","",""
"","","","","","html-keyboard-response","362","2.0.0","326246","pyq7harcz8f","ono","koala","21","male","no","no","0","4","null","","null","","","","","","",""
"","","","","","image-keyboard-response","363","2.0.0","326375","pyq7harcz8f","ono","koala","21","male","no","no","0","4","127","stimuli/pictures/drop_single_2.jpg","1","1","","true","yes","sound","stimuli/sounds/drop_label_A.wav",""
"","","","","","audio-keyboard-response","364","2.0.0","326568","pyq7harcz8f","ono","koala","21","male","no","no","0","4","189","stimuli/sounds/bleep.wav","1","","","","","","",""
"","","","","","html-keyboard-response","365","2.0.0","327512","pyq7harcz8f","ono","koala","21","male","no","no","0","4","829","<div style=""font-size:30px;"">Press space to start the trial</div>"," ","","","","","","",""
"","","","","","html-keyboard-response","366","2.0.0","327773","pyq7harcz8f","ono","koala","21","male","no","no","0","4","null","<div style=""font-size:60px;"">+</div>","null","","","","","","",""
"","","","","","audio-keyboard-response","367","2.0.0","328318","pyq7harcz8f","ono","koala","21","male","no","no","0","4","null","stimuli/sounds/drop_label_A.wav","null","","","","","","",""
"","","","","","html-keyboard-response","368","2.0.0","329318","pyq7harcz8f","ono","koala","21","male","no","no","0","4","null","","null","","","","","","",""
"","","","","","image-keyboard-response","369","2.0.0","329422","pyq7harcz8f","ono","koala","21","male","no","no","0","4","103","stimuli/pictures/drop_multi_2.jpg","1","1","","true","yes","sound","stimuli/sounds/drop_label_A.wav",""
"","","","","","audio-keyboard-response","370","2.0.0","329496","pyq7harcz8f","ono","koala","21","male","no","no","0","4","69","stimuli/sounds/bleep.wav","1","","","","","","",""
"","","","","","html-keyboard-response","371","2.0.0","330165","pyq7harcz8f","ono","koala","21","male","no","no","0","4","558","<div style=""font-size:30px;"">Press space to start the trial</div>"," ","","","","","","",""
"","","","","","html-keyboard-response","372","2.0.0","330422","pyq7harcz8f","ono","koala","21","male","no","no","0","4","null","<div style=""font-size:60px;"">+</div>","null","","","","","","",""
"","","","","","audio-keyboard-response","373","2.0.0","331058","pyq7harcz8f","ono","koala","21","male","no","no","0","4","null","stimuli/sounds/cough_label_A.wav","null","","","","","","",""
"","","","","","html-keyboard-response","374","2.0.0","332074","pyq7harcz8f","ono","koala","21","male","no","no","0","4","null","","null","","","","","","",""
"","","","","","image-keyboard-response","375","2.0.0","332479","pyq7harcz8f","ono","koala","21","male","no","no","0","4","404","stimuli/pictures/cough_man_1.jpg","1","1","","true","yes","sound","stimuli/sounds/cough_label_A.wav",""
"","","","","","audio-keyboard-response","376","2.0.0","333481","pyq7harcz8f","ono","koala","21","male","no","no","0","4","null","stimuli/sounds/bleep.wav","null","","","","","","",""
"","","","","","html-keyboard-response","377","2.0.0","334286","pyq7harcz8f","ono","koala","21","male","no","no","0","4","693","<div style=""font-size:30px;"">Press space to start the trial</div>"," ","","","","","","",""
"","","","","","html-keyboard-response","378","2.0.0","334543","pyq7harcz8f","ono","koala","21","male","no","no","0","4","null","<div style=""font-size:60px;"">+</div>","null","","","","","","",""
"","","","","","audio-keyboard-response","379","2.0.0","335138","pyq7harcz8f","ono","koala","21","male","no","no","0","4","null","stimuli/sounds/motor_sound_A.wav","null","","","","","","",""
"","","","","","html-keyboard-response","380","2.0.0","336145","pyq7harcz8f","ono","koala","21","male","no","no","0","4","null","","null","","","","","","",""
"","","","","","image-keyboard-response","381","2.0.0","336493","pyq7harcz8f","ono","koala","21","male","no","no","0","4","347","stimuli/pictures/drop_multi_1.jpg","1","0","","false","no","sound","stimuli/sounds/motor_sound_A.wav",""
"","","","","","audio-keyboard-response","382","2.0.0","337508","pyq7harcz8f","ono","koala","21","male","no","no","0","4","null","stimuli/sounds/buzz.wav","null","","","","","","",""
"","","","","","html-keyboard-response","383","2.0.0","337989","pyq7harcz8f","ono","koala","21","male","no","no","0","4","367","<div style=""font-size:30px;"">Press space to start the trial</div>"," ","","","","","","",""
"","","","","","html-keyboard-response","384","2.0.0","338255","pyq7harcz8f","ono","koala","21","male","no","no","0","4","null","<div style=""font-size:60px;"">+</div>","null","","","","","","",""
"","","","","","audio-keyboard-response","385","2.0.0","338858","pyq7harcz8f","ono","koala","21","male","no","no","0","4","null","stimuli/sounds/dog_sound_A.wav","null","","","","","","",""
"","","","","","html-keyboard-response","386","2.0.0","339869","pyq7harcz8f","ono","koala","21","male","no","no","0","4","null","","null","","","","","","",""
"","","","","","image-keyboard-response","387","2.0.0","340677","pyq7harcz8f","ono","koala","21","male","no","no","0","4","806","stimuli/pictures/dog_york_2.jpg","0","1","","false","no","sound","stimuli/sounds/dog_sound_A.wav",""
"","","","","","audio-keyboard-response","388","2.0.0","341683","pyq7harcz8f","ono","koala","21","male","no","no","0","4","null","stimuli/sounds/buzz.wav","null","","","","","","",""
"","","","","","html-keyboard-response","389","2.0.0","343499","pyq7harcz8f","ono","koala","21","male","no","no","0","4","1704","<p>You have completed a block. Press R when you are ready to continue</p>","r","","","","","","",""
"","","","","","html-keyboard-response","390","2.0.0","344197","pyq7harcz8f","ono","koala","21","male","no","no","0","4","697","<div style=""font-size:30px;"">Press space to start the trial</div>"," ","","","","","","",""
"","","","","","html-keyboard-response","391","2.0.0","344448","pyq7harcz8f","ono","koala","21","male","no","no","0","4","null","<div style=""font-size:60px;"">+</div>","null","","","","","","",""
"","","","","","audio-keyboard-response","392","2.0.0","345128","pyq7harcz8f","ono","koala","21","male","no","no","0","4","null","stimuli/sounds/cough_sound_B.wav","null","","","","","","",""
"","","","","","html-keyboard-response","393","2.0.0","346143","pyq7harcz8f","ono","koala","21","male","no","no","0","4","null","","null","","","","","","",""
"","","","","","image-keyboard-response","394","2.0.0","346658","pyq7harcz8f","ono","koala","21","male","no","no","0","4","513","stimuli/pictures/hiccup_man_2.jpg","1","0","","false","no","sound","stimuli/sounds/cough_sound_B.wav",""
"","","","","","audio-keyboard-response","395","2.0.0","347670","pyq7harcz8f","ono","koala","21","male","no","no","0","4","null","stimuli/sounds/buzz.wav","null","","","","","","",""
"","","","","","html-keyboard-response","396","2.0.0","348558","pyq7harcz8f","ono","koala","21","male","no","no","0","4","775","<div style=""font-size:30px;"">Press space to start the trial</div>"," ","","","","","","",""
"","","","","","html-keyboard-response","397","2.0.0","348813","pyq7harcz8f","ono","koala","21","male","no","no","0","4","null","<div style=""font-size:60px;"">+</div>","null","","","","","","",""
"","","","","","audio-keyboard-response","398","2.0.0","349407","pyq7harcz8f","ono","koala","21","male","no","no","0","4","null","stimuli/sounds/motor_label_A.wav","null","","","","","","",""
"","","","","","html-keyboard-response","399","2.0.0","350419","pyq7harcz8f","ono","koala","21","male","no","no","0","4","null","","null","","","","","","",""
"","","","","","image-keyboard-response","400","2.0.0","351554","pyq7harcz8f","ono","koala","21","male","no","no","0","4","1134","stimuli/pictures/dog_york_1.jpg","0","0","","true","no","sound","stimuli/sounds/motor_label_A.wav",""
"","","","","","audio-keyboard-response","401","2.0.0","352556","pyq7harcz8f","ono","koala","21","male","no","no","0","4","null","stimuli/sounds/bleep.wav","null","","","","","","",""
"","","","","","html-keyboard-response","402","2.0.0","353412","pyq7harcz8f","ono","koala","21","male","no","no","0","4","743","<div style=""font-size:30px;"">Press space to start the trial</div>"," ","","","","","","",""
"","","","","","html-keyboard-response","403","2.0.0","353673","pyq7harcz8f","ono","koala","21","male","no","no","0","4","null","<div style=""font-size:60px;"">+</div>","null","","","","","","",""
"","","","","","audio-keyboard-response","404","2.0.0","354268","pyq7harcz8f","ono","koala","21","male","no","no","0","4","null","stimuli/sounds/motor_sound_B.wav","null","","","","","","",""
"","","","","","html-keyboard-response","405","2.0.0","355277","pyq7harcz8f","ono","koala","21","male","no","no","0","4","null","","null","","","","","","",""
"","","","","","image-keyboard-response","406","2.0.0","356865","pyq7harcz8f","ono","koala","21","male","no","no","0","4","1586","stimuli/pictures/cough_man_2.jpg","0","0","","true","no","sound","stimuli/sounds/motor_sound_B.wav",""
"","","","","","audio-keyboard-response","407","2.0.0","357874","pyq7harcz8f","ono","koala","21","male","no","no","0","4","null","stimuli/sounds/bleep.wav","null","","","","","","",""
"","","","","","html-keyboard-response","408","2.0.0","358395","pyq7harcz8f","ono","koala","21","male","no","no","0","4","409","<div style=""font-size:30px;"">Press space to start the trial</div>"," ","","","","","","",""
"","","","","","html-keyboard-response","409","2.0.0","358654","pyq7harcz8f","ono","koala","21","male","no","no","0","4","null","<div style=""font-size:60px;"">+</div>","null","","","","","","",""
"","","","","","audio-keyboard-response","410","2.0.0","359198","pyq7harcz8f","ono","koala","21","male","no","no","0","4","null","stimuli/sounds/drop_label_A.wav","null","","","","","","",""
"","","","","","html-keyboard-response","411","2.0.0","360203","pyq7harcz8f","ono","koala","21","male","no","no","0","4","null","","null","","","","","","",""
"","","","","","image-keyboard-response","412","2.0.0","361148","pyq7harcz8f","ono","koala","21","male","no","no","0","4","943","stimuli/pictures/hiccup_wom_1.jpg","0","0","","true","no","sound","stimuli/sounds/drop_label_A.wav",""
"","","","","","audio-keyboard-response","413","2.0.0","362162","pyq7harcz8f","ono","koala","21","male","no","no","0","4","null","stimuli/sounds/bleep.wav","null","","","","","","",""
"","","","","","html-keyboard-response","414","2.0.0","365150","pyq7harcz8f","ono","koala","21","male","no","no","0","4","2877","<div style=""font-size:30px;"">Press space to start the trial</div>"," ","","","","","","",""
"","","","","","html-keyboard-response","415","2.0.0","365410","pyq7harcz8f","ono","koala","21","male","no","no","0","4","null","<div style=""font-size:60px;"">+</div>","null","","","","","","",""
"","","","","","audio-keyboard-response","416","2.0.0","366047","pyq7harcz8f","ono","koala","21","male","no","no","0","4","null","stimuli/sounds/cough_label_A.wav","null","","","","","","",""
"","","","","","html-keyboard-response","417","2.0.0","367056","pyq7harcz8f","ono","koala","21","male","no","no","0","4","null","","null","","","","","","",""
"","","","","","image-keyboard-response","418","2.0.0","368001","pyq7harcz8f","ono","koala","21","male","no","no","0","4","943","stimuli/pictures/motor_harley_2.jpg","0","0","","true","no","sound","stimuli/sounds/cough_label_A.wav",""
"","","","","","audio-keyboard-response","419","2.0.0","369014","pyq7harcz8f","ono","koala","21","male","no","no","0","4","null","stimuli/sounds/bleep.wav","null","","","","","","",""
"","","","","","html-keyboard-response","420","2.0.0","370346","pyq7harcz8f","ono","koala","21","male","no","no","0","4","1219","<div style=""font-size:30px;"">Press space to start the trial</div>"," ","","","","","","",""
"","","","","","html-keyboard-response","421","2.0.0","370597","pyq7harcz8f","ono","koala","21","male","no","no","0","4","null","<div style=""font-size:60px;"">+</div>","null","","","","","","",""
"","","","","","audio-keyboard-response","422","2.0.0","371198","pyq7harcz8f","ono","koala","21","male","no","no","0","4","null","stimuli/sounds/dog_label_A.wav","null","","","","","","",""
"","","","","","html-keyboard-response","423","2.0.0","372212","pyq7harcz8f","ono","koala","21","male","no","no","0","4","null","","null","","","","","","",""
"","","","","","image-keyboard-response","424","2.0.0","372631","pyq7harcz8f","ono","koala","21","male","no","no","0","4","417","stimuli/pictures/dog_rott_2.jpg","1","1","","true","yes","sound","stimuli/sounds/dog_label_A.wav",""
"","","","","","audio-keyboard-response","425","2.0.0","373634","pyq7harcz8f","ono","koala","21","male","no","no","0","4","null","stimuli/sounds/bleep.wav","null","","","","","","",""
"","","","","","html-keyboard-response","426","2.0.0","374435","pyq7harcz8f","ono","koala","21","male","no","no","0","4","689","<div style=""font-size:30px;"">Press space to start the trial</div>"," ","","","","","","",""
"","","","","","html-keyboard-response","427","2.0.0","374693","pyq7harcz8f","ono","koala","21","male","no","no","0","4","null","<div style=""font-size:60px;"">+</div>","null","","","","","","",""
"","","","","","audio-keyboard-response","428","2.0.0","375288","pyq7harcz8f","ono","koala","21","male","no","no","0","4","null","stimuli/sounds/motor_sound_B.wav","null","","","","","","",""
"","","","","","html-keyboard-response","429","2.0.0","376305","pyq7harcz8f","ono","koala","21","male","no","no","0","4","null","","null","","","","","","",""
"","","","","","image-keyboard-response","430","2.0.0","381420","pyq7harcz8f","ono","koala","21","male","no","no","0","4","5114","stimuli/pictures/cough_wom_1.jpg","0","0","","true","no","sound","stimuli/sounds/motor_sound_B.wav",""
"","","","","","audio-keyboard-response","431","2.0.0","382431","pyq7harcz8f","ono","koala","21","male","no","no","0","4","null","stimuli/sounds/bleep.wav","null","","","","","","",""
"","","","","","html-keyboard-response","432","2.0.0","382935","pyq7harcz8f","ono","koala","21","male","no","no","0","4","391","<div style=""font-size:30px;"">Press space to start the trial</div>"," ","","","","","","",""
"","","","","","html-keyboard-response","433","2.0.0","383187","pyq7harcz8f","ono","koala","21","male","no","no","0","4","null","<div style=""font-size:60px;"">+</div>","null","","","","","","",""
"","","","","","audio-keyboard-response","434","2.0.0","383787","pyq7harcz8f","ono","koala","21","male","no","no","0","4","null","stimuli/sounds/hiccup_sound_A.wav","null","","","","","","",""
"","","","","","html-keyboard-response","435","2.0.0","384804","pyq7harcz8f","ono","koala","21","male","no","no","0","4","null","","null","","","","","","",""
"","","","","","image-keyboard-response","436","2.0.0","385343","pyq7harcz8f","ono","koala","21","male","no","no","0","4","537","stimuli/pictures/hiccup_wom_1.jpg","1","1","","true","yes","sound","stimuli/sounds/hiccup_sound_A.wav",""
"","","","","","audio-keyboard-response","437","2.0.0","386350","pyq7harcz8f","ono","koala","21","male","no","no","0","4","null","stimuli/sounds/bleep.wav","null","","","","","","",""
"","","","","","html-keyboard-response","438","2.0.0","388661","pyq7harcz8f","ono","koala","21","male","no","no","0","4","2198","<div style=""font-size:30px;"">Press space to start the trial</div>"," ","","","","","","",""
"","","","","","html-keyboard-response","439","2.0.0","388916","pyq7harcz8f","ono","koala","21","male","no","no","0","4","null","<div style=""font-size:60px;"">+</div>","null","","","","","","",""
"","","","","","audio-keyboard-response","440","2.0.0","389508","pyq7harcz8f","ono","koala","21","male","no","no","0","4","null","stimuli/sounds/dog_label_A.wav","null","","","","","","",""
"","","","","","html-keyboard-response","441","2.0.0","390524","pyq7harcz8f","ono","koala","21","male","no","no","0","4","null","","null","","","","","","",""
"","","","","","image-keyboard-response","442","2.0.0","391963","pyq7harcz8f","ono","koala","21","male","no","no","0","4","1437","stimuli/pictures/drop_single_2.jpg","0","0","","true","no","sound","stimuli/sounds/dog_label_A.wav",""
"","","","","","audio-keyboard-response","443","2.0.0","392972","pyq7harcz8f","ono","koala","21","male","no","no","0","4","null","stimuli/sounds/bleep.wav","null","","","","","","",""
"","","","","","html-keyboard-response","444","2.0.0","393694","pyq7harcz8f","ono","koala","21","male","no","no","0","4","609","<div style=""font-size:30px;"">Press space to start the trial</div>"," ","","","","","","",""
"","","","","","html-keyboard-response","445","2.0.0","393953","pyq7harcz8f","ono","koala","21","male","no","no","0","4","null","<div style=""font-size:60px;"">+</div>","null","","","","","","",""
"","","","","","audio-keyboard-response","446","2.0.0","394538","pyq7harcz8f","ono","koala","21","male","no","no","0","4","null","stimuli/sounds/drop_sound_A.wav","null","","","","","","",""
"","","","","","html-keyboard-response","447","2.0.0","395539","pyq7harcz8f","ono","koala","21","male","no","no","0","4","null","","null","","","","","","",""
"","","","","","image-keyboard-response","448","2.0.0","397127","pyq7harcz8f","ono","koala","21","male","no","no","0","4","1587","stimuli/pictures/cough_wom_2.jpg","0","0","","true","no","sound","stimuli/sounds/drop_sound_A.wav",""
"","","","","","audio-keyboard-response","449","2.0.0","398137","pyq7harcz8f","ono","koala","21","male","no","no","0","4","null","stimuli/sounds/bleep.wav","null","","","","","","",""
"","","","","","html-keyboard-response","450","2.0.0","398710","pyq7harcz8f","ono","koala","21","male","no","no","0","4","459","<div style=""font-size:30px;"">Press space to start the trial</div>"," ","","","","","","",""
"","","","","","html-keyboard-response","451","2.0.0","398971","pyq7harcz8f","ono","koala","21","male","no","no","0","4","null","<div style=""font-size:60px;"">+</div>","null","","","","","","",""
"","","","","","audio-keyboard-response","452","2.0.0","399638","pyq7harcz8f","ono","koala","21","male","no","no","0","4","null","stimuli/sounds/cough_sound_A.wav","null","","","","","","",""
"","","","","","html-keyboard-response","453","2.0.0","400655","pyq7harcz8f","ono","koala","21","male","no","no","0","4","null","","null","","","","","","",""
"","","","","","image-keyboard-response","454","2.0.0","402060","pyq7harcz8f","ono","koala","21","male","no","no","0","4","1404","stimuli/pictures/cough_man_2.jpg","1","1","","true","no","sound","stimuli/sounds/cough_sound_A.wav",""
"","","","","","audio-keyboard-response","455","2.0.0","403063","pyq7harcz8f","ono","koala","21","male","no","no","0","4","null","stimuli/sounds/bleep.wav","null","","","","","","",""
"","","","","","html-keyboard-response","456","2.0.0","403824","pyq7harcz8f","ono","koala","21","male","no","no","0","4","648","<div style=""font-size:30px;"">Press space to start the trial</div>"," ","","","","","","",""
"","","","","","html-keyboard-response","457","2.0.0","404085","pyq7harcz8f","ono","koala","21","male","no","no","0","4","null","<div style=""font-size:60px;"">+</div>","null","","","","","","",""
"","","","","","audio-keyboard-response","458","2.0.0","404668","pyq7harcz8f","ono","koala","21","male","no","no","0","4","null","stimuli/sounds/drop_sound_A.wav","null","","","","","","",""
"","","","","","html-keyboard-response","459","2.0.0","405677","pyq7harcz8f","ono","koala","21","male","no","no","0","4","null","","null","","","","","","",""
"","","","","","image-keyboard-response","460","2.0.0","407148","pyq7harcz8f","ono","koala","21","male","no","no","0","4","1470","stimuli/pictures/drop_single_2.jpg","1","1","","true","yes","sound","stimuli/sounds/drop_sound_A.wav",""
"","","","","","audio-keyboard-response","461","2.0.0","408164","pyq7harcz8f","ono","koala","21","male","no","no","0","4","null","stimuli/sounds/bleep.wav","null","","","","","","",""
"","","","","","html-keyboard-response","462","2.0.0","409048","pyq7harcz8f","ono","koala","21","male","no","no","0","4","771","<div style=""font-size:30px;"">Press space to start the trial</div>"," ","","","","","","",""
"","","","","","html-keyboard-response","463","2.0.0","409306","pyq7harcz8f","ono","koala","21","male","no","no","0","4","null","<div style=""font-size:60px;"">+</div>","null","","","","","","",""
"","","","","","audio-keyboard-response","464","2.0.0","409968","pyq7harcz8f","ono","koala","21","male","no","no","0","4","null","stimuli/sounds/cough_sound_A.wav","null","","","","","","",""
"","","","","","html-keyboard-response","465","2.0.0","410974","pyq7harcz8f","ono","koala","21","male","no","no","0","4","null","","null","","","","","","",""
"","","","","","image-keyboard-response","466","2.0.0","412856","pyq7harcz8f","ono","koala","21","male","no","no","0","4","1882","stimuli/pictures/dog_york_1.jpg","0","0","","true","no","sound","stimuli/sounds/cough_sound_A.wav",""
"","","","","","audio-keyboard-response","467","2.0.0","413864","pyq7harcz8f","ono","koala","21","male","no","no","0","4","null","stimuli/sounds/bleep.wav","null","","","","","","",""
"","","","","","html-keyboard-response","468","2.0.0","414635","pyq7harcz8f","ono","koala","21","male","no","no","0","4","658","<div style=""font-size:30px;"">Press space to start the trial</div>"," ","","","","","","",""
"","","","","","html-keyboard-response","469","2.0.0","414901","pyq7harcz8f","ono","koala","21","male","no","no","0","4","null","<div style=""font-size:60px;"">+</div>","null","","","","","","",""
"","","","","","audio-keyboard-response","470","2.0.0","415448","pyq7harcz8f","ono","koala","21","male","no","no","0","4","null","stimuli/sounds/drop_label_A.wav","null","","","","","","",""
"","","","","","html-keyboard-response","471","2.0.0","416464","pyq7harcz8f","ono","koala","21","male","no","no","0","4","null","","null","","","","","","",""
"","","","","","image-keyboard-response","472","2.0.0","418653","pyq7harcz8f","ono","koala","21","male","no","no","0","4","2181","stimuli/pictures/hiccup_wom_2.jpg","0","0","","true","no","sound","stimuli/sounds/drop_label_A.wav",""
"","","","","","audio-keyboard-response","473","2.0.0","419655","pyq7harcz8f","ono","koala","21","male","no","no","0","4","null","stimuli/sounds/bleep.wav","null","","","","","","",""
"","","","","","html-keyboard-response","474","2.0.0","420252","pyq7harcz8f","ono","koala","21","male","no","no","0","4","484","<div style=""font-size:30px;"">Press space to start the trial</div>"," ","","","","","","",""
"","","","","","html-keyboard-response","475","2.0.0","420519","pyq7harcz8f","ono","koala","21","male","no","no","0","4","null","<div style=""font-size:60px;"">+</div>","null","","","","","","",""
"","","","","","audio-keyboard-response","476","2.0.0","421128","pyq7harcz8f","ono","koala","21","male","no","no","0","4","null","stimuli/sounds/drop_sound_B.wav","null","","","","","","",""
"","","","","","html-keyboard-response","477","2.0.0","422142","pyq7harcz8f","ono","koala","21","male","no","no","0","4","null","","null","","","","","","",""
"","","","","","image-keyboard-response","478","2.0.0","424084","pyq7harcz8f","ono","koala","21","male","no","no","0","4","1941","stimuli/pictures/dog_york_2.jpg","0","0","","true","no","sound","stimuli/sounds/drop_sound_B.wav",""
"","","","","","audio-keyboard-response","479","2.0.0","425089","pyq7harcz8f","ono","koala","21","male","no","no","0","4","null","stimuli/sounds/bleep.wav","null","","","","","","",""
"","","","","","html-keyboard-response","480","2.0.0","425858","pyq7harcz8f","ono","koala","21","male","no","no","0","4","658","<div style=""font-size:30px;"">Press space to start the trial</div>"," ","","","","","","",""
"","","","","","html-keyboard-response","481","2.0.0","426113","pyq7harcz8f","ono","koala","21","male","no","no","0","4","null","<div style=""font-size:60px;"">+</div>","null","","","","","","",""
"","","","","","audio-keyboard-response","482","2.0.0","426718","pyq7harcz8f","ono","koala","21","male","no","no","0","4","null","stimuli/sounds/dog_sound_B.wav","null","","","","","","",""
"","","","","","html-keyboard-response","483","2.0.0","427727","pyq7harcz8f","ono","koala","21","male","no","no","0","4","null","","null","","","","","","",""
"","","","","","image-keyboard-response","484","2.0.0","428403","pyq7harcz8f","ono","koala","21","male","no","no","0","4","675","stimuli/pictures/dog_rott_2.jpg","1","1","","true","no","sound","stimuli/sounds/dog_sound_B.wav",""
"","","","","","audio-keyboard-response","485","2.0.0","429419","pyq7harcz8f","ono","koala","21","male","no","no","0","4","null","stimuli/sounds/bleep.wav","null","","","","","","",""
"","","","","","html-keyboard-response","486","2.0.0","430268","pyq7harcz8f","ono","koala","21","male","no","no","0","4","737","<div style=""font-size:30px;"">Press space to start the trial</div>"," ","","","","","","",""
"","","","","","html-keyboard-response","487","2.0.0","430529","pyq7harcz8f","ono","koala","21","male","no","no","0","4","null","<div style=""font-size:60px;"">+</div>","null","","","","","","",""
"","","","","","audio-keyboard-response","488","2.0.0","431128","pyq7harcz8f","ono","koala","21","male","no","no","0","4","null","stimuli/sounds/motor_label_A.wav","null","","","","","","",""
"","","","","","html-keyboard-response","489","2.0.0","432142","pyq7harcz8f","ono","koala","21","male","no","no","0","4","null","","null","","","","","","",""
"","","","","","image-keyboard-response","490","2.0.0","433668","pyq7harcz8f","ono","koala","21","male","no","no","0","4","1524","stimuli/pictures/dog_rott_1.jpg","0","0","","true","no","sound","stimuli/sounds/motor_label_A.wav",""
"","","","","","audio-keyboard-response","491","2.0.0","434679","pyq7harcz8f","ono","koala","21","male","no","no","0","4","null","stimuli/sounds/bleep.wav","null","","","","","","",""
"","","","","","html-keyboard-response","492","2.0.0","435422","pyq7harcz8f","ono","koala","21","male","no","no","0","4","630","<div style=""font-size:30px;"">Press space to start the trial</div>"," ","","","","","","",""
"","","","","","html-keyboard-response","493","2.0.0","435683","pyq7harcz8f","ono","koala","21","male","no","no","0","4","null","<div style=""font-size:60px;"">+</div>","null","","","","","","",""
"","","","","","audio-keyboard-response","494","2.0.0","436218","pyq7harcz8f","ono","koala","21","male","no","no","0","4","null","stimuli/sounds/hiccup_label_A.wav","null","","","","","","",""
"","","","","","html-keyboard-response","495","2.0.0","437229","pyq7harcz8f","ono","koala","21","male","no","no","0","4","null","","null","","","","","","",""
"","","","","","image-keyboard-response","496","2.0.0","438359","pyq7harcz8f","ono","koala","21","male","no","no","0","4","1128","stimuli/pictures/hiccup_wom_2.jpg","1","1","","true","yes","sound","stimuli/sounds/hiccup_label_A.wav",""
"","","","","","audio-keyboard-response","497","2.0.0","439368","pyq7harcz8f","ono","koala","21","male","no","no","0","4","null","stimuli/sounds/bleep.wav","null","","","","","","",""
"","","","","","html-keyboard-response","498","2.0.0","440118","pyq7harcz8f","ono","koala","21","male","no","no","0","4","637","<div style=""font-size:30px;"">Press space to start the trial</div>"," ","","","","","","",""
