"success","timeout","failed_images","failed_audio","failed_video","trial_type","trial_index","plugin_version","time_elapsed","random_id","condition","participant","age","gender_id","mus_exp","inst_exp","years_exp","mus_listening","rt","stimulus","response","correct_response","practice","correct","congruent","sound_type","audio","question_order"
"true","false","[]","[]","[]","preload","0","2.0.0","4121","pz801oke606","mus","mouse","21","female","yes","yes","5","3","","","","","","","","","",""
"","","","","","html-keyboard-response","1","2.0.0","4938","pz801oke606","mus","mouse","21","female","yes","yes","5","3","815","Welcome to the experiment! Press any key to begin."," ","","","","","","",""
"true","","","","","fullscreen","2","null","6873","pz801oke606","mus","mouse","21","female","yes","yes","5","3","933","","","","","","","","",""
"","","","","","survey-text","3","2.0.0","8988","pz801oke606","mus","mouse","21","female","yes","yes","5","3","2111","","{""participant_id"":""mouse""}","","","","","","",""
"","","","","","html-keyboard-response","4","2.0.0","18167","pz801oke606","mus","mouse","21","female","yes","yes","5","3","9178","
    <p> Please use headphones for the duration of the study.</p>
    <p> Within each trial, you will hear a sound and then be presented with an image in the center of your screen.</p>
    <p>Press the <b>'1'</b> key if what you hear <u>matches</u> what you see.</p>
    <p>Press the <b>'0'</b> key if what you hear <u>does not match</u> what you see.</p>
    <p>Try to respond as quickly and accurately as you can.</p>
    <p> Press any key to begin.</p>
    "," ","","","","","","",""
"","","","","","html-keyboard-response","5","2.0.0","20176","pz801oke606","mus","mouse","21","female","yes","yes","5","3","2008","
    <div style=""font-size:28px;"">
      <p>You will now complete 4 short practice trials.</p>
      <p>This is just to help you get familiar with the task.</p>
      <p>Press any key to begin.</p>
    </div>
  "," ","","","","","","",""
"","","","","","html-keyboard-response","6","2.0.0","20678","pz801oke606","mus","mouse","21","female","yes","yes","5","3","null","<div style=""font-size:60px;"">+</div>","null","","","","","","",""
"","","","","","audio-keyboard-response","7","2.0.0","21571","pz801oke606","mus","mouse","21","female","yes","yes","5","3","null","stimuli/sounds/guitar_label_A.wav","null","","","","","","",""
"","","","","","image-keyboard-response","8","2.0.0","22861","pz801oke606","mus","mouse","21","female","yes","yes","5","3","1282","stimuli/pictures/guitar_acoustic_1.jpg","1","1","true","true","","","",""
"","","","","","audio-keyboard-response","9","2.0.0","23664","pz801oke606","mus","mouse","21","female","yes","yes","5","3","null","stimuli/sounds/bleep.wav","null","","","","","","",""
"","","","","","html-keyboard-response","10","2.0.0","24366","pz801oke606","mus","mouse","21","female","yes","yes","5","3","null","<p style='color:green; font-size:30px;'>Correct!</p>","null","","","","","","",""
"","","","","","html-keyboard-response","11","2.0.0","24868","pz801oke606","mus","mouse","21","female","yes","yes","5","3","null","<div style=""font-size:60px;"">+</div>","null","","","","","","",""
"","","","","","audio-keyboard-response","12","2.0.0","25471","pz801oke606","mus","mouse","21","female","yes","yes","5","3","null","stimuli/sounds/guitar_sound_B.wav","null","","","","","","",""
"","","","","","image-keyboard-response","13","2.0.0","26366","pz801oke606","mus","mouse","21","female","yes","yes","5","3","894","stimuli/pictures/guitar_acoustic_2.jpg","1","1","true","true","","","",""
"","","","","","audio-keyboard-response","14","2.0.0","27173","pz801oke606","mus","mouse","21","female","yes","yes","5","3","null","stimuli/sounds/bleep.wav","null","","","","","","",""
"","","","","","html-keyboard-response","15","2.0.0","27876","pz801oke606","mus","mouse","21","female","yes","yes","5","3","null","<p style='color:green; font-size:30px;'>Correct!</p>","null","","","","","","",""
"","","","","","html-keyboard-response","16","2.0.0","28379","pz801oke606","mus","mouse","21","female","yes","yes","5","3","null","<div style=""font-size:60px;"">+</div>","null","","","","","","",""
"","","","","","audio-keyboard-response","17","2.0.0","28983","pz801oke606","mus","mouse","21","female","yes","yes","5","3","null","stimuli/sounds/flute_sound_A.wav","null","","","","","","",""
"","","","","","image-keyboard-response","18","2.0.0","30022","pz801oke606","mus","mouse","21","female","yes","yes","5","3","1036","stimuli/pictures/guitar_electric_1.jpg","0","0","true","true","","","",""
"","","","","","audio-keyboard-response","19","2.0.0","30824","pz801oke606","mus","mouse","21","female","yes","yes","5","3","null","stimuli/sounds/bleep.wav","null","","","","","","",""
"","","","","","html-keyboard-response","20","2.0.0","31528","pz801oke606","mus","mouse","21","female","yes","yes","5","3","null","<p style='color:green; font-size:30px;'>Correct!</p>","null","","","","","","",""
"","","","","","html-keyboard-response","21","2.0.0","32030","pz801oke606","mus","mouse","21","female","yes","yes","5","3","null","<div style=""font-size:60px;"">+</div>","null","","","","","","",""
"","","","","","audio-keyboard-response","22","2.0.0","32635","pz801oke606","mus","mouse","21","female","yes","yes","5","3","null","stimuli/sounds/guitar_sound_A.wav","null","","","","","","",""
"","","","","","image-keyboard-response","23","2.0.0","34233","pz801oke606","mus","mouse","21","female","yes","yes","5","3","1597","stimuli/pictures/guitar_acoustic_1.jpg","0","1","true","false","","","",""
"","","","","","audio-keyboard-response","24","2.0.0","35036","pz801oke606","mus","mouse","21","female","yes","yes","5","3","null","stimuli/sounds/buzz.wav","null","","","","","","",""
"","","","","","html-keyboard-response","25","2.0.0","35738","pz801oke606","mus","mouse","21","female","yes","yes","5","3","null","<p style='color:red; font-size:30px;'>Incorrect</p>","null","","","","","","",""
"","","","","","html-keyboard-response","26","2.0.0","37227","pz801oke606","mus","mouse","21","female","yes","yes","5","3","1488","<p>Practice complete. Press any key to begin the real experiment.</p>"," ","","","","","","",""
"","","","","","html-keyboard-response","27","2.0.0","39607","pz801oke606","mus","mouse","21","female","yes","yes","5","3","2379","<div style=""font-size:30px;"">Press space to start the trial</div>"," ","","","","","","",""
"","","","","","html-keyboard-response","28","2.0.0","39859","pz801oke606","mus","mouse","21","female","yes","yes","5","3","null","<div style=""font-size:60px;"">+</div>","null","","","","","","",""
"","","","","","audio-keyboard-response","29","2.0.0","40465","pz801oke606","mus","mouse","21","female","yes","yes","5","3","null","stimuli/sounds/piano_sound_A.wav","null","","","","","","",""
"","","","","","html-keyboard-response","30","2.0.0","41467","pz801oke606","mus","mouse","21","female","yes","yes","5","3","null","","null","","","","","","",""
"","","","","","image-keyboard-response","31","2.0.0","42289","pz801oke606","mus","mouse","21","female","yes","yes","5","3","820","stimuli/pictures/piano_grand_2.jpg","1","1","","true","yes","sound","stimuli/sounds/piano_sound_A.wav",""
"","","","","","audio-keyboard-response","32","2.0.0","43292","pz801oke606","mus","mouse","21","female","yes","yes","5","3","null","stimuli/sounds/bleep.wav","null","","","","","","",""
"","","","","","html-keyboard-response","33","2.0.0","46305","pz801oke606","mus","mouse","21","female","yes","yes","5","3","2910","<div style=""font-size:30px;"">Press space to start the trial</div>"," ","","","","","","",""
"","","","","","html-keyboard-response","34","2.0.0","46557","pz801oke606","mus","mouse","21","female","yes","yes","5","3","null","<div style=""font-size:60px;"">+</div>","null","","","","","","",""
"","","","","","audio-keyboard-response","35","2.0.0","47159","pz801oke606","mus","mouse","21","female","yes","yes","5","3","null","stimuli/sounds/phone_sound_B.wav","null","","","","","","",""
"","","","","","html-keyboard-response","36","2.0.0","48161","pz801oke606","mus","mouse","21","female","yes","yes","5","3","null","","null","","","","","","",""
"","","","","","image-keyboard-response","37","2.0.0","49094","pz801oke606","mus","mouse","21","female","yes","yes","5","3","931","stimuli/pictures/piano_grand_2.jpg","0","0","","true","no","sound","stimuli/sounds/phone_sound_B.wav",""
"","","","","","audio-keyboard-response","38","2.0.0","50097","pz801oke606","mus","mouse","21","female","yes","yes","5","3","null","stimuli/sounds/bleep.wav","null","","","","","","",""
"","","","","","html-keyboard-response","39","2.0.0","51380","pz801oke606","mus","mouse","21","female","yes","yes","5","3","1182","<div style=""font-size:30px;"">Press space to start the trial</div>"," ","","","","","","",""
"","","","","","html-keyboard-response","40","2.0.0","51633","pz801oke606","mus","mouse","21","female","yes","yes","5","3","null","<div style=""font-size:60px;"">+</div>","null","","","","","","",""
"","","","","","audio-keyboard-response","41","2.0.0","52238","pz801oke606","mus","mouse","21","female","yes","yes","5","3","null","stimuli/sounds/piano_label_B.wav","null","","","","","","",""
"","","","","","html-keyboard-response","42","2.0.0","53240","pz801oke606","mus","mouse","21","female","yes","yes","5","3","null","","null","","","","","","",""
"","","","","","image-keyboard-response","43","2.0.0","54314","pz801oke606","mus","mouse","21","female","yes","yes","5","3","1072","stimuli/pictures/piano_electric_1.jpg","1","1","","true","yes","sound","stimuli/sounds/piano_label_B.wav",""
"","","","","","audio-keyboard-response","44","2.0.0","55316","pz801oke606","mus","mouse","21","female","yes","yes","5","3","null","stimuli/sounds/bleep.wav","null","","","","","","",""
"","","","","","html-keyboard-response","45","2.0.0","56251","pz801oke606","mus","mouse","21","female","yes","yes","5","3","832","<div style=""font-size:30px;"">Press space to start the trial</div>"," ","","","","","","",""
"","","","","","html-keyboard-response","46","2.0.0","56504","pz801oke606","mus","mouse","21","female","yes","yes","5","3","null","<div style=""font-size:60px;"">+</div>","null","","","","","","",""
"","","","","","audio-keyboard-response","47","2.0.0","57114","pz801oke606","mus","mouse","21","female","yes","yes","5","3","null","stimuli/sounds/flute_sound_B.wav","null","","","","","","",""
"","","","","","html-keyboard-response","48","2.0.0","58116","pz801oke606","mus","mouse","21","female","yes","yes","5","3","null","","null","","","","","","",""
"","","","","","image-keyboard-response","49","2.0.0","59392","pz801oke606","mus","mouse","21","female","yes","yes","5","3","1275","stimuli/pictures/flute_metal_1.jpg","1","1","","true","no","sound","stimuli/sounds/flute_sound_B.wav",""
"","","","","","audio-keyboard-response","50","2.0.0","60395","pz801oke606","mus","mouse","21","female","yes","yes","5","3","null","stimuli/sounds/bleep.wav","null","","","","","","",""
"","","","","","html-keyboard-response","51","2.0.0","61212","pz801oke606","mus","mouse","21","female","yes","yes","5","3","715","<div style=""font-size:30px;"">Press space to start the trial</div>"," ","","","","","","",""
"","","","","","html-keyboard-response","52","2.0.0","61465","pz801oke606","mus","mouse","21","female","yes","yes","5","3","null","<div style=""font-size:60px;"">+</div>","null","","","","","","",""
"","","","","","audio-keyboard-response","53","2.0.0","62066","pz801oke606","mus","mouse","21","female","yes","yes","5","3","null","stimuli/sounds/bird_label_B.wav","null","","","","","","",""
"","","","","","html-keyboard-response","54","2.0.0","63068","pz801oke606","mus","mouse","21","female","yes","yes","5","3","null","","null","","","","","","",""
"","","","","","image-keyboard-response","55","2.0.0","63620","pz801oke606","mus","mouse","21","female","yes","yes","5","3","550","stimuli/pictures/phone_cell_1.jpg","0","0","","true","no","sound","stimuli/sounds/bird_label_B.wav",""
"","","","","","audio-keyboard-response","56","2.0.0","64622","pz801oke606","mus","mouse","21","female","yes","yes","5","3","null","stimuli/sounds/bleep.wav","null","","","","","","",""
"","","","","","html-keyboard-response","57","2.0.0","65132","pz801oke606","mus","mouse","21","female","yes","yes","5","3","409","<div style=""font-size:30px;"">Press space to start the trial</div>"," ","","","","","","",""
"","","","","","html-keyboard-response","58","2.0.0","65384","pz801oke606","mus","mouse","21","female","yes","yes","5","3","null","<div style=""font-size:60px;"">+</div>","null","","","","","","",""
"","","","","","audio-keyboard-response","59","2.0.0","65990","pz801oke606","mus","mouse","21","female","yes","yes","5","3","null","stimuli/sounds/flute_sound_B.wav","null","","","","","","",""
"","","","","","html-keyboard-response","60","2.0.0","66992","pz801oke606","mus","mouse","21","female","yes","yes","5","3","null","","null","","","","","","",""
"","","","","","image-keyboard-response","61","2.0.0","67767","pz801oke606","mus","mouse","21","female","yes","yes","5","3","773","stimuli/pictures/flute_wooden_1.jpg","1","1","","true","yes","sound","stimuli/sounds/flute_sound_B.wav",""
"","","","","","audio-keyboard-response","62","2.0.0","68769","pz801oke606","mus","mouse","21","female","yes","yes","5","3","null","stimuli/sounds/bleep.wav","null","","","","","","",""
"","","","","","html-keyboard-response","63","2.0.0","69521","pz801oke606","mus","mouse","21","female","yes","yes","5","3","650","<div style=""font-size:30px;"">Press space to start the trial</div>"," ","","","","","","",""
"","","","","","html-keyboard-response","64","2.0.0","69774","pz801oke606","mus","mouse","21","female","yes","yes","5","3","null","<div style=""font-size:60px;"">+</div>","null","","","","","","",""
"","","","","","audio-keyboard-response","65","2.0.0","70378","pz801oke606","mus","mouse","21","female","yes","yes","5","3","null","stimuli/sounds/drum_sound_A.wav","null","","","","","","",""
"","","","","","html-keyboard-response","66","2.0.0","71381","pz801oke606","mus","mouse","21","female","yes","yes","5","3","null","","null","","","","","","",""
"","","","","","image-keyboard-response","67","2.0.0","72042","pz801oke606","mus","mouse","21","female","yes","yes","5","3","660","stimuli/pictures/drum_kit_2.jpg","1","1","","true","yes","sound","stimuli/sounds/drum_sound_A.wav",""
"","","","","","audio-keyboard-response","68","2.0.0","73044","pz801oke606","mus","mouse","21","female","yes","yes","5","3","null","stimuli/sounds/bleep.wav","null","","","","","","",""
"","","","","","html-keyboard-response","69","2.0.0","74039","pz801oke606","mus","mouse","21","female","yes","yes","5","3","892","<div style=""font-size:30px;"">Press space to start the trial</div>"," ","","","","","","",""
"","","","","","html-keyboard-response","70","2.0.0","74292","pz801oke606","mus","mouse","21","female","yes","yes","5","3","null","<div style=""font-size:60px;"">+</div>","null","","","","","","",""
"","","","","","audio-keyboard-response","71","2.0.0","74895","pz801oke606","mus","mouse","21","female","yes","yes","5","3","null","stimuli/sounds/piano_sound_B.wav","null","","","","","","",""
"","","","","","html-keyboard-response","72","2.0.0","75897","pz801oke606","mus","mouse","21","female","yes","yes","5","3","null","","null","","","","","","",""
"","","","","","image-keyboard-response","73","2.0.0","76507","pz801oke606","mus","mouse","21","female","yes","yes","5","3","608","stimuli/pictures/flute_metal_2.jpg","0","0","","true","no","sound","stimuli/sounds/piano_sound_B.wav",""
"","","","","","audio-keyboard-response","74","2.0.0","77509","pz801oke606","mus","mouse","21","female","yes","yes","5","3","null","stimuli/sounds/bleep.wav","null","","","","","","",""
"","","","","","html-keyboard-response","75","2.0.0","77971","pz801oke606","mus","mouse","21","female","yes","yes","5","3","359","<div style=""font-size:30px;"">Press space to start the trial</div>"," ","","","","","","",""
"","","","","","html-keyboard-response","76","2.0.0","78223","pz801oke606","mus","mouse","21","female","yes","yes","5","3","null","<div style=""font-size:60px;"">+</div>","null","","","","","","",""
"","","","","","audio-keyboard-response","77","2.0.0","78824","pz801oke606","mus","mouse","21","female","yes","yes","5","3","null","stimuli/sounds/bird_label_A.wav","null","","","","","","",""
"","","","","","html-keyboard-response","78","2.0.0","79826","pz801oke606","mus","mouse","21","female","yes","yes","5","3","null","","null","","","","","","",""
"","","","","","image-keyboard-response","79","2.0.0","80532","pz801oke606","mus","mouse","21","female","yes","yes","5","3","705","stimuli/pictures/bird_hawk_1.jpg","1","1","","true","yes","sound","stimuli/sounds/bird_label_A.wav",""
"","","","","","audio-keyboard-response","80","2.0.0","81534","pz801oke606","mus","mouse","21","female","yes","yes","5","3","null","stimuli/sounds/bleep.wav","null","","","","","","",""
"","","","","","html-keyboard-response","81","2.0.0","82275","pz801oke606","mus","mouse","21","female","yes","yes","5","3","640","<div style=""font-size:30px;"">Press space to start the trial</div>"," ","","","","","","",""
"","","","","","html-keyboard-response","82","2.0.0","82527","pz801oke606","mus","mouse","21","female","yes","yes","5","3","null","<div style=""font-size:60px;"">+</div>","null","","","","","","",""
"","","","","","audio-keyboard-response","83","2.0.0","83138","pz801oke606","mus","mouse","21","female","yes","yes","5","3","null","stimuli/sounds/flute_label_B.wav","null","","","","","","",""
"","","","","","html-keyboard-response","84","2.0.0","84139","pz801oke606","mus","mouse","21","female","yes","yes","5","3","null","","null","","","","","","",""
"","","","","","image-keyboard-response","85","2.0.0","85052","pz801oke606","mus","mouse","21","female","yes","yes","5","3","912","stimuli/pictures/drum_kit_2.jpg","0","0","","true","no","sound","stimuli/sounds/flute_label_B.wav",""
"","","","","","audio-keyboard-response","86","2.0.0","86054","pz801oke606","mus","mouse","21","female","yes","yes","5","3","null","stimuli/sounds/bleep.wav","null","","","","","","",""
"","","","","","html-keyboard-response","87","2.0.0","86737","pz801oke606","mus","mouse","21","female","yes","yes","5","3","581","<div style=""font-size:30px;"">Press space to start the trial</div>"," ","","","","","","",""
"","","","","","html-keyboard-response","88","2.0.0","86989","pz801oke606","mus","mouse","21","female","yes","yes","5","3","null","<div style=""font-size:60px;"">+</div>","null","","","","","","",""
"","","","","","audio-keyboard-response","89","2.0.0","87596","pz801oke606","mus","mouse","21","female","yes","yes","5","3","null","stimuli/sounds/flute_sound_B.wav","null","","","","","","",""
"","","","","","html-keyboard-response","90","2.0.0","88598","pz801oke606","mus","mouse","21","female","yes","yes","5","3","null","","null","","","","","","",""
"","","","","","image-keyboard-response","91","2.0.0","89419","pz801oke606","mus","mouse","21","female","yes","yes","5","3","819","stimuli/pictures/flute_wooden_2.jpg","1","1","","true","yes","sound","stimuli/sounds/flute_sound_B.wav",""
"","","","","","audio-keyboard-response","92","2.0.0","90420","pz801oke606","mus","mouse","21","female","yes","yes","5","3","null","stimuli/sounds/bleep.wav","null","","","","","","",""
"","","","","","html-keyboard-response","93","2.0.0","90927","pz801oke606","mus","mouse","21","female","yes","yes","5","3","406","<div style=""font-size:30px;"">Press space to start the trial</div>"," ","","","","","","",""
"","","","","","html-keyboard-response","94","2.0.0","91179","pz801oke606","mus","mouse","21","female","yes","yes","5","3","null","<div style=""font-size:60px;"">+</div>","null","","","","","","",""
"","","","","","audio-keyboard-response","95","2.0.0","91781","pz801oke606","mus","mouse","21","female","yes","yes","5","3","null","stimuli/sounds/flute_label_A.wav","null","","","","","","",""
"","","","","","html-keyboard-response","96","2.0.0","92783","pz801oke606","mus","mouse","21","female","yes","yes","5","3","null","","null","","","","","","",""
"","","","","","image-keyboard-response","97","2.0.0","94109","pz801oke606","mus","mouse","21","female","yes","yes","5","3","1324","stimuli/pictures/piano_grand_2.jpg","0","0","","true","no","sound","stimuli/sounds/flute_label_A.wav",""
"","","","","","audio-keyboard-response","98","2.0.0","95111","pz801oke606","mus","mouse","21","female","yes","yes","5","3","null","stimuli/sounds/bleep.wav","null","","","","","","",""
"","","","","","html-keyboard-response","99","2.0.0","95727","pz801oke606","mus","mouse","21","female","yes","yes","5","3","514","<div style=""font-size:30px;"">Press space to start the trial</div>"," ","","","","","","",""
"","","","","","html-keyboard-response","100","2.0.0","95979","pz801oke606","mus","mouse","21","female","yes","yes","5","3","null","<div style=""font-size:60px;"">+</div>","null","","","","","","",""
"","","","","","audio-keyboard-response","101","2.0.0","96582","pz801oke606","mus","mouse","21","female","yes","yes","5","3","null","stimuli/sounds/flute_sound_A.wav","null","","","","","","",""
"","","","","","html-keyboard-response","102","2.0.0","97584","pz801oke606","mus","mouse","21","female","yes","yes","5","3","null","","null","","","","","","",""
"","","","","","image-keyboard-response","103","2.0.0","98605","pz801oke606","mus","mouse","21","female","yes","yes","5","3","1020","stimuli/pictures/phone_cell_2.jpg","0","0","","true","no","sound","stimuli/sounds/flute_sound_A.wav",""
"","","","","","audio-keyboard-response","104","2.0.0","99608","pz801oke606","mus","mouse","21","female","yes","yes","5","3","null","stimuli/sounds/bleep.wav","null","","","","","","",""
"","","","","","html-keyboard-response","105","2.0.0","100129","pz801oke606","mus","mouse","21","female","yes","yes","5","3","419","<div style=""font-size:30px;"">Press space to start the trial</div>"," ","","","","","","",""
"","","","","","html-keyboard-response","106","2.0.0","100381","pz801oke606","mus","mouse","21","female","yes","yes","5","3","null","<div style=""font-size:60px;"">+</div>","null","","","","","","",""
"","","","","","audio-keyboard-response","107","2.0.0","100982","pz801oke606","mus","mouse","21","female","yes","yes","5","3","null","stimuli/sounds/piano_label_B.wav","null","","","","","","",""
"","","","","","html-keyboard-response","108","2.0.0","101984","pz801oke606","mus","mouse","21","female","yes","yes","5","3","null","","null","","","","","","",""
"","","","","","image-keyboard-response","109","2.0.0","102529","pz801oke606","mus","mouse","21","female","yes","yes","5","3","544","stimuli/pictures/bird_hawk_1.jpg","0","0","","true","no","sound","stimuli/sounds/piano_label_B.wav",""
"","","","","","audio-keyboard-response","110","2.0.0","103532","pz801oke606","mus","mouse","21","female","yes","yes","5","3","null","stimuli/sounds/bleep.wav","null","","","","","","",""
"","","","","","html-keyboard-response","111","2.0.0","104067","pz801oke606","mus","mouse","21","female","yes","yes","5","3","433","<div style=""font-size:30px;"">Press space to start the trial</div>"," ","","","","","","",""
"","","","","","html-keyboard-response","112","2.0.0","104320","pz801oke606","mus","mouse","21","female","yes","yes","5","3","null","<div style=""font-size:60px;"">+</div>","null","","","","","","",""
"","","","","","audio-keyboard-response","113","2.0.0","104923","pz801oke606","mus","mouse","21","female","yes","yes","5","3","null","stimuli/sounds/flute_label_A.wav","null","","","","","","",""
"","","","","","html-keyboard-response","114","2.0.0","105925","pz801oke606","mus","mouse","21","female","yes","yes","5","3","null","","null","","","","","","",""
"","","","","","image-keyboard-response","115","2.0.0","106777","pz801oke606","mus","mouse","21","female","yes","yes","5","3","850","stimuli/pictures/piano_electric_1.jpg","0","0","","true","no","sound","stimuli/sounds/flute_label_A.wav",""
"","","","","","audio-keyboard-response","116","2.0.0","107779","pz801oke606","mus","mouse","21","female","yes","yes","5","3","null","stimuli/sounds/bleep.wav","null","","","","","","",""
"","","","","","html-keyboard-response","117","2.0.0","108777","pz801oke606","mus","mouse","21","female","yes","yes","5","3","895","<div style=""font-size:30px;"">Press space to start the trial</div>"," ","","","","","","",""
"","","","","","html-keyboard-response","118","2.0.0","109029","pz801oke606","mus","mouse","21","female","yes","yes","5","3","null","<div style=""font-size:60px;"">+</div>","null","","","","","","",""
"","","","","","audio-keyboard-response","119","2.0.0","109631","pz801oke606","mus","mouse","21","female","yes","yes","5","3","null","stimuli/sounds/phone_label_A.wav","null","","","","","","",""
"","","","","","html-keyboard-response","120","2.0.0","110634","pz801oke606","mus","mouse","21","female","yes","yes","5","3","null","","null","","","","","","",""
"","","","","","image-keyboard-response","121","2.0.0","111183","pz801oke606","mus","mouse","21","female","yes","yes","5","3","549","stimuli/pictures/drum_kit_2.jpg","0","0","","true","no","sound","stimuli/sounds/phone_label_A.wav",""
"","","","","","audio-keyboard-response","122","2.0.0","112185","pz801oke606","mus","mouse","21","female","yes","yes","5","3","null","stimuli/sounds/bleep.wav","null","","","","","","",""
"","","","","","html-keyboard-response","123","2.0.0","113509","pz801oke606","mus","mouse","21","female","yes","yes","5","3","1223","<div style=""font-size:30px;"">Press space to start the trial</div>"," ","","","","","","",""
"","","","","","html-keyboard-response","124","2.0.0","113761","pz801oke606","mus","mouse","21","female","yes","yes","5","3","null","<div style=""font-size:60px;"">+</div>","null","","","","","","",""
"","","","","","audio-keyboard-response","125","2.0.0","114362","pz801oke606","mus","mouse","21","female","yes","yes","5","3","null","stimuli/sounds/bird_label_A.wav","null","","","","","","",""
"","","","","","html-keyboard-response","126","2.0.0","115365","pz801oke606","mus","mouse","21","female","yes","yes","5","3","null","","null","","","","","","",""
"","","","","","image-keyboard-response","127","2.0.0","116000","pz801oke606","mus","mouse","21","female","yes","yes","5","3","634","stimuli/pictures/flute_wooden_1.jpg","0","0","","true","no","sound","stimuli/sounds/bird_label_A.wav",""
"","","","","","audio-keyboard-response","128","2.0.0","117003","pz801oke606","mus","mouse","21","female","yes","yes","5","3","null","stimuli/sounds/bleep.wav","null","","","","","","",""
"","","","","","html-keyboard-response","129","2.0.0","117672","pz801oke606","mus","mouse","21","female","yes","yes","5","3","567","<div style=""font-size:30px;"">Press space to start the trial</div>"," ","","","","","","",""
"","","","","","html-keyboard-response","130","2.0.0","117925","pz801oke606","mus","mouse","21","female","yes","yes","5","3","null","<div style=""font-size:60px;"">+</div>","null","","","","","","",""
"","","","","","audio-keyboard-response","131","2.0.0","118525","pz801oke606","mus","mouse","21","female","yes","yes","5","3","null","stimuli/sounds/drum_label_B.wav","null","","","","","","",""
"","","","","","html-keyboard-response","132","2.0.0","119526","pz801oke606","mus","mouse","21","female","yes","yes","5","3","null","","null","","","","","","",""
"","","","","","image-keyboard-response","133","2.0.0","120142","pz801oke606","mus","mouse","21","female","yes","yes","5","3","615","stimuli/pictures/piano_electric_1.jpg","0","0","","true","no","sound","stimuli/sounds/drum_label_B.wav",""
"","","","","","audio-keyboard-response","134","2.0.0","121145","pz801oke606","mus","mouse","21","female","yes","yes","5","3","null","stimuli/sounds/bleep.wav","null","","","","","","",""
"","","","","","html-keyboard-response","135","2.0.0","121556","pz801oke606","mus","mouse","21","female","yes","yes","5","3","310","<div style=""font-size:30px;"">Press space to start the trial</div>"," ","","","","","","",""
"","","","","","html-keyboard-response","136","2.0.0","121808","pz801oke606","mus","mouse","21","female","yes","yes","5","3","null","<div style=""font-size:60px;"">+</div>","null","","","","","","",""
"","","","","","audio-keyboard-response","137","2.0.0","122408","pz801oke606","mus","mouse","21","female","yes","yes","5","3","null","stimuli/sounds/bird_label_B.wav","null","","","","","","",""
"","","","","","html-keyboard-response","138","2.0.0","123410","pz801oke606","mus","mouse","21","female","yes","yes","5","3","null","","null","","","","","","",""
"","","","","","image-keyboard-response","139","2.0.0","123925","pz801oke606","mus","mouse","21","female","yes","yes","5","3","514","stimuli/pictures/phone_rotary_1.jpg","0","0","","true","no","sound","stimuli/sounds/bird_label_B.wav",""
"","","","","","audio-keyboard-response","140","2.0.0","124927","pz801oke606","mus","mouse","21","female","yes","yes","5","3","null","stimuli/sounds/bleep.wav","null","","","","","","",""
"","","","","","html-keyboard-response","141","2.0.0","125433","pz801oke606","mus","mouse","21","female","yes","yes","5","3","404","<div style=""font-size:30px;"">Press space to start the trial</div>"," ","","","","","","",""
"","","","","","html-keyboard-response","142","2.0.0","125686","pz801oke606","mus","mouse","21","female","yes","yes","5","3","null","<div style=""font-size:60px;"">+</div>","null","","","","","","",""
"","","","","","audio-keyboard-response","143","2.0.0","126286","pz801oke606","mus","mouse","21","female","yes","yes","5","3","null","stimuli/sounds/bird_sound_B.wav","null","","","","","","",""
"","","","","","html-keyboard-response","144","2.0.0","127288","pz801oke606","mus","mouse","21","female","yes","yes","5","3","null","","null","","","","","","",""
"","","","","","image-keyboard-response","145","2.0.0","127896","pz801oke606","mus","mouse","21","female","yes","yes","5","3","606","stimuli/pictures/drum_kit_2.jpg","0","0","","true","no","sound","stimuli/sounds/bird_sound_B.wav",""
"","","","","","audio-keyboard-response","146","2.0.0","128898","pz801oke606","mus","mouse","21","female","yes","yes","5","3","null","stimuli/sounds/bleep.wav","null","","","","","","",""
"","","","","","html-keyboard-response","147","2.0.0","130669","pz801oke606","mus","mouse","21","female","yes","yes","5","3","1669","<p>You have completed a block. Press R when you are ready to continue</p>","r","","","","","","",""
"","","","","","html-keyboard-response","148","2.0.0","132907","pz801oke606","mus","mouse","21","female","yes","yes","5","3","2237","<div style=""font-size:30px;"">Press space to start the trial</div>"," ","","","","","","",""
"","","","","","html-keyboard-response","149","2.0.0","133159","pz801oke606","mus","mouse","21","female","yes","yes","5","3","null","<div style=""font-size:60px;"">+</div>","null","","","","","","",""
"","","","","","audio-keyboard-response","150","2.0.0","133763","pz801oke606","mus","mouse","21","female","yes","yes","5","3","null","stimuli/sounds/drum_sound_A.wav","null","","","","","","",""
"","","","","","html-keyboard-response","151","2.0.0","134765","pz801oke606","mus","mouse","21","female","yes","yes","5","3","null","","null","","","","","","",""
"","","","","","image-keyboard-response","152","2.0.0","135971","pz801oke606","mus","mouse","21","female","yes","yes","5","3","1205","stimuli/pictures/drum_bongo_2.jpg","1","1","","true","no","sound","stimuli/sounds/drum_sound_A.wav",""
"","","","","","audio-keyboard-response","153","2.0.0","136974","pz801oke606","mus","mouse","21","female","yes","yes","5","3","null","stimuli/sounds/bleep.wav","null","","","","","","",""
"","","","","","html-keyboard-response","154","2.0.0","137664","pz801oke606","mus","mouse","21","female","yes","yes","5","3","588","<div style=""font-size:30px;"">Press space to start the trial</div>"," ","","","","","","",""
"","","","","","html-keyboard-response","155","2.0.0","137916","pz801oke606","mus","mouse","21","female","yes","yes","5","3","null","<div style=""font-size:60px;"">+</div>","null","","","","","","",""
"","","","","","audio-keyboard-response","156","2.0.0","138517","pz801oke606","mus","mouse","21","female","yes","yes","5","3","null","stimuli/sounds/flute_label_A.wav","null","","","","","","",""
"","","","","","html-keyboard-response","157","2.0.0","139519","pz801oke606","mus","mouse","21","female","yes","yes","5","3","null","","null","","","","","","",""
"","","","","","image-keyboard-response","158","2.0.0","140198","pz801oke606","mus","mouse","21","female","yes","yes","5","3","679","stimuli/pictures/flute_wooden_2.jpg","1","1","","true","yes","sound","stimuli/sounds/flute_label_A.wav",""
"","","","","","audio-keyboard-response","159","2.0.0","141201","pz801oke606","mus","mouse","21","female","yes","yes","5","3","null","stimuli/sounds/bleep.wav","null","","","","","","",""
"","","","","","html-keyboard-response","160","2.0.0","141974","pz801oke606","mus","mouse","21","female","yes","yes","5","3","672","<div style=""font-size:30px;"">Press space to start the trial</div>"," ","","","","","","",""
"","","","","","html-keyboard-response","161","2.0.0","142226","pz801oke606","mus","mouse","21","female","yes","yes","5","3","null","<div style=""font-size:60px;"">+</div>","null","","","","","","",""
"","","","","","audio-keyboard-response","162","2.0.0","142830","pz801oke606","mus","mouse","21","female","yes","yes","5","3","null","stimuli/sounds/bird_label_A.wav","null","","","","","","",""
"","","","","","html-keyboard-response","163","2.0.0","143833","pz801oke606","mus","mouse","21","female","yes","yes","5","3","null","","null","","","","","","",""
"","","","","","image-keyboard-response","164","2.0.0","144424","pz801oke606","mus","mouse","21","female","yes","yes","5","3","591","stimuli/pictures/flute_metal_1.jpg","0","0","","true","no","sound","stimuli/sounds/bird_label_A.wav",""
"","","","","","audio-keyboard-response","165","2.0.0","145427","pz801oke606","mus","mouse","21","female","yes","yes","5","3","null","stimuli/sounds/bleep.wav","null","","","","","","",""
"","","","","","html-keyboard-response","166","2.0.0","145972","pz801oke606","mus","mouse","21","female","yes","yes","5","3","443","<div style=""font-size:30px;"">Press space to start the trial</div>"," ","","","","","","",""
"","","","","","html-keyboard-response","167","2.0.0","146224","pz801oke606","mus","mouse","21","female","yes","yes","5","3","null","<div style=""font-size:60px;"">+</div>","null","","","","","","",""
"","","","","","audio-keyboard-response","168","2.0.0","146824","pz801oke606","mus","mouse","21","female","yes","yes","5","3","null","stimuli/sounds/bird_sound_A.wav","null","","","","","","",""
"","","","","","html-keyboard-response","169","2.0.0","147826","pz801oke606","mus","mouse","21","female","yes","yes","5","3","null","","null","","","","","","",""
"","","","","","image-keyboard-response","170","2.0.0","148658","pz801oke606","mus","mouse","21","female","yes","yes","5","3","830","stimuli/pictures/bird_song_2.jpg","1","1","","true","no","sound","stimuli/sounds/bird_sound_A.wav",""
"","","","","","audio-keyboard-response","171","2.0.0","149660","pz801oke606","mus","mouse","21","female","yes","yes","5","3","null","stimuli/sounds/bleep.wav","null","","","","","","",""
"","","","","","html-keyboard-response","172","2.0.0","151082","pz801oke606","mus","mouse","21","female","yes","yes","5","3","1320","<div style=""font-size:30px;"">Press space to start the trial</div>"," ","","","","","","",""
"","","","","","html-keyboard-response","173","2.0.0","151335","pz801oke606","mus","mouse","21","female","yes","yes","5","3","null","<div style=""font-size:60px;"">+</div>","null","","","","","","",""
"","","","","","audio-keyboard-response","174","2.0.0","151938","pz801oke606","mus","mouse","21","female","yes","yes","5","3","null","stimuli/sounds/phone_sound_B.wav","null","","","","","","",""
"","","","","","html-keyboard-response","175","2.0.0","152940","pz801oke606","mus","mouse","21","female","yes","yes","5","3","null","","null","","","","","","",""
"","","","","","image-keyboard-response","176","2.0.0","153984","pz801oke606","mus","mouse","21","female","yes","yes","5","3","1044","stimuli/pictures/phone_cell_1.jpg","1","1","","true","no","sound","stimuli/sounds/phone_sound_B.wav",""
"","","","","","audio-keyboard-response","177","2.0.0","154987","pz801oke606","mus","mouse","21","female","yes","yes","5","3","null","stimuli/sounds/bleep.wav","null","","","","","","",""
"","","","","","html-keyboard-response","178","2.0.0","155747","pz801oke606","mus","mouse","21","female","yes","yes","5","3","659","<div style=""font-size:30px;"">Press space to start the trial</div>"," ","","","","","","",""
"","","","","","html-keyboard-response","179","2.0.0","155999","pz801oke606","mus","mouse","21","female","yes","yes","5","3","null","<div style=""font-size:60px;"">+</div>","null","","","","","","",""
"","","","","","audio-keyboard-response","180","2.0.0","156599","pz801oke606","mus","mouse","21","female","yes","yes","5","3","null","stimuli/sounds/phone_label_A.wav","null","","","","","","",""
"","","","","","html-keyboard-response","181","2.0.0","157602","pz801oke606","mus","mouse","21","female","yes","yes","5","3","null","","null","","","","","","",""
"","","","","","image-keyboard-response","182","2.0.0","158178","pz801oke606","mus","mouse","21","female","yes","yes","5","3","575","stimuli/pictures/phone_rotary_1.jpg","1","1","","true","yes","sound","stimuli/sounds/phone_label_A.wav",""
"","","","","","audio-keyboard-response","183","2.0.0","159180","pz801oke606","mus","mouse","21","female","yes","yes","5","3","null","stimuli/sounds/bleep.wav","null","","","","","","",""
"","","","","","html-keyboard-response","184","2.0.0","159660","pz801oke606","mus","mouse","21","female","yes","yes","5","3","379","<div style=""font-size:30px;"">Press space to start the trial</div>"," ","","","","","","",""
"","","","","","html-keyboard-response","185","2.0.0","159911","pz801oke606","mus","mouse","21","female","yes","yes","5","3","null","<div style=""font-size:60px;"">+</div>","null","","","","","","",""
"","","","","","audio-keyboard-response","186","2.0.0","160518","pz801oke606","mus","mouse","21","female","yes","yes","5","3","null","stimuli/sounds/piano_sound_A.wav","null","","","","","","",""
"","","","","","html-keyboard-response","187","2.0.0","161519","pz801oke606","mus","mouse","21","female","yes","yes","5","3","null","","null","","","","","","",""
"","","","","","image-keyboard-response","188","2.0.0","162505","pz801oke606","mus","mouse","21","female","yes","yes","5","3","985","stimuli/pictures/piano_electric_1.jpg","1","1","","true","no","sound","stimuli/sounds/piano_sound_A.wav",""
"","","","","","audio-keyboard-response","189","2.0.0","163507","pz801oke606","mus","mouse","21","female","yes","yes","5","3","null","stimuli/sounds/bleep.wav","null","","","","","","",""
"","","","","","html-keyboard-response","190","2.0.0","164077","pz801oke606","mus","mouse","21","female","yes","yes","5","3","468","<div style=""font-size:30px;"">Press space to start the trial</div>"," ","","","","","","",""
"","","","","","html-keyboard-response","191","2.0.0","164329","pz801oke606","mus","mouse","21","female","yes","yes","5","3","null","<div style=""font-size:60px;"">+</div>","null","","","","","","",""
"","","","","","audio-keyboard-response","192","2.0.0","164929","pz801oke606","mus","mouse","21","female","yes","yes","5","3","null","stimuli/sounds/drum_sound_B.wav","null","","","","","","",""
"","","","","","html-keyboard-response","193","2.0.0","165931","pz801oke606","mus","mouse","21","female","yes","yes","5","3","null","","null","","","","","","",""
"","","","","","image-keyboard-response","194","2.0.0","166783","pz801oke606","mus","mouse","21","female","yes","yes","5","3","852","stimuli/pictures/phone_cell_2.jpg","0","0","","true","no","sound","stimuli/sounds/drum_sound_B.wav",""
"","","","","","audio-keyboard-response","195","2.0.0","167785","pz801oke606","mus","mouse","21","female","yes","yes","5","3","null","stimuli/sounds/bleep.wav","null","","","","","","",""
"","","","","","html-keyboard-response","196","2.0.0","168906","pz801oke606","mus","mouse","21","female","yes","yes","5","3","1018","<div style=""font-size:30px;"">Press space to start the trial</div>"," ","","","","","","",""
"","","","","","html-keyboard-response","197","2.0.0","169158","pz801oke606","mus","mouse","21","female","yes","yes","5","3","null","<div style=""font-size:60px;"">+</div>","null","","","","","","",""
"","","","","","audio-keyboard-response","198","2.0.0","169759","pz801oke606","mus","mouse","21","female","yes","yes","5","3","null","stimuli/sounds/flute_sound_A.wav","null","","","","","","",""
"","","","","","html-keyboard-response","199","2.0.0","170761","pz801oke606","mus","mouse","21","female","yes","yes","5","3","null","","null","","","","","","",""
"","","","","","image-keyboard-response","200","2.0.0","171557","pz801oke606","mus","mouse","21","female","yes","yes","5","3","795","stimuli/pictures/flute_metal_2.jpg","1","1","","true","yes","sound","stimuli/sounds/flute_sound_A.wav",""
"","","","","","audio-keyboard-response","201","2.0.0","172560","pz801oke606","mus","mouse","21","female","yes","yes","5","3","null","stimuli/sounds/bleep.wav","null","","","","","","",""
"","","","","","html-keyboard-response","202","2.0.0","173141","pz801oke606","mus","mouse","21","female","yes","yes","5","3","479","<div style=""font-size:30px;"">Press space to start the trial</div>"," ","","","","","","",""
"","","","","","html-keyboard-response","203","2.0.0","173393","pz801oke606","mus","mouse","21","female","yes","yes","5","3","null","<div style=""font-size:60px;"">+</div>","null","","","","","","",""
"","","","","","audio-keyboard-response","204","2.0.0","174003","pz801oke606","mus","mouse","21","female","yes","yes","5","3","null","stimuli/sounds/flute_sound_B.wav","null","","","","","","",""
"","","","","","html-keyboard-response","205","2.0.0","175005","pz801oke606","mus","mouse","21","female","yes","yes","5","3","null","","null","","","","","","",""
"","","","","","image-keyboard-response","206","2.0.0","176258","pz801oke606","mus","mouse","21","female","yes","yes","5","3","1252","stimuli/pictures/bird_song_1.jpg","0","0","","true","no","sound","stimuli/sounds/flute_sound_B.wav",""
"","","","","","audio-keyboard-response","207","2.0.0","177260","pz801oke606","mus","mouse","21","female","yes","yes","5","3","null","stimuli/sounds/bleep.wav","null","","","","","","",""
"","","","","","html-keyboard-response","208","2.0.0","177951","pz801oke606","mus","mouse","21","female","yes","yes","5","3","588","<div style=""font-size:30px;"">Press space to start the trial</div>"," ","","","","","","",""
"","","","","","html-keyboard-response","209","2.0.0","178204","pz801oke606","mus","mouse","21","female","yes","yes","5","3","null","<div style=""font-size:60px;"">+</div>","null","","","","","","",""
"","","","","","audio-keyboard-response","210","2.0.0","178803","pz801oke606","mus","mouse","21","female","yes","yes","5","3","null","stimuli/sounds/bird_label_B.wav","null","","","","","","",""
"","","","","","html-keyboard-response","211","2.0.0","179805","pz801oke606","mus","mouse","21","female","yes","yes","5","3","null","","null","","","","","","",""
"","","","","","image-keyboard-response","212","2.0.0","180505","pz801oke606","mus","mouse","21","female","yes","yes","5","3","699","stimuli/pictures/phone_rotary_2.jpg","0","0","","true","no","sound","stimuli/sounds/bird_label_B.wav",""
"","","","","","audio-keyboard-response","213","2.0.0","181508","pz801oke606","mus","mouse","21","female","yes","yes","5","3","null","stimuli/sounds/bleep.wav","null","","","","","","",""
"","","","","","html-keyboard-response","214","2.0.0","182258","pz801oke606","mus","mouse","21","female","yes","yes","5","3","649","<div style=""font-size:30px;"">Press space to start the trial</div>"," ","","","","","","",""
"","","","","","html-keyboard-response","215","2.0.0","182510","pz801oke606","mus","mouse","21","female","yes","yes","5","3","null","<div style=""font-size:60px;"">+</div>","null","","","","","","",""
"","","","","","audio-keyboard-response","216","2.0.0","183111","pz801oke606","mus","mouse","21","female","yes","yes","5","3","null","stimuli/sounds/drum_label_A.wav","null","","","","","","",""
"","","","","","html-keyboard-response","217","2.0.0","184112","pz801oke606","mus","mouse","21","female","yes","yes","5","3","null","","null","","","","","","",""
"","","","","","image-keyboard-response","218","2.0.0","184954","pz801oke606","mus","mouse","21","female","yes","yes","5","3","840","stimuli/pictures/drum_bongo_1.jpg","1","1","","true","yes","sound","stimuli/sounds/drum_label_A.wav",""
"","","","","","audio-keyboard-response","219","2.0.0","185956","pz801oke606","mus","mouse","21","female","yes","yes","5","3","null","stimuli/sounds/bleep.wav","null","","","","","","",""
"","","","","","html-keyboard-response","220","2.0.0","186759","pz801oke606","mus","mouse","21","female","yes","yes","5","3","701","<div style=""font-size:30px;"">Press space to start the trial</div>"," ","","","","","","",""
"","","","","","html-keyboard-response","221","2.0.0","187010","pz801oke606","mus","mouse","21","female","yes","yes","5","3","null","<div style=""font-size:60px;"">+</div>","null","","","","","","",""
"","","","","","audio-keyboard-response","222","2.0.0","187609","pz801oke606","mus","mouse","21","female","yes","yes","5","3","null","stimuli/sounds/drum_sound_A.wav","null","","","","","","",""
"","","","","","html-keyboard-response","223","2.0.0","188612","pz801oke606","mus","mouse","21","female","yes","yes","5","3","null","","null","","","","","","",""
"","","","","","image-keyboard-response","224","2.0.0","189393","pz801oke606","mus","mouse","21","female","yes","yes","5","3","780","stimuli/pictures/flute_metal_2.jpg","0","0","","true","no","sound","stimuli/sounds/drum_sound_A.wav",""
"","","","","","audio-keyboard-response","225","2.0.0","190395","pz801oke606","mus","mouse","21","female","yes","yes","5","3","null","stimuli/sounds/bleep.wav","null","","","","","","",""
"","","","","","html-keyboard-response","226","2.0.0","191034","pz801oke606","mus","mouse","21","female","yes","yes","5","3","537","<div style=""font-size:30px;"">Press space to start the trial</div>"," ","","","","","","",""
"","","","","","html-keyboard-response","227","2.0.0","191286","pz801oke606","mus","mouse","21","female","yes","yes","5","3","null","<div style=""font-size:60px;"">+</div>","null","","","","","","",""
"","","","","","audio-keyboard-response","228","2.0.0","191888","pz801oke606","mus","mouse","21","female","yes","yes","5","3","null","stimuli/sounds/phone_label_A.wav","null","","","","","","",""
"","","","","","html-keyboard-response","229","2.0.0","192890","pz801oke606","mus","mouse","21","female","yes","yes","5","3","null","","null","","","","","","",""
"","","","","","image-keyboard-response","230","2.0.0","193987","pz801oke606","mus","mouse","21","female","yes","yes","5","3","1096","stimuli/pictures/drum_bongo_2.jpg","0","0","","true","no","sound","stimuli/sounds/phone_label_A.wav",""
"","","","","","audio-keyboard-response","231","2.0.0","194989","pz801oke606","mus","mouse","21","female","yes","yes","5","3","null","stimuli/sounds/bleep.wav","null","","","","","","",""
"","","","","","html-keyboard-response","232","2.0.0","195611","pz801oke606","mus","mouse","21","female","yes","yes","5","3","519","<div style=""font-size:30px;"">Press space to start the trial</div>"," ","","","","","","",""
"","","","","","html-keyboard-response","233","2.0.0","195864","pz801oke606","mus","mouse","21","female","yes","yes","5","3","null","<div style=""font-size:60px;"">+</div>","null","","","","","","",""
"","","","","","audio-keyboard-response","234","2.0.0","196468","pz801oke606","mus","mouse","21","female","yes","yes","5","3","null","stimuli/sounds/drum_sound_B.wav","null","","","","","","",""
"","","","","","html-keyboard-response","235","2.0.0","197469","pz801oke606","mus","mouse","21","female","yes","yes","5","3","null","","null","","","","","","",""
"","","","","","image-keyboard-response","236","2.0.0","197942","pz801oke606","mus","mouse","21","female","yes","yes","5","3","472","stimuli/pictures/drum_bongo_2.jpg","1","1","","true","yes","sound","stimuli/sounds/drum_sound_B.wav",""
"","","","","","audio-keyboard-response","237","2.0.0","198945","pz801oke606","mus","mouse","21","female","yes","yes","5","3","null","stimuli/sounds/bleep.wav","null","","","","","","",""
"","","","","","html-keyboard-response","238","2.0.0","199756","pz801oke606","mus","mouse","21","female","yes","yes","5","3","708","<div style=""font-size:30px;"">Press space to start the trial</div>"," ","","","","","","",""
"","","","","","html-keyboard-response","239","2.0.0","200008","pz801oke606","mus","mouse","21","female","yes","yes","5","3","null","<div style=""font-size:60px;"">+</div>","null","","","","","","",""
"","","","","","audio-keyboard-response","240","2.0.0","200636","pz801oke606","mus","mouse","21","female","yes","yes","5","3","null","stimuli/sounds/piano_label_A.wav","null","","","","","","",""
"","","","","","html-keyboard-response","241","2.0.0","201638","pz801oke606","mus","mouse","21","female","yes","yes","5","3","null","","null","","","","","","",""
"","","","","","image-keyboard-response","242","2.0.0","202258","pz801oke606","mus","mouse","21","female","yes","yes","5","3","619","stimuli/pictures/phone_cell_1.jpg","0","0","","true","no","sound","stimuli/sounds/piano_label_A.wav",""
"","","","","","audio-keyboard-response","243","2.0.0","203260","pz801oke606","mus","mouse","21","female","yes","yes","5","3","null","stimuli/sounds/bleep.wav","null","","","","","","",""
"","","","","","html-keyboard-response","244","2.0.0","203895","pz801oke606","mus","mouse","21","female","yes","yes","5","3","533","<div style=""font-size:30px;"">Press space to start the trial</div>"," ","","","","","","",""
"","","","","","html-keyboard-response","245","2.0.0","204147","pz801oke606","mus","mouse","21","female","yes","yes","5","3","null","<div style=""font-size:60px;"">+</div>","null","","","","","","",""
"","","","","","audio-keyboard-response","246","2.0.0","204752","pz801oke606","mus","mouse","21","female","yes","yes","5","3","null","stimuli/sounds/bird_sound_B.wav","null","","","","","","",""
"","","","","","html-keyboard-response","247","2.0.0","205754","pz801oke606","mus","mouse","21","female","yes","yes","5","3","null","","null","","","","","","",""
"","","","","","image-keyboard-response","248","2.0.0","206450","pz801oke606","mus","mouse","21","female","yes","yes","5","3","695","stimuli/pictures/bird_hawk_1.jpg","1","1","","true","no","sound","stimuli/sounds/bird_sound_B.wav",""
"","","","","","audio-keyboard-response","249","2.0.0","207452","pz801oke606","mus","mouse","21","female","yes","yes","5","3","null","stimuli/sounds/bleep.wav","null","","","","","","",""
"","","","","","html-keyboard-response","250","2.0.0","208015","pz801oke606","mus","mouse","21","female","yes","yes","5","3","462","<div style=""font-size:30px;"">Press space to start the trial</div>"," ","","","","","","",""
"","","","","","html-keyboard-response","251","2.0.0","208267","pz801oke606","mus","mouse","21","female","yes","yes","5","3","null","<div style=""font-size:60px;"">+</div>","null","","","","","","",""
"","","","","","audio-keyboard-response","252","2.0.0","208867","pz801oke606","mus","mouse","21","female","yes","yes","5","3","null","stimuli/sounds/phone_label_B.wav","null","","","","","","",""
"","","","","","html-keyboard-response","253","2.0.0","209869","pz801oke606","mus","mouse","21","female","yes","yes","5","3","null","","null","","","","","","",""
"","","","","","image-keyboard-response","254","2.0.0","210565","pz801oke606","mus","mouse","21","female","yes","yes","5","3","695","stimuli/pictures/phone_cell_2.jpg","1","1","","true","yes","sound","stimuli/sounds/phone_label_B.wav",""
"","","","","","audio-keyboard-response","255","2.0.0","211567","pz801oke606","mus","mouse","21","female","yes","yes","5","3","null","stimuli/sounds/bleep.wav","null","","","","","","",""
"","","","","","html-keyboard-response","256","2.0.0","212031","pz801oke606","mus","mouse","21","female","yes","yes","5","3","362","<div style=""font-size:30px;"">Press space to start the trial</div>"," ","","","","","","",""
"","","","","","html-keyboard-response","257","2.0.0","212283","pz801oke606","mus","mouse","21","female","yes","yes","5","3","null","<div style=""font-size:60px;"">+</div>","null","","","","","","",""
"","","","","","audio-keyboard-response","258","2.0.0","212884","pz801oke606","mus","mouse","21","female","yes","yes","5","3","null","stimuli/sounds/phone_sound_B.wav","null","","","","","","",""
"","","","","","html-keyboard-response","259","2.0.0","213886","pz801oke606","mus","mouse","21","female","yes","yes","5","3","null","","null","","","","","","",""
"","","","","","image-keyboard-response","260","2.0.0","214550","pz801oke606","mus","mouse","21","female","yes","yes","5","3","662","stimuli/pictures/piano_electric_2.jpg","0","0","","true","no","sound","stimuli/sounds/phone_sound_B.wav",""
"","","","","","audio-keyboard-response","261","2.0.0","215552","pz801oke606","mus","mouse","21","female","yes","yes","5","3","null","stimuli/sounds/bleep.wav","null","","","","","","",""
"","","","","","html-keyboard-response","262","2.0.0","216241","pz801oke606","mus","mouse","21","female","yes","yes","5","3","588","<div style=""font-size:30px;"">Press space to start the trial</div>"," ","","","","","","",""
"","","","","","html-keyboard-response","263","2.0.0","216493","pz801oke606","mus","mouse","21","female","yes","yes","5","3","null","<div style=""font-size:60px;"">+</div>","null","","","","","","",""
"","","","","","audio-keyboard-response","264","2.0.0","217093","pz801oke606","mus","mouse","21","female","yes","yes","5","3","null","stimuli/sounds/piano_label_B.wav","null","","","","","","",""
"","","","","","html-keyboard-response","265","2.0.0","218095","pz801oke606","mus","mouse","21","female","yes","yes","5","3","null","","null","","","","","","",""
"","","","","","image-keyboard-response","266","2.0.0","218755","pz801oke606","mus","mouse","21","female","yes","yes","5","3","659","stimuli/pictures/bird_hawk_1.jpg","0","0","","true","no","sound","stimuli/sounds/piano_label_B.wav",""
"","","","","","audio-keyboard-response","267","2.0.0","219758","pz801oke606","mus","mouse","21","female","yes","yes","5","3","null","stimuli/sounds/bleep.wav","null","","","","","","",""
"","","","","","html-keyboard-response","268","2.0.0","221284","pz801oke606","mus","mouse","21","female","yes","yes","5","3","1425","<p>You have completed a block. Press R when you are ready to continue</p>","r","","","","","","",""
"","","","","","html-keyboard-response","269","2.0.0","228635","pz801oke606","mus","mouse","21","female","yes","yes","5","3","7350","<div style=""font-size:30px;"">Press space to start the trial</div>"," ","","","","","","",""
"","","","","","html-keyboard-response","270","2.0.0","228887","pz801oke606","mus","mouse","21","female","yes","yes","5","3","null","<div style=""font-size:60px;"">+</div>","null","","","","","","",""
"","","","","","audio-keyboard-response","271","2.0.0","229486","pz801oke606","mus","mouse","21","female","yes","yes","5","3","null","stimuli/sounds/bird_label_B.wav","null","","","","","","",""
"","","","","","html-keyboard-response","272","2.0.0","230489","pz801oke606","mus","mouse","21","female","yes","yes","5","3","null","","null","","","","","","",""
"","","","","","image-keyboard-response","273","2.0.0","231350","pz801oke606","mus","mouse","21","female","yes","yes","5","3","860","stimuli/pictures/bird_song_1.jpg","1","1","","true","yes","sound","stimuli/sounds/bird_label_B.wav",""
"","","","","","audio-keyboard-response","274","2.0.0","232352","pz801oke606","mus","mouse","21","female","yes","yes","5","3","null","stimuli/sounds/bleep.wav","null","","","","","","",""
"","","","","","html-keyboard-response","275","2.0.0","233104","pz801oke606","mus","mouse","21","female","yes","yes","5","3","650","<div style=""font-size:30px;"">Press space to start the trial</div>"," ","","","","","","",""
"","","","","","html-keyboard-response","276","2.0.0","233356","pz801oke606","mus","mouse","21","female","yes","yes","5","3","null","<div style=""font-size:60px;"">+</div>","null","","","","","","",""
"","","","","","audio-keyboard-response","277","2.0.0","233956","pz801oke606","mus","mouse","21","female","yes","yes","5","3","null","stimuli/sounds/flute_sound_A.wav","null","","","","","","",""
"","","","","","html-keyboard-response","278","2.0.0","234959","pz801oke606","mus","mouse","21","female","yes","yes","5","3","null","","null","","","","","","",""
"","","","","","image-keyboard-response","279","2.0.0","235516","pz801oke606","mus","mouse","21","female","yes","yes","5","3","555","stimuli/pictures/phone_cell_1.jpg","0","0","","true","no","sound","stimuli/sounds/flute_sound_A.wav",""
"","","","","","audio-keyboard-response","280","2.0.0","236518","pz801oke606","mus","mouse","21","female","yes","yes","5","3","null","stimuli/sounds/bleep.wav","null","","","","","","",""
"","","","","","html-keyboard-response","281","2.0.0","237085","pz801oke606","mus","mouse","21","female","yes","yes","5","3","465","<div style=""font-size:30px;"">Press space to start the trial</div>"," ","","","","","","",""
"","","","","","html-keyboard-response","282","2.0.0","237337","pz801oke606","mus","mouse","21","female","yes","yes","5","3","null","<div style=""font-size:60px;"">+</div>","null","","","","","","",""
"","","","","","audio-keyboard-response","283","2.0.0","237938","pz801oke606","mus","mouse","21","female","yes","yes","5","3","null","stimuli/sounds/phone_sound_A.wav","null","","","","","","",""
"","","","","","html-keyboard-response","284","2.0.0","238940","pz801oke606","mus","mouse","21","female","yes","yes","5","3","null","","null","","","","","","",""
"","","","","","image-keyboard-response","285","2.0.0","239514","pz801oke606","mus","mouse","21","female","yes","yes","5","3","573","stimuli/pictures/bird_song_2.jpg","0","0","","true","no","sound","stimuli/sounds/phone_sound_A.wav",""
"","","","","","audio-keyboard-response","286","2.0.0","240517","pz801oke606","mus","mouse","21","female","yes","yes","5","3","null","stimuli/sounds/bleep.wav","null","","","","","","",""
"","","","","","html-keyboard-response","287","2.0.0","241184","pz801oke606","mus","mouse","21","female","yes","yes","5","3","565","<div style=""font-size:30px;"">Press space to start the trial</div>"," ","","","","","","",""
"","","","","","html-keyboard-response","288","2.0.0","241436","pz801oke606","mus","mouse","21","female","yes","yes","5","3","null","<div style=""font-size:60px;"">+</div>","null","","","","","","",""
"","","","","","audio-keyboard-response","289","2.0.0","242037","pz801oke606","mus","mouse","21","female","yes","yes","5","3","null","stimuli/sounds/phone_label_A.wav","null","","","","","","",""
"","","","","","html-keyboard-response","290","2.0.0","243039","pz801oke606","mus","mouse","21","female","yes","yes","5","3","null","","null","","","","","","",""
"","","","","","image-keyboard-response","291","2.0.0","243682","pz801oke606","mus","mouse","21","female","yes","yes","5","3","642","stimuli/pictures/phone_cell_2.jpg","1","1","","true","yes","sound","stimuli/sounds/phone_label_A.wav",""
"","","","","","audio-keyboard-response","292","2.0.0","244685","pz801oke606","mus","mouse","21","female","yes","yes","5","3","null","stimuli/sounds/bleep.wav","null","","","","","","",""
"","","","","","html-keyboard-response","293","2.0.0","245312","pz801oke606","mus","mouse","21","female","yes","yes","5","3","525","<div style=""font-size:30px;"">Press space to start the trial</div>"," ","","","","","","",""
"","","","","","html-keyboard-response","294","2.0.0","245564","pz801oke606","mus","mouse","21","female","yes","yes","5","3","null","<div style=""font-size:60px;"">+</div>","null","","","","","","",""
"","","","","","audio-keyboard-response","295","2.0.0","246164","pz801oke606","mus","mouse","21","female","yes","yes","5","3","null","stimuli/sounds/flute_sound_A.wav","null","","","","","","",""
"","","","","","html-keyboard-response","296","2.0.0","247166","pz801oke606","mus","mouse","21","female","yes","yes","5","3","null","","null","","","","","","",""
"","","","","","image-keyboard-response","297","2.0.0","249896","pz801oke606","mus","mouse","21","female","yes","yes","5","3","2729","stimuli/pictures/flute_wooden_2.jpg","1","1","","true","no","sound","stimuli/sounds/flute_sound_A.wav",""
"","","","","","audio-keyboard-response","298","2.0.0","250898","pz801oke606","mus","mouse","21","female","yes","yes","5","3","null","stimuli/sounds/bleep.wav","null","","","","","","",""
"","","","","","html-keyboard-response","299","2.0.0","251546","pz801oke606","mus","mouse","21","female","yes","yes","5","3","546","<div style=""font-size:30px;"">Press space to start the trial</div>"," ","","","","","","",""
"","","","","","html-keyboard-response","300","2.0.0","251798","pz801oke606","mus","mouse","21","female","yes","yes","5","3","null","<div style=""font-size:60px;"">+</div>","null","","","","","","",""
"","","","","","audio-keyboard-response","301","2.0.0","252404","pz801oke606","mus","mouse","21","female","yes","yes","5","3","null","stimuli/sounds/flute_label_B.wav","null","","","","","","",""
"","","","","","html-keyboard-response","302","2.0.0","253407","pz801oke606","mus","mouse","21","female","yes","yes","5","3","null","","null","","","","","","",""
"","","","","","image-keyboard-response","303","2.0.0","253904","pz801oke606","mus","mouse","21","female","yes","yes","5","3","496","stimuli/pictures/flute_metal_1.jpg","1","1","","true","yes","sound","stimuli/sounds/flute_label_B.wav",""
"","","","","","audio-keyboard-response","304","2.0.0","254906","pz801oke606","mus","mouse","21","female","yes","yes","5","3","null","stimuli/sounds/bleep.wav","null","","","","","","",""
"","","","","","html-keyboard-response","305","2.0.0","255873","pz801oke606","mus","mouse","21","female","yes","yes","5","3","864","<div style=""font-size:30px;"">Press space to start the trial</div>"," ","","","","","","",""
"","","","","","html-keyboard-response","306","2.0.0","256125","pz801oke606","mus","mouse","21","female","yes","yes","5","3","null","<div style=""font-size:60px;"">+</div>","null","","","","","","",""
"","","","","","audio-keyboard-response","307","2.0.0","256729","pz801oke606","mus","mouse","21","female","yes","yes","5","3","null","stimuli/sounds/bird_sound_A.wav","null","","","","","","",""
"","","","","","html-keyboard-response","308","2.0.0","257731","pz801oke606","mus","mouse","21","female","yes","yes","5","3","null","","null","","","","","","",""
"","","","","","image-keyboard-response","309","2.0.0","258416","pz801oke606","mus","mouse","21","female","yes","yes","5","3","684","stimuli/pictures/piano_electric_1.jpg","0","0","","true","no","sound","stimuli/sounds/bird_sound_A.wav",""
"","","","","","audio-keyboard-response","310","2.0.0","259418","pz801oke606","mus","mouse","21","female","yes","yes","5","3","null","stimuli/sounds/bleep.wav","null","","","","","","",""
"","","","","","html-keyboard-response","311","2.0.0","260109","pz801oke606","mus","mouse","21","female","yes","yes","5","3","589","<div style=""font-size:30px;"">Press space to start the trial</div>"," ","","","","","","",""
"","","","","","html-keyboard-response","312","2.0.0","260362","pz801oke606","mus","mouse","21","female","yes","yes","5","3","null","<div style=""font-size:60px;"">+</div>","null","","","","","","",""
"","","","","","audio-keyboard-response","313","2.0.0","260967","pz801oke606","mus","mouse","21","female","yes","yes","5","3","null","stimuli/sounds/flute_label_B.wav","null","","","","","","",""
"","","","","","html-keyboard-response","314","2.0.0","261968","pz801oke606","mus","mouse","21","female","yes","yes","5","3","null","","null","","","","","","",""
"","","","","","image-keyboard-response","315","2.0.0","262667","pz801oke606","mus","mouse","21","female","yes","yes","5","3","698","stimuli/pictures/drum_bongo_1.jpg","0","0","","true","no","sound","stimuli/sounds/flute_label_B.wav",""
"","","","","","audio-keyboard-response","316","2.0.0","263668","pz801oke606","mus","mouse","21","female","yes","yes","5","3","null","stimuli/sounds/bleep.wav","null","","","","","","",""
"","","","","","html-keyboard-response","317","2.0.0","264252","pz801oke606","mus","mouse","21","female","yes","yes","5","3","481","<div style=""font-size:30px;"">Press space to start the trial</div>"," ","","","","","","",""
"","","","","","html-keyboard-response","318","2.0.0","264504","pz801oke606","mus","mouse","21","female","yes","yes","5","3","null","<div style=""font-size:60px;"">+</div>","null","","","","","","",""
"","","","","","audio-keyboard-response","319","2.0.0","265105","pz801oke606","mus","mouse","21","female","yes","yes","5","3","null","stimuli/sounds/phone_sound_A.wav","null","","","","","","",""
"","","","","","html-keyboard-response","320","2.0.0","266108","pz801oke606","mus","mouse","21","female","yes","yes","5","3","null","","null","","","","","","",""
"","","","","","image-keyboard-response","321","2.0.0","267049","pz801oke606","mus","mouse","21","female","yes","yes","5","3","940","stimuli/pictures/phone_cell_1.jpg","1","1","","true","yes","sound","stimuli/sounds/phone_sound_A.wav",""
"","","","","","audio-keyboard-response","322","2.0.0","268051","pz801oke606","mus","mouse","21","female","yes","yes","5","3","null","stimuli/sounds/bleep.wav","null","","","","","","",""
"","","","","","html-keyboard-response","323","2.0.0","268540","pz801oke606","mus","mouse","21","female","yes","yes","5","3","387","<div style=""font-size:30px;"">Press space to start the trial</div>"," ","","","","","","",""
"","","","","","html-keyboard-response","324","2.0.0","268792","pz801oke606","mus","mouse","21","female","yes","yes","5","3","null","<div style=""font-size:60px;"">+</div>","null","","","","","","",""
"","","","","","audio-keyboard-response","325","2.0.0","269396","pz801oke606","mus","mouse","21","female","yes","yes","5","3","null","stimuli/sounds/drum_label_B.wav","null","","","","","","",""
"","","","","","html-keyboard-response","326","2.0.0","270398","pz801oke606","mus","mouse","21","female","yes","yes","5","3","null","","null","","","","","","",""
"","","","","","image-keyboard-response","327","2.0.0","270968","pz801oke606","mus","mouse","21","female","yes","yes","5","3","568","stimuli/pictures/drum_kit_1.jpg","1","1","","true","yes","sound","stimuli/sounds/drum_label_B.wav",""
"","","","","","audio-keyboard-response","328","2.0.0","271970","pz801oke606","mus","mouse","21","female","yes","yes","5","3","null","stimuli/sounds/bleep.wav","null","","","","","","",""
"","","","","","html-keyboard-response","329","2.0.0","272662","pz801oke606","mus","mouse","21","female","yes","yes","5","3","590","<div style=""font-size:30px;"">Press space to start the trial</div>"," ","","","","","","",""
"","","","","","html-keyboard-response","330","2.0.0","272915","pz801oke606","mus","mouse","21","female","yes","yes","5","3","null","<div style=""font-size:60px;"">+</div>","null","","","","","","",""
"","","","","","audio-keyboard-response","331","2.0.0","273517","pz801oke606","mus","mouse","21","female","yes","yes","5","3","null","stimuli/sounds/bird_label_A.wav","null","","","","","","",""
"","","","","","html-keyboard-response","332","2.0.0","274520","pz801oke606","mus","mouse","21","female","yes","yes","5","3","null","","null","","","","","","",""
"","","","","","image-keyboard-response","333","2.0.0","275258","pz801oke606","mus","mouse","21","female","yes","yes","5","3","737","stimuli/pictures/bird_song_2.jpg","1","1","","true","yes","sound","stimuli/sounds/bird_label_A.wav",""
"","","","","","audio-keyboard-response","334","2.0.0","276260","pz801oke606","mus","mouse","21","female","yes","yes","5","3","null","stimuli/sounds/bleep.wav","null","","","","","","",""
"","","","","","html-keyboard-response","335","2.0.0","276642","pz801oke606","mus","mouse","21","female","yes","yes","5","3","279","<div style=""font-size:30px;"">Press space to start the trial</div>"," ","","","","","","",""
"","","","","","html-keyboard-response","336","2.0.0","276893","pz801oke606","mus","mouse","21","female","yes","yes","5","3","null","<div style=""font-size:60px;"">+</div>","null","","","","","","",""
"","","","","","audio-keyboard-response","337","2.0.0","277493","pz801oke606","mus","mouse","21","female","yes","yes","5","3","null","stimuli/sounds/phone_label_A.wav","null","","","","","","",""
"","","","","","html-keyboard-response","338","2.0.0","278496","pz801oke606","mus","mouse","21","female","yes","yes","5","3","null","","null","","","","","","",""
"","","","","","image-keyboard-response","339","2.0.0","279000","pz801oke606","mus","mouse","21","female","yes","yes","5","3","503","stimuli/pictures/drum_kit_1.jpg","0","0","","true","no","sound","stimuli/sounds/phone_label_A.wav",""
"","","","","","audio-keyboard-response","340","2.0.0","280002","pz801oke606","mus","mouse","21","female","yes","yes","5","3","null","stimuli/sounds/bleep.wav","null","","","","","","",""
"","","","","","html-keyboard-response","341","2.0.0","280412","pz801oke606","mus","mouse","21","female","yes","yes","5","3","307","<div style=""font-size:30px;"">Press space to start the trial</div>"," ","","","","","","",""
"","","","","","html-keyboard-response","342","2.0.0","280665","pz801oke606","mus","mouse","21","female","yes","yes","5","3","null","<div style=""font-size:60px;"">+</div>","null","","","","","","",""
"","","","","","audio-keyboard-response","343","2.0.0","281267","pz801oke606","mus","mouse","21","female","yes","yes","5","3","null","stimuli/sounds/drum_sound_A.wav","null","","","","","","",""
"","","","","","html-keyboard-response","344","2.0.0","282268","pz801oke606","mus","mouse","21","female","yes","yes","5","3","null","","null","","","","","","",""
"","","","","","image-keyboard-response","345","2.0.0","282966","pz801oke606","mus","mouse","21","female","yes","yes","5","3","697","stimuli/pictures/flute_wooden_2.jpg","0","0","","true","no","sound","stimuli/sounds/drum_sound_A.wav",""
"","","","","","audio-keyboard-response","346","2.0.0","283969","pz801oke606","mus","mouse","21","female","yes","yes","5","3","null","stimuli/sounds/bleep.wav","null","","","","","","",""
"","","","","","html-keyboard-response","347","2.0.0","284671","pz801oke606","mus","mouse","21","female","yes","yes","5","3","600","<div style=""font-size:30px;"">Press space to start the trial</div>"," ","","","","","","",""
"","","","","","html-keyboard-response","348","2.0.0","284924","pz801oke606","mus","mouse","21","female","yes","yes","5","3","null","<div style=""font-size:60px;"">+</div>","null","","","","","","",""
"","","","","","audio-keyboard-response","349","2.0.0","285527","pz801oke606","mus","mouse","21","female","yes","yes","5","3","null","stimuli/sounds/drum_label_A.wav","null","","","","","","",""
"","","","","","html-keyboard-response","350","2.0.0","286530","pz801oke606","mus","mouse","21","female","yes","yes","5","3","null","","null","","","","","","",""
"","","","","","image-keyboard-response","351","2.0.0","287445","pz801oke606","mus","mouse","21","female","yes","yes","5","3","914","stimuli/pictures/bird_hawk_1.jpg","0","0","","true","no","sound","stimuli/sounds/drum_label_A.wav",""
"","","","","","audio-keyboard-response","352","2.0.0","288447","pz801oke606","mus","mouse","21","female","yes","yes","5","3","null","stimuli/sounds/bleep.wav","null","","","","","","",""
"","","","","","html-keyboard-response","353","2.0.0","288960","pz801oke606","mus","mouse","21","female","yes","yes","5","3","411","<div style=""font-size:30px;"">Press space to start the trial</div>"," ","","","","","","",""
"","","","","","html-keyboard-response","354","2.0.0","289213","pz801oke606","mus","mouse","21","female","yes","yes","5","3","null","<div style=""font-size:60px;"">+</div>","null","","","","","","",""
"","","","","","audio-keyboard-response","355","2.0.0","289818","pz801oke606","mus","mouse","21","female","yes","yes","5","3","null","stimuli/sounds/flute_sound_A.wav","null","","","","","","",""
"","","","","","html-keyboard-response","356","2.0.0","290820","pz801oke606","mus","mouse","21","female","yes","yes","5","3","null","","null","","","","","","",""
"","","","","","image-keyboard-response","357","2.0.0","291917","pz801oke606","mus","mouse","21","female","yes","yes","5","3","1096","stimuli/pictures/phone_rotary_2.jpg","0","0","","true","no","sound","stimuli/sounds/flute_sound_A.wav",""
"","","","","","audio-keyboard-response","358","2.0.0","292918","pz801oke606","mus","mouse","21","female","yes","yes","5","3","null","stimuli/sounds/bleep.wav","null","","","","","","",""
"","","","","","html-keyboard-response","359","2.0.0","293423","pz801oke606","mus","mouse","21","female","yes","yes","5","3","402","<div style=""font-size:30px;"">Press space to start the trial</div>"," ","","","","","","",""
"","","","","","html-keyboard-response","360","2.0.0","293676","pz801oke606","mus","mouse","21","female","yes","yes","5","3","null","<div style=""font-size:60px;"">+</div>","null","","","","","","",""
"","","","","","audio-keyboard-response","361","2.0.0","294275","pz801oke606","mus","mouse","21","female","yes","yes","5","3","null","stimuli/sounds/phone_label_A.wav","null","","","","","","",""
"","","","","","html-keyboard-response","362","2.0.0","295277","pz801oke606","mus","mouse","21","female","yes","yes","5","3","null","","null","","","","","","",""
"","","","","","image-keyboard-response","363","2.0.0","295870","pz801oke606","mus","mouse","21","female","yes","yes","5","3","592","stimuli/pictures/phone_cell_1.jpg","1","1","","true","yes","sound","stimuli/sounds/phone_label_A.wav",""
"","","","","","audio-keyboard-response","364","2.0.0","296873","pz801oke606","mus","mouse","21","female","yes","yes","5","3","null","stimuli/sounds/bleep.wav","null","","","","","","",""
"","","","","","html-keyboard-response","365","2.0.0","297421","pz801oke606","mus","mouse","21","female","yes","yes","5","3","446","<div style=""font-size:30px;"">Press space to start the trial</div>"," ","","","","","","",""
"","","","","","html-keyboard-response","366","2.0.0","297673","pz801oke606","mus","mouse","21","female","yes","yes","5","3","null","<div style=""font-size:60px;"">+</div>","null","","","","","","",""
"","","","","","audio-keyboard-response","367","2.0.0","298275","pz801oke606","mus","mouse","21","female","yes","yes","5","3","null","stimuli/sounds/bird_sound_B.wav","null","","","","","","",""
"","","","","","html-keyboard-response","368","2.0.0","299276","pz801oke606","mus","mouse","21","female","yes","yes","5","3","null","","null","","","","","","",""
"","","","","","image-keyboard-response","369","2.0.0","300147","pz801oke606","mus","mouse","21","female","yes","yes","5","3","870","stimuli/pictures/bird_hawk_1.jpg","1","1","","true","no","sound","stimuli/sounds/bird_sound_B.wav",""
"","","","","","audio-keyboard-response","370","2.0.0","301150","pz801oke606","mus","mouse","21","female","yes","yes","5","3","null","stimuli/sounds/bleep.wav","null","","","","","","",""
"","","","","","html-keyboard-response","371","2.0.0","301907","pz801oke606","mus","mouse","21","female","yes","yes","5","3","655","<div style=""font-size:30px;"">Press space to start the trial</div>"," ","","","","","","",""
"","","","","","html-keyboard-response","372","2.0.0","302159","pz801oke606","mus","mouse","21","female","yes","yes","5","3","null","<div style=""font-size:60px;"">+</div>","null","","","","","","",""
"","","","","","audio-keyboard-response","373","2.0.0","302762","pz801oke606","mus","mouse","21","female","yes","yes","5","3","null","stimuli/sounds/piano_sound_B.wav","null","","","","","","",""
"","","","","","html-keyboard-response","374","2.0.0","303764","pz801oke606","mus","mouse","21","female","yes","yes","5","3","null","","null","","","","","","",""
"","","","","","image-keyboard-response","375","2.0.0","304433","pz801oke606","mus","mouse","21","female","yes","yes","5","3","668","stimuli/pictures/flute_metal_1.jpg","0","0","","true","no","sound","stimuli/sounds/piano_sound_B.wav",""
"","","","","","audio-keyboard-response","376","2.0.0","305435","pz801oke606","mus","mouse","21","female","yes","yes","5","3","null","stimuli/sounds/bleep.wav","null","","","","","","",""
"","","","","","html-keyboard-response","377","2.0.0","305938","pz801oke606","mus","mouse","21","female","yes","yes","5","3","400","<div style=""font-size:30px;"">Press space to start the trial</div>"," ","","","","","","",""
"","","","","","html-keyboard-response","378","2.0.0","306190","pz801oke606","mus","mouse","21","female","yes","yes","5","3","null","<div style=""font-size:60px;"">+</div>","null","","","","","","",""
"","","","","","audio-keyboard-response","379","2.0.0","306814","pz801oke606","mus","mouse","21","female","yes","yes","5","3","null","stimuli/sounds/piano_label_A.wav","null","","","","","","",""
"","","","","","html-keyboard-response","380","2.0.0","307816","pz801oke606","mus","mouse","21","female","yes","yes","5","3","null","","null","","","","","","",""
"","","","","","image-keyboard-response","381","2.0.0","308687","pz801oke606","mus","mouse","21","female","yes","yes","5","3","870","stimuli/pictures/piano_electric_1.jpg","1","1","","true","yes","sound","stimuli/sounds/piano_label_A.wav",""
"","","","","","audio-keyboard-response","382","2.0.0","309690","pz801oke606","mus","mouse","21","female","yes","yes","5","3","null","stimuli/sounds/bleep.wav","null","","","","","","",""
"","","","","","html-keyboard-response","383","2.0.0","310354","pz801oke606","mus","mouse","21","female","yes","yes","5","3","563","<div style=""font-size:30px;"">Press space to start the trial</div>"," ","","","","","","",""
"","","","","","html-keyboard-response","384","2.0.0","310607","pz801oke606","mus","mouse","21","female","yes","yes","5","3","null","<div style=""font-size:60px;"">+</div>","null","","","","","","",""
"","","","","","audio-keyboard-response","385","2.0.0","311209","pz801oke606","mus","mouse","21","female","yes","yes","5","3","null","stimuli/sounds/bird_sound_A.wav","null","","","","","","",""
"","","","","","html-keyboard-response","386","2.0.0","312210","pz801oke606","mus","mouse","21","female","yes","yes","5","3","null","","null","","","","","","",""
"","","","","","image-keyboard-response","387","2.0.0","312754","pz801oke606","mus","mouse","21","female","yes","yes","5","3","543","stimuli/pictures/piano_grand_1.jpg","0","0","","true","no","sound","stimuli/sounds/bird_sound_A.wav",""
"","","","","","audio-keyboard-response","388","2.0.0","313755","pz801oke606","mus","mouse","21","female","yes","yes","5","3","null","stimuli/sounds/bleep.wav","null","","","","","","",""
"","","","","","html-keyboard-response","389","2.0.0","315029","pz801oke606","mus","mouse","21","female","yes","yes","5","3","1172","<p>You have completed a block. Press R when you are ready to continue</p>","r","","","","","","",""
"","","","","","html-keyboard-response","390","2.0.0","315720","pz801oke606","mus","mouse","21","female","yes","yes","5","3","691","<div style=""font-size:30px;"">Press space to start the trial</div>"," ","","","","","","",""
"","","","","","html-keyboard-response","391","2.0.0","315973","pz801oke606","mus","mouse","21","female","yes","yes","5","3","null","<div style=""font-size:60px;"">+</div>","null","","","","","","",""
"","","","","","audio-keyboard-response","392","2.0.0","316572","pz801oke606","mus","mouse","21","female","yes","yes","5","3","null","stimuli/sounds/bird_sound_B.wav","null","","","","","","",""
"","","","","","html-keyboard-response","393","2.0.0","317575","pz801oke606","mus","mouse","21","female","yes","yes","5","3","null","","null","","","","","","",""
"","","","","","image-keyboard-response","394","2.0.0","318145","pz801oke606","mus","mouse","21","female","yes","yes","5","3","569","stimuli/pictures/bird_song_1.jpg","1","1","","true","yes","sound","stimuli/sounds/bird_sound_B.wav",""
"","","","","","audio-keyboard-response","395","2.0.0","319147","pz801oke606","mus","mouse","21","female","yes","yes","5","3","null","stimuli/sounds/bleep.wav","null","","","","","","",""
"","","","","","html-keyboard-response","396","2.0.0","319791","pz801oke606","mus","mouse","21","female","yes","yes","5","3","541","<div style=""font-size:30px;"">Press space to start the trial</div>"," ","","","","","","",""
"","","","","","html-keyboard-response","397","2.0.0","320043","pz801oke606","mus","mouse","21","female","yes","yes","5","3","null","<div style=""font-size:60px;"">+</div>","null","","","","","","",""
"","","","","","audio-keyboard-response","398","2.0.0","320647","pz801oke606","mus","mouse","21","female","yes","yes","5","3","null","stimuli/sounds/phone_label_B.wav","null","","","","","","",""
"","","","","","html-keyboard-response","399","2.0.0","321650","pz801oke606","mus","mouse","21","female","yes","yes","5","3","null","","null","","","","","","",""
"","","","","","image-keyboard-response","400","2.0.0","322207","pz801oke606","mus","mouse","21","female","yes","yes","5","3","557","stimuli/pictures/flute_metal_1.jpg","0","0","","true","no","sound","stimuli/sounds/phone_label_B.wav",""
"","","","","","audio-keyboard-response","401","2.0.0","323209","pz801oke606","mus","mouse","21","female","yes","yes","5","3","null","stimuli/sounds/bleep.wav","null","","","","","","",""
"","","","","","html-keyboard-response","402","2.0.0","323797","pz801oke606","mus","mouse","21","female","yes","yes","5","3","485","<div style=""font-size:30px;"">Press space to start the trial</div>"," ","","","","","","",""
"","","","","","html-keyboard-response","403","2.0.0","324049","pz801oke606","mus","mouse","21","female","yes","yes","5","3","null","<div style=""font-size:60px;"">+</div>","null","","","","","","",""
"","","","","","audio-keyboard-response","404","2.0.0","324653","pz801oke606","mus","mouse","21","female","yes","yes","5","3","null","stimuli/sounds/drum_sound_B.wav","null","","","","","","",""
"","","","","","html-keyboard-response","405","2.0.0","325655","pz801oke606","mus","mouse","21","female","yes","yes","5","3","null","","null","","","","","","",""
"","","","","","image-keyboard-response","406","2.0.0","326421","pz801oke606","mus","mouse","21","female","yes","yes","5","3","765","stimuli/pictures/phone_cell_1.jpg","0","0","","true","no","sound","stimuli/sounds/drum_sound_B.wav",""
"","","","","","audio-keyboard-response","407","2.0.0","327425","pz801oke606","mus","mouse","21","female","yes","yes","5","3","null","stimuli/sounds/bleep.wav","null","","","","","","",""
"","","","","","html-keyboard-response","408","2.0.0","327846","pz801oke606","mus","mouse","21","female","yes","yes","5","3","318","<div style=""font-size:30px;"">Press space to start the trial</div>"," ","","","","","","",""
"","","","","","html-keyboard-response","409","2.0.0","328098","pz801oke606","mus","mouse","21","female","yes","yes","5","3","null","<div style=""font-size:60px;"">+</div>","null","","","","","","",""
"","","","","","audio-keyboard-response","410","2.0.0","328699","pz801oke606","mus","mouse","21","female","yes","yes","5","3","null","stimuli/sounds/drum_sound_B.wav","null","","","","","","",""
"","","","","","html-keyboard-response","411","2.0.0","329701","pz801oke606","mus","mouse","21","female","yes","yes","5","3","null","","null","","","","","","",""
"","","","","","image-keyboard-response","412","2.0.0","330323","pz801oke606","mus","mouse","21","female","yes","yes","5","3","621","stimuli/pictures/drum_kit_1.jpg","1","1","","true","no","sound","stimuli/sounds/drum_sound_B.wav",""
"","","","","","audio-keyboard-response","413","2.0.0","331326","pz801oke606","mus","mouse","21","female","yes","yes","5","3","null","stimuli/sounds/bleep.wav","null","","","","","","",""
"","","","","","html-keyboard-response","414","2.0.0","332205","pz801oke606","mus","mouse","21","female","yes","yes","5","3","778","<div style=""font-size:30px;"">Press space to start the trial</div>"," ","","","","","","",""
"","","","","","html-keyboard-response","415","2.0.0","332456","pz801oke606","mus","mouse","21","female","yes","yes","5","3","null","<div style=""font-size:60px;"">+</div>","null","","","","","","",""
"","","","","","audio-keyboard-response","416","2.0.0","333058","pz801oke606","mus","mouse","21","female","yes","yes","5","3","null","stimuli/sounds/phone_label_B.wav","null","","","","","","",""
"","","","","","html-keyboard-response","417","2.0.0","334059","pz801oke606","mus","mouse","21","female","yes","yes","5","3","null","","null","","","","","","",""
"","","","","","image-keyboard-response","418","2.0.0","334837","pz801oke606","mus","mouse","21","female","yes","yes","5","3","776","stimuli/pictures/phone_rotary_2.jpg","1","1","","true","yes","sound","stimuli/sounds/phone_label_B.wav",""
"","","","","","audio-keyboard-response","419","2.0.0","335839","pz801oke606","mus","mouse","21","female","yes","yes","5","3","null","stimuli/sounds/bleep.wav","null","","","","","","",""
"","","","","","html-keyboard-response","420","2.0.0","336337","pz801oke606","mus","mouse","21","female","yes","yes","5","3","395","<div style=""font-size:30px;"">Press space to start the trial</div>"," ","","","","","","",""
"","","","","","html-keyboard-response","421","2.0.0","336589","pz801oke606","mus","mouse","21","female","yes","yes","5","3","null","<div style=""font-size:60px;"">+</div>","null","","","","","","",""
"","","","","","audio-keyboard-response","422","2.0.0","337192","pz801oke606","mus","mouse","21","female","yes","yes","5","3","null","stimuli/sounds/flute_label_A.wav","null","","","","","","",""
"","","","","","html-keyboard-response","423","2.0.0","338193","pz801oke606","mus","mouse","21","female","yes","yes","5","3","null","","null","","","","","","",""
"","","","","","image-keyboard-response","424","2.0.0","338964","pz801oke606","mus","mouse","21","female","yes","yes","5","3","769","stimuli/pictures/flute_metal_1.jpg","1","1","","true","yes","sound","stimuli/sounds/flute_label_A.wav",""
"","","","","","audio-keyboard-response","425","2.0.0","339966","pz801oke606","mus","mouse","21","female","yes","yes","5","3","null","stimuli/sounds/bleep.wav","null","","","","","","",""
"","","","","","html-keyboard-response","426","2.0.0","340571","pz801oke606","mus","mouse","21","female","yes","yes","5","3","503","<div style=""font-size:30px;"">Press space to start the trial</div>"," ","","","","","","",""
"","","","","","html-keyboard-response","427","2.0.0","340823","pz801oke606","mus","mouse","21","female","yes","yes","5","3","null","<div style=""font-size:60px;"">+</div>","null","","","","","","",""
"","","","","","audio-keyboard-response","428","2.0.0","341446","pz801oke606","mus","mouse","21","female","yes","yes","5","3","null","stimuli/sounds/piano_label_A.wav","null","","","","","","",""
"","","","","","html-keyboard-response","429","2.0.0","342448","pz801oke606","mus","mouse","21","female","yes","yes","5","3","null","","null","","","","","","",""
"","","","","","image-keyboard-response","430","2.0.0","343011","pz801oke606","mus","mouse","21","female","yes","yes","5","3","562","stimuli/pictures/phone_cell_2.jpg","0","0","","true","no","sound","stimuli/sounds/piano_label_A.wav",""
"","","","","","audio-keyboard-response","431","2.0.0","344014","pz801oke606","mus","mouse","21","female","yes","yes","5","3","null","stimuli/sounds/bleep.wav","null","","","","","","",""
"","","","","","html-keyboard-response","432","2.0.0","344606","pz801oke606","mus","mouse","21","female","yes","yes","5","3","489","<div style=""font-size:30px;"">Press space to start the trial</div>"," ","","","","","","",""
"","","","","","html-keyboard-response","433","2.0.0","344858","pz801oke606","mus","mouse","21","female","yes","yes","5","3","null","<div style=""font-size:60px;"">+</div>","null","","","","","","",""
"","","","","","audio-keyboard-response","434","2.0.0","345458","pz801oke606","mus","mouse","21","female","yes","yes","5","3","null","stimuli/sounds/drum_sound_B.wav","null","","","","","","",""
"","","","","","html-keyboard-response","435","2.0.0","346459","pz801oke606","mus","mouse","21","female","yes","yes","5","3","null","","null","","","","","","",""
"","","","","","image-keyboard-response","436","2.0.0","347535","pz801oke606","mus","mouse","21","female","yes","yes","5","3","1074","stimuli/pictures/drum_bongo_1.jpg","1","1","","true","yes","sound","stimuli/sounds/drum_sound_B.wav",""
"","","","","","audio-keyboard-response","437","2.0.0","348536","pz801oke606","mus","mouse","21","female","yes","yes","5","3","null","stimuli/sounds/bleep.wav","null","","","","","","",""
"","","","","","html-keyboard-response","438","2.0.0","349463","pz801oke606","mus","mouse","21","female","yes","yes","5","3","825","<div style=""font-size:30px;"">Press space to start the trial</div>"," ","","","","","","",""
"","","","","","html-keyboard-response","439","2.0.0","349716","pz801oke606","mus","mouse","21","female","yes","yes","5","3","null","<div style=""font-size:60px;"">+</div>","null","","","","","","",""
"","","","","","audio-keyboard-response","440","2.0.0","350317","pz801oke606","mus","mouse","21","female","yes","yes","5","3","null","stimuli/sounds/flute_label_A.wav","null","","","","","","",""
"","","","","","html-keyboard-response","441","2.0.0","351318","pz801oke606","mus","mouse","21","female","yes","yes","5","3","null","","null","","","","","","",""
"","","","","","image-keyboard-response","442","2.0.0","351862","pz801oke606","mus","mouse","21","female","yes","yes","5","3","543","stimuli/pictures/flute_metal_2.jpg","1","1","","true","yes","sound","stimuli/sounds/flute_label_A.wav",""
"","","","","","audio-keyboard-response","443","2.0.0","352864","pz801oke606","mus","mouse","21","female","yes","yes","5","3","null","stimuli/sounds/bleep.wav","null","","","","","","",""
"","","","","","html-keyboard-response","444","2.0.0","353937","pz801oke606","mus","mouse","21","female","yes","yes","5","3","971","<div style=""font-size:30px;"">Press space to start the trial</div>"," ","","","","","","",""
"","","","","","html-keyboard-response","445","2.0.0","354189","pz801oke606","mus","mouse","21","female","yes","yes","5","3","null","<div style=""font-size:60px;"">+</div>","null","","","","","","",""
"","","","","","audio-keyboard-response","446","2.0.0","354798","pz801oke606","mus","mouse","21","female","yes","yes","5","3","null","stimuli/sounds/piano_sound_A.wav","null","","","","","","",""
"","","","","","html-keyboard-response","447","2.0.0","355800","pz801oke606","mus","mouse","21","female","yes","yes","5","3","null","","null","","","","","","",""
"","","","","","image-keyboard-response","448","2.0.0","357387","pz801oke606","mus","mouse","21","female","yes","yes","5","3","1585","stimuli/pictures/piano_grand_1.jpg","1","1","","true","yes","sound","stimuli/sounds/piano_sound_A.wav",""
"","","","","","audio-keyboard-response","449","2.0.0","358389","pz801oke606","mus","mouse","21","female","yes","yes","5","3","null","stimuli/sounds/bleep.wav","null","","","","","","",""
"","","","","","html-keyboard-response","450","2.0.0","358983","pz801oke606","mus","mouse","21","female","yes","yes","5","3","492","<div style=""font-size:30px;"">Press space to start the trial</div>"," ","","","","","","",""
"","","","","","html-keyboard-response","451","2.0.0","359236","pz801oke606","mus","mouse","21","female","yes","yes","5","3","null","<div style=""font-size:60px;"">+</div>","null","","","","","","",""
"","","","","","audio-keyboard-response","452","2.0.0","359837","pz801oke606","mus","mouse","21","female","yes","yes","5","3","null","stimuli/sounds/bird_sound_A.wav","null","","","","","","",""
"","","","","","html-keyboard-response","453","2.0.0","360839","pz801oke606","mus","mouse","21","female","yes","yes","5","3","null","","null","","","","","","",""
"","","","","","image-keyboard-response","454","2.0.0","361431","pz801oke606","mus","mouse","21","female","yes","yes","5","3","591","stimuli/pictures/bird_hawk_1.jpg","1","1","","true","yes","sound","stimuli/sounds/bird_sound_A.wav",""
"","","","","","audio-keyboard-response","455","2.0.0","362433","pz801oke606","mus","mouse","21","female","yes","yes","5","3","null","stimuli/sounds/bleep.wav","null","","","","","","",""
"","","","","","html-keyboard-response","456","2.0.0","363009","pz801oke606","mus","mouse","21","female","yes","yes","5","3","475","<div style=""font-size:30px;"">Press space to start the trial</div>"," ","","","","","","",""
"","","","","","html-keyboard-response","457","2.0.0","363261","pz801oke606","mus","mouse","21","female","yes","yes","5","3","null","<div style=""font-size:60px;"">+</div>","null","","","","","","",""
"","","","","","audio-keyboard-response","458","2.0.0","363865","pz801oke606","mus","mouse","21","female","yes","yes","5","3","null","stimuli/sounds/phone_sound_B.wav","null","","","","","","",""
"","","","","","html-keyboard-response","459","2.0.0","364868","pz801oke606","mus","mouse","21","female","yes","yes","5","3","null","","null","","","","","","",""
"","","","","","image-keyboard-response","460","2.0.0","365692","pz801oke606","mus","mouse","21","female","yes","yes","5","3","824","stimuli/pictures/piano_grand_1.jpg","0","0","","true","no","sound","stimuli/sounds/phone_sound_B.wav",""
"","","","","","audio-keyboard-response","461","2.0.0","366695","pz801oke606","mus","mouse","21","female","yes","yes","5","3","null","stimuli/sounds/bleep.wav","null","","","","","","",""
"","","","","","html-keyboard-response","462","2.0.0","367299","pz801oke606","mus","mouse","21","female","yes","yes","5","3","503","<div style=""font-size:30px;"">Press space to start the trial</div>"," ","","","","","","",""
"","","","","","html-keyboard-response","463","2.0.0","367552","pz801oke606","mus","mouse","21","female","yes","yes","5","3","null","<div style=""font-size:60px;"">+</div>","null","","","","","","",""
"","","","","","audio-keyboard-response","464","2.0.0","368155","pz801oke606","mus","mouse","21","female","yes","yes","5","3","null","stimuli/sounds/drum_label_B.wav","null","","","","","","",""
"","","","","","html-keyboard-response","465","2.0.0","369157","pz801oke606","mus","mouse","21","female","yes","yes","5","3","null","","null","","","","","","",""
"","","","","","image-keyboard-response","466","2.0.0","369981","pz801oke606","mus","mouse","21","female","yes","yes","5","3","823","stimuli/pictures/piano_grand_1.jpg","0","0","","true","no","sound","stimuli/sounds/drum_label_B.wav",""
"","","","","","audio-keyboard-response","467","2.0.0","370983","pz801oke606","mus","mouse","21","female","yes","yes","5","3","null","stimuli/sounds/bleep.wav","null","","","","","","",""
"","","","","","html-keyboard-response","468","2.0.0","371495","pz801oke606","mus","mouse","21","female","yes","yes","5","3","410","<div style=""font-size:30px;"">Press space to start the trial</div>"," ","","","","","","",""
"","","","","","html-keyboard-response","469","2.0.0","371747","pz801oke606","mus","mouse","21","female","yes","yes","5","3","null","<div style=""font-size:60px;"">+</div>","null","","","","","","",""
"","","","","","audio-keyboard-response","470","2.0.0","372346","pz801oke606","mus","mouse","21","female","yes","yes","5","3","null","stimuli/sounds/piano_label_B.wav","null","","","","","","",""
"","","","","","html-keyboard-response","471","2.0.0","373348","pz801oke606","mus","mouse","21","female","yes","yes","5","3","null","","null","","","","","","",""
"","","","","","image-keyboard-response","472","2.0.0","373829","pz801oke606","mus","mouse","21","female","yes","yes","5","3","480","stimuli/pictures/piano_grand_1.jpg","1","1","","true","yes","sound","stimuli/sounds/piano_label_B.wav",""
"","","","","","audio-keyboard-response","473","2.0.0","374832","pz801oke606","mus","mouse","21","female","yes","yes","5","3","null","stimuli/sounds/bleep.wav","null","","","","","","",""
"","","","","","html-keyboard-response","474","2.0.0","375387","pz801oke606","mus","mouse","21","female","yes","yes","5","3","454","<div style=""font-size:30px;"">Press space to start the trial</div>"," ","","","","","","",""
"","","","","","html-keyboard-response","475","2.0.0","375639","pz801oke606","mus","mouse","21","female","yes","yes","5","3","null","<div style=""font-size:60px;"">+</div>","null","","","","","","",""
"","","","","","audio-keyboard-response","476","2.0.0","376265","pz801oke606","mus","mouse","21","female","yes","yes","5","3","null","stimuli/sounds/piano_label_A.wav","null","","","","","","",""
"","","","","","html-keyboard-response","477","2.0.0","377266","pz801oke606","mus","mouse","21","female","yes","yes","5","3","null","","null","","","","","","",""
"","","","","","image-keyboard-response","478","2.0.0","377821","pz801oke606","mus","mouse","21","female","yes","yes","5","3","554","stimuli/pictures/piano_grand_1.jpg","1","1","","true","yes","sound","stimuli/sounds/piano_label_A.wav",""
"","","","","","audio-keyboard-response","479","2.0.0","378824","pz801oke606","mus","mouse","21","female","yes","yes","5","3","null","stimuli/sounds/bleep.wav","null","","","","","","",""
"","","","","","html-keyboard-response","480","2.0.0","379514","pz801oke606","mus","mouse","21","female","yes","yes","5","3","588","<div style=""font-size:30px;"">Press space to start the trial</div>"," ","","","","","","",""
"","","","","","html-keyboard-response","481","2.0.0","379766","pz801oke606","mus","mouse","21","female","yes","yes","5","3","null","<div style=""font-size:60px;"">+</div>","null","","","","","","",""
"","","","","","audio-keyboard-response","482","2.0.0","380369","pz801oke606","mus","mouse","21","female","yes","yes","5","3","null","stimuli/sounds/drum_label_A.wav","null","","","","","","",""
"","","","","","html-keyboard-response","483","2.0.0","381371","pz801oke606","mus","mouse","21","female","yes","yes","5","3","null","","null","","","","","","",""
"","","","","","image-keyboard-response","484","2.0.0","382016","pz801oke606","mus","mouse","21","female","yes","yes","5","3","644","stimuli/pictures/drum_bongo_2.jpg","1","1","","true","yes","sound","stimuli/sounds/drum_label_A.wav",""
"","","","","","audio-keyboard-response","485","2.0.0","383019","pz801oke606","mus","mouse","21","female","yes","yes","5","3","null","stimuli/sounds/bleep.wav","null","","","","","","",""
"","","","","","html-keyboard-response","486","2.0.0","383826","pz801oke606","mus","mouse","21","female","yes","yes","5","3","706","<div style=""font-size:30px;"">Press space to start the trial</div>"," ","","","","","","",""
"","","","","","html-keyboard-response","487","2.0.0","384078","pz801oke606","mus","mouse","21","female","yes","yes","5","3","null","<div style=""font-size:60px;"">+</div>","null","","","","","","",""
"","","","","","audio-keyboard-response","488","2.0.0","384682","pz801oke606","mus","mouse","21","female","yes","yes","5","3","null","stimuli/sounds/drum_label_A.wav","null","","","","","","",""
