"success","timeout","failed_images","failed_audio","failed_video","trial_type","trial_index","plugin_version","time_elapsed","random_id","condition","participant","age","gender_id","mus_exp","inst_exp","years_exp","mus_listening","rt","stimulus","response","correct_response","practice","correct","congruent","sound_type","audio","question_order"
"true","false","[]","[]","[]","preload","0","2.0.0","478","pztax6wgqwg","ono","badger","21","female","no","no","0","3","","","","","","","","","",""
"","","","","","html-keyboard-response","1","2.0.0","11230","pztax6wgqwg","ono","badger","21","female","no","no","0","3","10751","Welcome to the experiment! Press any key to begin."," ","","","","","","",""
"true","","","","","fullscreen","2","null","222243","pztax6wgqwg","ono","badger","21","female","no","no","0","3","210013","","","","","","","","",""
"","","","","","survey-text","3","2.0.0","226863","pztax6wgqwg","ono","badger","21","female","no","no","0","3","4617","","{""participant_id"":""badger""}","","","","","","",""
"","","","","","html-keyboard-response","4","2.0.0","242288","pztax6wgqwg","ono","badger","21","female","no","no","0","3","15424","
    <p> Please use headphones for the duration of the study.</p>
    <p> Within each trial, you will hear a sound and then be presented with an image in the center of your screen.</p>
    <p>Press the <b>'1'</b> key if what you hear <u>matches</u> what you see.</p>
    <p>Press the <b>'0'</b> key if what you hear <u>does not match</u> what you see.</p>
    <p>Try to respond as quickly and accurately as you can.</p>
    <p> Press any key to begin.</p>
    "," ","","","","","","",""
"","","","","","html-keyboard-response","5","2.0.0","244168","pztax6wgqwg","ono","badger","21","female","no","no","0","3","1879","
    <div style=""font-size:28px;"">
      <p>You will now complete 4 short practice trials.</p>
      <p>This is just to help you get familiar with the task.</p>
      <p>Press any key to begin.</p>
    </div>
  "," ","","","","","","",""
"","","","","","html-keyboard-response","6","2.0.0","244669","pztax6wgqwg","ono","badger","21","female","no","no","0","3","null","<div style=""font-size:60px;"">+</div>","null","","","","","","",""
"","","","","","audio-keyboard-response","7","2.0.0","245346","pztax6wgqwg","ono","badger","21","female","no","no","0","3","null","stimuli/sounds/guitar_label_A.wav","null","","","","","","",""
"","","","","","image-keyboard-response","8","2.0.0","246647","pztax6wgqwg","ono","badger","21","female","no","no","0","3","1298","stimuli/pictures/guitar_acoustic_1.jpg","1","1","true","true","","","",""
"","","","","","audio-keyboard-response","9","2.0.0","247450","pztax6wgqwg","ono","badger","21","female","no","no","0","3","null","stimuli/sounds/bleep.wav","null","","","","","","",""
"","","","","","html-keyboard-response","10","2.0.0","248153","pztax6wgqwg","ono","badger","21","female","no","no","0","3","null","<p style='color:green; font-size:30px;'>Correct!</p>","null","","","","","","",""
"","","","","","html-keyboard-response","11","2.0.0","248654","pztax6wgqwg","ono","badger","21","female","no","no","0","3","null","<div style=""font-size:60px;"">+</div>","null","","","","","","",""
"","","","","","audio-keyboard-response","12","2.0.0","249255","pztax6wgqwg","ono","badger","21","female","no","no","0","3","null","stimuli/sounds/guitar_sound_B.wav","null","","","","","","",""
"","","","","","image-keyboard-response","13","2.0.0","250801","pztax6wgqwg","ono","badger","21","female","no","no","0","3","1544","stimuli/pictures/guitar_acoustic_2.jpg","1","1","true","true","","","",""
"","","","","","audio-keyboard-response","14","2.0.0","251604","pztax6wgqwg","ono","badger","21","female","no","no","0","3","null","stimuli/sounds/bleep.wav","null","","","","","","",""
"","","","","","html-keyboard-response","15","2.0.0","252307","pztax6wgqwg","ono","badger","21","female","no","no","0","3","null","<p style='color:green; font-size:30px;'>Correct!</p>","null","","","","","","",""
"","","","","","html-keyboard-response","16","2.0.0","252809","pztax6wgqwg","ono","badger","21","female","no","no","0","3","null","<div style=""font-size:60px;"">+</div>","null","","","","","","",""
"","","","","","audio-keyboard-response","17","2.0.0","253410","pztax6wgqwg","ono","badger","21","female","no","no","0","3","null","stimuli/sounds/flute_sound_A.wav","null","","","","","","",""
"","","","","","image-keyboard-response","18","2.0.0","254515","pztax6wgqwg","ono","badger","21","female","no","no","0","3","1104","stimuli/pictures/guitar_electric_1.jpg","0","0","true","true","","","",""
"","","","","","audio-keyboard-response","19","2.0.0","255318","pztax6wgqwg","ono","badger","21","female","no","no","0","3","null","stimuli/sounds/bleep.wav","null","","","","","","",""
"","","","","","html-keyboard-response","20","2.0.0","256020","pztax6wgqwg","ono","badger","21","female","no","no","0","3","null","<p style='color:green; font-size:30px;'>Correct!</p>","null","","","","","","",""
"","","","","","html-keyboard-response","21","2.0.0","256522","pztax6wgqwg","ono","badger","21","female","no","no","0","3","null","<div style=""font-size:60px;"">+</div>","null","","","","","","",""
"","","","","","audio-keyboard-response","22","2.0.0","257122","pztax6wgqwg","ono","badger","21","female","no","no","0","3","null","stimuli/sounds/guitar_sound_A.wav","null","","","","","","",""
"","","","","","image-keyboard-response","23","2.0.0","258551","pztax6wgqwg","ono","badger","21","female","no","no","0","3","1428","stimuli/pictures/guitar_acoustic_1.jpg","0","1","true","false","","","",""
"","","","","","audio-keyboard-response","24","2.0.0","259353","pztax6wgqwg","ono","badger","21","female","no","no","0","3","null","stimuli/sounds/buzz.wav","null","","","","","","",""
"","","","","","html-keyboard-response","25","2.0.0","260055","pztax6wgqwg","ono","badger","21","female","no","no","0","3","null","<p style='color:red; font-size:30px;'>Incorrect</p>","null","","","","","","",""
"","","","","","html-keyboard-response","26","2.0.0","263733","pztax6wgqwg","ono","badger","21","female","no","no","0","3","3677","<p>Practice complete. Press any key to begin the real experiment.</p>"," ","","","","","","",""
"","","","","","html-keyboard-response","27","2.0.0","266139","pztax6wgqwg","ono","badger","21","female","no","no","0","3","2405","<div style=""font-size:30px;"">Press space to start the trial</div>"," ","","","","","","",""
"","","","","","html-keyboard-response","28","2.0.0","266392","pztax6wgqwg","ono","badger","21","female","no","no","0","3","null","<div style=""font-size:60px;"">+</div>","null","","","","","","",""
"","","","","","audio-keyboard-response","29","2.0.0","266999","pztax6wgqwg","ono","badger","21","female","no","no","0","3","null","stimuli/sounds/hiccup_label_B.wav","null","","","","","","",""
"","","","","","html-keyboard-response","30","2.0.0","268001","pztax6wgqwg","ono","badger","21","female","no","no","0","3","null","","null","","","","","","",""
"","","","","","image-keyboard-response","31","2.0.0","268858","pztax6wgqwg","ono","badger","21","female","no","no","0","3","855","stimuli/pictures/dog_york_1.jpg","0","0","","true","no","sound","stimuli/sounds/hiccup_label_B.wav",""
"","","","","","audio-keyboard-response","32","2.0.0","269860","pztax6wgqwg","ono","badger","21","female","no","no","0","3","null","stimuli/sounds/bleep.wav","null","","","","","","",""
"","","","","","html-keyboard-response","33","2.0.0","272596","pztax6wgqwg","ono","badger","21","female","no","no","0","3","2635","<div style=""font-size:30px;"">Press space to start the trial</div>"," ","","","","","","",""
"","","","","","html-keyboard-response","34","2.0.0","272849","pztax6wgqwg","ono","badger","21","female","no","no","0","3","null","<div style=""font-size:60px;"">+</div>","null","","","","","","",""
"","","","","","audio-keyboard-response","35","2.0.0","273452","pztax6wgqwg","ono","badger","21","female","no","no","0","3","null","stimuli/sounds/hiccup_sound_B.wav","null","","","","","","",""
"","","","","","html-keyboard-response","36","2.0.0","274455","pztax6wgqwg","ono","badger","21","female","no","no","0","3","null","","null","","","","","","",""
"","","","","","image-keyboard-response","37","2.0.0","275293","pztax6wgqwg","ono","badger","21","female","no","no","0","3","837","stimuli/pictures/hiccup_wom_2.jpg","1","1","","true","no","sound","stimuli/sounds/hiccup_sound_B.wav",""
"","","","","","audio-keyboard-response","38","2.0.0","276296","pztax6wgqwg","ono","badger","21","female","no","no","0","3","null","stimuli/sounds/bleep.wav","null","","","","","","",""
"","","","","","html-keyboard-response","39","2.0.0","277707","pztax6wgqwg","ono","badger","21","female","no","no","0","3","1309","<div style=""font-size:30px;"">Press space to start the trial</div>"," ","","","","","","",""
"","","","","","html-keyboard-response","40","2.0.0","277959","pztax6wgqwg","ono","badger","21","female","no","no","0","3","null","<div style=""font-size:60px;"">+</div>","null","","","","","","",""
"","","","","","audio-keyboard-response","41","2.0.0","278593","pztax6wgqwg","ono","badger","21","female","no","no","0","3","null","stimuli/sounds/cough_label_A.wav","null","","","","","","",""
"","","","","","html-keyboard-response","42","2.0.0","279595","pztax6wgqwg","ono","badger","21","female","no","no","0","3","null","","null","","","","","","",""
"","","","","","image-keyboard-response","43","2.0.0","280510","pztax6wgqwg","ono","badger","21","female","no","no","0","3","914","stimuli/pictures/motor_harley_1.jpg","0","0","","true","no","sound","stimuli/sounds/cough_label_A.wav",""
"","","","","","audio-keyboard-response","44","2.0.0","281512","pztax6wgqwg","ono","badger","21","female","no","no","0","3","null","stimuli/sounds/bleep.wav","null","","","","","","",""
"","","","","","html-keyboard-response","45","2.0.0","282050","pztax6wgqwg","ono","badger","21","female","no","no","0","3","436","<div style=""font-size:30px;"">Press space to start the trial</div>"," ","","","","","","",""
"","","","","","html-keyboard-response","46","2.0.0","282302","pztax6wgqwg","ono","badger","21","female","no","no","0","3","null","<div style=""font-size:60px;"">+</div>","null","","","","","","",""
"","","","","","audio-keyboard-response","47","2.0.0","282849","pztax6wgqwg","ono","badger","21","female","no","no","0","3","null","stimuli/sounds/drop_label_A.wav","null","","","","","","",""
"","","","","","html-keyboard-response","48","2.0.0","283851","pztax6wgqwg","ono","badger","21","female","no","no","0","3","null","","null","","","","","","",""
"","","","","","image-keyboard-response","49","2.0.0","284730","pztax6wgqwg","ono","badger","21","female","no","no","0","3","879","stimuli/pictures/drop_single_2.jpg","0","1","","false","yes","sound","stimuli/sounds/drop_label_A.wav",""
"","","","","","audio-keyboard-response","50","2.0.0","285733","pztax6wgqwg","ono","badger","21","female","no","no","0","3","null","stimuli/sounds/buzz.wav","null","","","","","","",""
"","","","","","html-keyboard-response","51","2.0.0","286633","pztax6wgqwg","ono","badger","21","female","no","no","0","3","798","<div style=""font-size:30px;"">Press space to start the trial</div>"," ","","","","","","",""
"","","","","","html-keyboard-response","52","2.0.0","286885","pztax6wgqwg","ono","badger","21","female","no","no","0","3","null","<div style=""font-size:60px;"">+</div>","null","","","","","","",""
"","","","","","audio-keyboard-response","53","2.0.0","287484","pztax6wgqwg","ono","badger","21","female","no","no","0","3","null","stimuli/sounds/dog_sound_A.wav","null","","","","","","",""
"","","","","","html-keyboard-response","54","2.0.0","288487","pztax6wgqwg","ono","badger","21","female","no","no","0","3","null","","null","","","","","","",""
"","","","","","image-keyboard-response","55","2.0.0","289268","pztax6wgqwg","ono","badger","21","female","no","no","0","3","780","stimuli/pictures/hiccup_man_2.jpg","0","0","","true","no","sound","stimuli/sounds/dog_sound_A.wav",""
"","","","","","audio-keyboard-response","56","2.0.0","290270","pztax6wgqwg","ono","badger","21","female","no","no","0","3","null","stimuli/sounds/bleep.wav","null","","","","","","",""
"","","","","","html-keyboard-response","57","2.0.0","290847","pztax6wgqwg","ono","badger","21","female","no","no","0","3","474","<div style=""font-size:30px;"">Press space to start the trial</div>"," ","","","","","","",""
"","","","","","html-keyboard-response","58","2.0.0","291099","pztax6wgqwg","ono","badger","21","female","no","no","0","3","null","<div style=""font-size:60px;"">+</div>","null","","","","","","",""
"","","","","","audio-keyboard-response","59","2.0.0","291698","pztax6wgqwg","ono","badger","21","female","no","no","0","3","null","stimuli/sounds/motor_label_B.wav","null","","","","","","",""
"","","","","","html-keyboard-response","60","2.0.0","292700","pztax6wgqwg","ono","badger","21","female","no","no","0","3","null","","null","","","","","","",""
"","","","","","image-keyboard-response","61","2.0.0","294252","pztax6wgqwg","ono","badger","21","female","no","no","0","3","1550","stimuli/pictures/hiccup_man_1.jpg","1","0","","false","no","sound","stimuli/sounds/motor_label_B.wav",""
"","","","","","audio-keyboard-response","62","2.0.0","295255","pztax6wgqwg","ono","badger","21","female","no","no","0","3","null","stimuli/sounds/buzz.wav","null","","","","","","",""
"","","","","","html-keyboard-response","63","2.0.0","296498","pztax6wgqwg","ono","badger","21","female","no","no","0","3","1141","<div style=""font-size:30px;"">Press space to start the trial</div>"," ","","","","","","",""
"","","","","","html-keyboard-response","64","2.0.0","296750","pztax6wgqwg","ono","badger","21","female","no","no","0","3","null","<div style=""font-size:60px;"">+</div>","null","","","","","","",""
"","","","","","audio-keyboard-response","65","2.0.0","297431","pztax6wgqwg","ono","badger","21","female","no","no","0","3","null","stimuli/sounds/cough_sound_B.wav","null","","","","","","",""
"","","","","","html-keyboard-response","66","2.0.0","298433","pztax6wgqwg","ono","badger","21","female","no","no","0","3","null","","null","","","","","","",""
"","","","","","image-keyboard-response","67","2.0.0","299783","pztax6wgqwg","ono","badger","21","female","no","no","0","3","1349","stimuli/pictures/cough_man_1.jpg","0","1","","false","yes","sound","stimuli/sounds/cough_sound_B.wav",""
"","","","","","audio-keyboard-response","68","2.0.0","300786","pztax6wgqwg","ono","badger","21","female","no","no","0","3","null","stimuli/sounds/buzz.wav","null","","","","","","",""
"","","","","","html-keyboard-response","69","2.0.0","302369","pztax6wgqwg","ono","badger","21","female","no","no","0","3","1481","<div style=""font-size:30px;"">Press space to start the trial</div>"," ","","","","","","",""
"","","","","","html-keyboard-response","70","2.0.0","302621","pztax6wgqwg","ono","badger","21","female","no","no","0","3","null","<div style=""font-size:60px;"">+</div>","null","","","","","","",""
"","","","","","audio-keyboard-response","71","2.0.0","303207","pztax6wgqwg","ono","badger","21","female","no","no","0","3","null","stimuli/sounds/drop_sound_A.wav","null","","","","","","",""
"","","","","","html-keyboard-response","72","2.0.0","304208","pztax6wgqwg","ono","badger","21","female","no","no","0","3","null","","null","","","","","","",""
"","","","","","image-keyboard-response","73","2.0.0","305251","pztax6wgqwg","ono","badger","21","female","no","no","0","3","1042","stimuli/pictures/cough_man_1.jpg","0","0","","true","no","sound","stimuli/sounds/drop_sound_A.wav",""
"","","","","","audio-keyboard-response","74","2.0.0","306254","pztax6wgqwg","ono","badger","21","female","no","no","0","3","null","stimuli/sounds/bleep.wav","null","","","","","","",""
"","","","","","html-keyboard-response","75","2.0.0","306702","pztax6wgqwg","ono","badger","21","female","no","no","0","3","346","<div style=""font-size:30px;"">Press space to start the trial</div>"," ","","","","","","",""
"","","","","","html-keyboard-response","76","2.0.0","306955","pztax6wgqwg","ono","badger","21","female","no","no","0","3","null","<div style=""font-size:60px;"">+</div>","null","","","","","","",""
"","","","","","audio-keyboard-response","77","2.0.0","307553","pztax6wgqwg","ono","badger","21","female","no","no","0","3","null","stimuli/sounds/dog_label_A.wav","null","","","","","","",""
"","","","","","html-keyboard-response","78","2.0.0","308555","pztax6wgqwg","ono","badger","21","female","no","no","0","3","null","","null","","","","","","",""
"","","","","","image-keyboard-response","79","2.0.0","309587","pztax6wgqwg","ono","badger","21","female","no","no","0","3","1031","stimuli/pictures/dog_york_1.jpg","1","1","","true","yes","sound","stimuli/sounds/dog_label_A.wav",""
"","","","","","audio-keyboard-response","80","2.0.0","310589","pztax6wgqwg","ono","badger","21","female","no","no","0","3","null","stimuli/sounds/bleep.wav","null","","","","","","",""
"","","","","","html-keyboard-response","81","2.0.0","312106","pztax6wgqwg","ono","badger","21","female","no","no","0","3","1414","<div style=""font-size:30px;"">Press space to start the trial</div>"," ","","","","","","",""
"","","","","","html-keyboard-response","82","2.0.0","312358","pztax6wgqwg","ono","badger","21","female","no","no","0","3","null","<div style=""font-size:60px;"">+</div>","null","","","","","","",""
"","","","","","audio-keyboard-response","83","2.0.0","312908","pztax6wgqwg","ono","badger","21","female","no","no","0","3","null","stimuli/sounds/drop_label_A.wav","null","","","","","","",""
"","","","","","html-keyboard-response","84","2.0.0","313910","pztax6wgqwg","ono","badger","21","female","no","no","0","3","null","","null","","","","","","",""
"","","","","","image-keyboard-response","85","2.0.0","314545","pztax6wgqwg","ono","badger","21","female","no","no","0","3","634","stimuli/pictures/hiccup_wom_2.jpg","0","0","","true","no","sound","stimuli/sounds/drop_label_A.wav",""
"","","","","","audio-keyboard-response","86","2.0.0","315548","pztax6wgqwg","ono","badger","21","female","no","no","0","3","null","stimuli/sounds/bleep.wav","null","","","","","","",""
"","","","","","html-keyboard-response","87","2.0.0","316138","pztax6wgqwg","ono","badger","21","female","no","no","0","3","488","<div style=""font-size:30px;"">Press space to start the trial</div>"," ","","","","","","",""
"","","","","","html-keyboard-response","88","2.0.0","316390","pztax6wgqwg","ono","badger","21","female","no","no","0","3","null","<div style=""font-size:60px;"">+</div>","null","","","","","","",""
"","","","","","audio-keyboard-response","89","2.0.0","316929","pztax6wgqwg","ono","badger","21","female","no","no","0","3","null","stimuli/sounds/hiccup_label_A.wav","null","","","","","","",""
"","","","","","html-keyboard-response","90","2.0.0","317930","pztax6wgqwg","ono","badger","21","female","no","no","0","3","null","","null","","","","","","",""
"","","","","","image-keyboard-response","91","2.0.0","318658","pztax6wgqwg","ono","badger","21","female","no","no","0","3","726","stimuli/pictures/hiccup_wom_1.jpg","1","1","","true","yes","sound","stimuli/sounds/hiccup_label_A.wav",""
"","","","","","audio-keyboard-response","92","2.0.0","319659","pztax6wgqwg","ono","badger","21","female","no","no","0","3","null","stimuli/sounds/bleep.wav","null","","","","","","",""
"","","","","","html-keyboard-response","93","2.0.0","320228","pztax6wgqwg","ono","badger","21","female","no","no","0","3","466","<div style=""font-size:30px;"">Press space to start the trial</div>"," ","","","","","","",""
"","","","","","html-keyboard-response","94","2.0.0","320480","pztax6wgqwg","ono","badger","21","female","no","no","0","3","null","<div style=""font-size:60px;"">+</div>","null","","","","","","",""
"","","","","","audio-keyboard-response","95","2.0.0","321089","pztax6wgqwg","ono","badger","21","female","no","no","0","3","null","stimuli/sounds/cough_label_B.wav","null","","","","","","",""
"","","","","","html-keyboard-response","96","2.0.0","322091","pztax6wgqwg","ono","badger","21","female","no","no","0","3","null","","null","","","","","","",""
"","","","","","image-keyboard-response","97","2.0.0","322577","pztax6wgqwg","ono","badger","21","female","no","no","0","3","485","stimuli/pictures/drop_single_2.jpg","0","0","","true","no","sound","stimuli/sounds/cough_label_B.wav",""
"","","","","","audio-keyboard-response","98","2.0.0","323580","pztax6wgqwg","ono","badger","21","female","no","no","0","3","null","stimuli/sounds/bleep.wav","null","","","","","","",""
"","","","","","html-keyboard-response","99","2.0.0","324064","pztax6wgqwg","ono","badger","21","female","no","no","0","3","382","<div style=""font-size:30px;"">Press space to start the trial</div>"," ","","","","","","",""
"","","","","","html-keyboard-response","100","2.0.0","324317","pztax6wgqwg","ono","badger","21","female","no","no","0","3","null","<div style=""font-size:60px;"">+</div>","null","","","","","","",""
"","","","","","audio-keyboard-response","101","2.0.0","324982","pztax6wgqwg","ono","badger","21","female","no","no","0","3","null","stimuli/sounds/cough_sound_A.wav","null","","","","","","",""
"","","","","","html-keyboard-response","102","2.0.0","325985","pztax6wgqwg","ono","badger","21","female","no","no","0","3","null","","null","","","","","","",""
"","","","","","image-keyboard-response","103","2.0.0","326485","pztax6wgqwg","ono","badger","21","female","no","no","0","3","499","stimuli/pictures/cough_wom_2.jpg","1","1","","true","yes","sound","stimuli/sounds/cough_sound_A.wav",""
"","","","","","audio-keyboard-response","104","2.0.0","327488","pztax6wgqwg","ono","badger","21","female","no","no","0","3","null","stimuli/sounds/bleep.wav","null","","","","","","",""
"","","","","","html-keyboard-response","105","2.0.0","327966","pztax6wgqwg","ono","badger","21","female","no","no","0","3","376","<div style=""font-size:30px;"">Press space to start the trial</div>"," ","","","","","","",""
"","","","","","html-keyboard-response","106","2.0.0","328217","pztax6wgqwg","ono","badger","21","female","no","no","0","3","null","<div style=""font-size:60px;"">+</div>","null","","","","","","",""
"","","","","","audio-keyboard-response","107","2.0.0","328817","pztax6wgqwg","ono","badger","21","female","no","no","0","3","null","stimuli/sounds/dog_label_B.wav","null","","","","","","",""
"","","","","","html-keyboard-response","108","2.0.0","329820","pztax6wgqwg","ono","badger","21","female","no","no","0","3","null","","null","","","","","","",""
"","","","","","image-keyboard-response","109","2.0.0","330449","pztax6wgqwg","ono","badger","21","female","no","no","0","3","628","stimuli/pictures/dog_rott_2.jpg","1","1","","true","yes","sound","stimuli/sounds/dog_label_B.wav",""
"","","","","","audio-keyboard-response","110","2.0.0","331452","pztax6wgqwg","ono","badger","21","female","no","no","0","3","null","stimuli/sounds/bleep.wav","null","","","","","","",""
"","","","","","html-keyboard-response","111","2.0.0","332169","pztax6wgqwg","ono","badger","21","female","no","no","0","3","616","<div style=""font-size:30px;"">Press space to start the trial</div>"," ","","","","","","",""
"","","","","","html-keyboard-response","112","2.0.0","332421","pztax6wgqwg","ono","badger","21","female","no","no","0","3","null","<div style=""font-size:60px;"">+</div>","null","","","","","","",""
"","","","","","audio-keyboard-response","113","2.0.0","332971","pztax6wgqwg","ono","badger","21","female","no","no","0","3","null","stimuli/sounds/drop_label_A.wav","null","","","","","","",""
"","","","","","html-keyboard-response","114","2.0.0","333973","pztax6wgqwg","ono","badger","21","female","no","no","0","3","null","","null","","","","","","",""
"","","","","","image-keyboard-response","115","2.0.0","334743","pztax6wgqwg","ono","badger","21","female","no","no","0","3","769","stimuli/pictures/hiccup_wom_1.jpg","0","0","","true","no","sound","stimuli/sounds/drop_label_A.wav",""
"","","","","","audio-keyboard-response","116","2.0.0","335745","pztax6wgqwg","ono","badger","21","female","no","no","0","3","null","stimuli/sounds/bleep.wav","null","","","","","","",""
"","","","","","html-keyboard-response","117","2.0.0","336234","pztax6wgqwg","ono","badger","21","female","no","no","0","3","387","<div style=""font-size:30px;"">Press space to start the trial</div>"," ","","","","","","",""
"","","","","","html-keyboard-response","118","2.0.0","336486","pztax6wgqwg","ono","badger","21","female","no","no","0","3","null","<div style=""font-size:60px;"">+</div>","null","","","","","","",""
"","","","","","audio-keyboard-response","119","2.0.0","337121","pztax6wgqwg","ono","badger","21","female","no","no","0","3","null","stimuli/sounds/cough_label_A.wav","null","","","","","","",""
"","","","","","html-keyboard-response","120","2.0.0","338123","pztax6wgqwg","ono","badger","21","female","no","no","0","3","null","","null","","","","","","",""
"","","","","","image-keyboard-response","121","2.0.0","338780","pztax6wgqwg","ono","badger","21","female","no","no","0","3","656","stimuli/pictures/motor_dirt_2.jpg","0","0","","true","no","sound","stimuli/sounds/cough_label_A.wav",""
"","","","","","audio-keyboard-response","122","2.0.0","339782","pztax6wgqwg","ono","badger","21","female","no","no","0","3","null","stimuli/sounds/bleep.wav","null","","","","","","",""
"","","","","","html-keyboard-response","123","2.0.0","340896","pztax6wgqwg","ono","badger","21","female","no","no","0","3","1012","<div style=""font-size:30px;"">Press space to start the trial</div>"," ","","","","","","",""
"","","","","","html-keyboard-response","124","2.0.0","341148","pztax6wgqwg","ono","badger","21","female","no","no","0","3","null","<div style=""font-size:60px;"">+</div>","null","","","","","","",""
"","","","","","audio-keyboard-response","125","2.0.0","341750","pztax6wgqwg","ono","badger","21","female","no","no","0","3","null","stimuli/sounds/motor_sound_A.wav","null","","","","","","",""
"","","","","","html-keyboard-response","126","2.0.0","342752","pztax6wgqwg","ono","badger","21","female","no","no","0","3","null","","null","","","","","","",""
"","","","","","image-keyboard-response","127","2.0.0","343314","pztax6wgqwg","ono","badger","21","female","no","no","0","3","560","stimuli/pictures/drop_single_2.jpg","0","0","","true","no","sound","stimuli/sounds/motor_sound_A.wav",""
"","","","","","audio-keyboard-response","128","2.0.0","344317","pztax6wgqwg","ono","badger","21","female","no","no","0","3","null","stimuli/sounds/bleep.wav","null","","","","","","",""
"","","","","","html-keyboard-response","129","2.0.0","344786","pztax6wgqwg","ono","badger","21","female","no","no","0","3","368","<div style=""font-size:30px;"">Press space to start the trial</div>"," ","","","","","","",""
"","","","","","html-keyboard-response","130","2.0.0","345039","pztax6wgqwg","ono","badger","21","female","no","no","0","3","null","<div style=""font-size:60px;"">+</div>","null","","","","","","",""
"","","","","","audio-keyboard-response","131","2.0.0","345638","pztax6wgqwg","ono","badger","21","female","no","no","0","3","null","stimuli/sounds/dog_label_A.wav","null","","","","","","",""
"","","","","","html-keyboard-response","132","2.0.0","346640","pztax6wgqwg","ono","badger","21","female","no","no","0","3","null","","null","","","","","","",""
"","","","","","image-keyboard-response","133","2.0.0","347107","pztax6wgqwg","ono","badger","21","female","no","no","0","3","466","stimuli/pictures/dog_york_2.jpg","1","1","","true","yes","sound","stimuli/sounds/dog_label_A.wav",""
"","","","","","audio-keyboard-response","134","2.0.0","348109","pztax6wgqwg","ono","badger","21","female","no","no","0","3","null","stimuli/sounds/bleep.wav","null","","","","","","",""
"","","","","","html-keyboard-response","135","2.0.0","348525","pztax6wgqwg","ono","badger","21","female","no","no","0","3","314","<div style=""font-size:30px;"">Press space to start the trial</div>"," ","","","","","","",""
"","","","","","html-keyboard-response","136","2.0.0","348778","pztax6wgqwg","ono","badger","21","female","no","no","0","3","null","<div style=""font-size:60px;"">+</div>","null","","","","","","",""
"","","","","","audio-keyboard-response","137","2.0.0","349323","pztax6wgqwg","ono","badger","21","female","no","no","0","3","null","stimuli/sounds/drop_label_A.wav","null","","","","","","",""
"","","","","","html-keyboard-response","138","2.0.0","350325","pztax6wgqwg","ono","badger","21","female","no","no","0","3","null","","null","","","","","","",""
"","","","","","image-keyboard-response","139","2.0.0","350962","pztax6wgqwg","ono","badger","21","female","no","no","0","3","635","stimuli/pictures/hiccup_man_1.jpg","0","0","","true","no","sound","stimuli/sounds/drop_label_A.wav",""
"","","","","","audio-keyboard-response","140","2.0.0","351964","pztax6wgqwg","ono","badger","21","female","no","no","0","3","null","stimuli/sounds/bleep.wav","null","","","","","","",""
"","","","","","html-keyboard-response","141","2.0.0","352477","pztax6wgqwg","ono","badger","21","female","no","no","0","3","411","<div style=""font-size:30px;"">Press space to start the trial</div>"," ","","","","","","",""
"","","","","","html-keyboard-response","142","2.0.0","352730","pztax6wgqwg","ono","badger","21","female","no","no","0","3","null","<div style=""font-size:60px;"">+</div>","null","","","","","","",""
"","","","","","audio-keyboard-response","143","2.0.0","353329","pztax6wgqwg","ono","badger","21","female","no","no","0","3","null","stimuli/sounds/motor_label_B.wav","null","","","","","","",""
"","","","","","html-keyboard-response","144","2.0.0","354331","pztax6wgqwg","ono","badger","21","female","no","no","0","3","null","","null","","","","","","",""
"","","","","","image-keyboard-response","145","2.0.0","354830","pztax6wgqwg","ono","badger","21","female","no","no","0","3","497","stimuli/pictures/motor_dirt_1.jpg","1","1","","true","yes","sound","stimuli/sounds/motor_label_B.wav",""
"","","","","","audio-keyboard-response","146","2.0.0","355832","pztax6wgqwg","ono","badger","21","female","no","no","0","3","null","stimuli/sounds/bleep.wav","null","","","","","","",""
"","","","","","html-keyboard-response","147","2.0.0","357625","pztax6wgqwg","ono","badger","21","female","no","no","0","3","1691","<p>You have completed a block. Press R when you are ready to continue</p>","r","","","","","","",""
"","","","","","html-keyboard-response","148","2.0.0","360063","pztax6wgqwg","ono","badger","21","female","no","no","0","3","2437","<div style=""font-size:30px;"">Press space to start the trial</div>"," ","","","","","","",""
"","","","","","html-keyboard-response","149","2.0.0","360315","pztax6wgqwg","ono","badger","21","female","no","no","0","3","null","<div style=""font-size:60px;"">+</div>","null","","","","","","",""
"","","","","","audio-keyboard-response","150","2.0.0","360918","pztax6wgqwg","ono","badger","21","female","no","no","0","3","null","stimuli/sounds/dog_sound_A.wav","null","","","","","","",""
"","","","","","html-keyboard-response","151","2.0.0","361920","pztax6wgqwg","ono","badger","21","female","no","no","0","3","null","","null","","","","","","",""
"","","","","","image-keyboard-response","152","2.0.0","362464","pztax6wgqwg","ono","badger","21","female","no","no","0","3","542","stimuli/pictures/dog_york_1.jpg","1","1","","true","no","sound","stimuli/sounds/dog_sound_A.wav",""
"","","","","","audio-keyboard-response","153","2.0.0","363466","pztax6wgqwg","ono","badger","21","female","no","no","0","3","null","stimuli/sounds/bleep.wav","null","","","","","","",""
"","","","","","html-keyboard-response","154","2.0.0","364209","pztax6wgqwg","ono","badger","21","female","no","no","0","3","641","<div style=""font-size:30px;"">Press space to start the trial</div>"," ","","","","","","",""
"","","","","","html-keyboard-response","155","2.0.0","364462","pztax6wgqwg","ono","badger","21","female","no","no","0","3","null","<div style=""font-size:60px;"">+</div>","null","","","","","","",""
"","","","","","audio-keyboard-response","156","2.0.0","364998","pztax6wgqwg","ono","badger","21","female","no","no","0","3","null","stimuli/sounds/hiccup_label_A.wav","null","","","","","","",""
"","","","","","html-keyboard-response","157","2.0.0","365999","pztax6wgqwg","ono","badger","21","female","no","no","0","3","null","","null","","","","","","",""
"","","","","","image-keyboard-response","158","2.0.0","366609","pztax6wgqwg","ono","badger","21","female","no","no","0","3","608","stimuli/pictures/hiccup_man_2.jpg","1","1","","true","yes","sound","stimuli/sounds/hiccup_label_A.wav",""
"","","","","","audio-keyboard-response","159","2.0.0","367611","pztax6wgqwg","ono","badger","21","female","no","no","0","3","null","stimuli/sounds/bleep.wav","null","","","","","","",""
"","","","","","html-keyboard-response","160","2.0.0","368371","pztax6wgqwg","ono","badger","21","female","no","no","0","3","659","<div style=""font-size:30px;"">Press space to start the trial</div>"," ","","","","","","",""
"","","","","","html-keyboard-response","161","2.0.0","368623","pztax6wgqwg","ono","badger","21","female","no","no","0","3","null","<div style=""font-size:60px;"">+</div>","null","","","","","","",""
"","","","","","audio-keyboard-response","162","2.0.0","369222","pztax6wgqwg","ono","badger","21","female","no","no","0","3","null","stimuli/sounds/motor_label_B.wav","null","","","","","","",""
"","","","","","html-keyboard-response","163","2.0.0","370223","pztax6wgqwg","ono","badger","21","female","no","no","0","3","null","","null","","","","","","",""
"","","","","","image-keyboard-response","164","2.0.0","370688","pztax6wgqwg","ono","badger","21","female","no","no","0","3","464","stimuli/pictures/motor_harley_1.jpg","1","1","","true","yes","sound","stimuli/sounds/motor_label_B.wav",""
"","","","","","audio-keyboard-response","165","2.0.0","371690","pztax6wgqwg","ono","badger","21","female","no","no","0","3","null","stimuli/sounds/bleep.wav","null","","","","","","",""
"","","","","","html-keyboard-response","166","2.0.0","372195","pztax6wgqwg","ono","badger","21","female","no","no","0","3","403","<div style=""font-size:30px;"">Press space to start the trial</div>"," ","","","","","","",""
"","","","","","html-keyboard-response","167","2.0.0","372447","pztax6wgqwg","ono","badger","21","female","no","no","0","3","null","<div style=""font-size:60px;"">+</div>","null","","","","","","",""
"","","","","","audio-keyboard-response","168","2.0.0","373051","pztax6wgqwg","ono","badger","21","female","no","no","0","3","null","stimuli/sounds/motor_label_A.wav","null","","","","","","",""
"","","","","","html-keyboard-response","169","2.0.0","374052","pztax6wgqwg","ono","badger","21","female","no","no","0","3","null","","null","","","","","","",""
"","","","","","image-keyboard-response","170","2.0.0","374573","pztax6wgqwg","ono","badger","21","female","no","no","0","3","520","stimuli/pictures/dog_york_2.jpg","0","0","","true","no","sound","stimuli/sounds/motor_label_A.wav",""
"","","","","","audio-keyboard-response","171","2.0.0","375576","pztax6wgqwg","ono","badger","21","female","no","no","0","3","null","stimuli/sounds/bleep.wav","null","","","","","","",""
"","","","","","html-keyboard-response","172","2.0.0","376219","pztax6wgqwg","ono","badger","21","female","no","no","0","3","542","<div style=""font-size:30px;"">Press space to start the trial</div>"," ","","","","","","",""
"","","","","","html-keyboard-response","173","2.0.0","376472","pztax6wgqwg","ono","badger","21","female","no","no","0","3","null","<div style=""font-size:60px;"">+</div>","null","","","","","","",""
"","","","","","audio-keyboard-response","174","2.0.0","377078","pztax6wgqwg","ono","badger","21","female","no","no","0","3","null","stimuli/sounds/drop_sound_B.wav","null","","","","","","",""
"","","","","","html-keyboard-response","175","2.0.0","378080","pztax6wgqwg","ono","badger","21","female","no","no","0","3","null","","null","","","","","","",""
"","","","","","image-keyboard-response","176","2.0.0","378976","pztax6wgqwg","ono","badger","21","female","no","no","0","3","895","stimuli/pictures/drop_multi_1.jpg","1","1","","true","yes","sound","stimuli/sounds/drop_sound_B.wav",""
"","","","","","audio-keyboard-response","177","2.0.0","379978","pztax6wgqwg","ono","badger","21","female","no","no","0","3","null","stimuli/sounds/bleep.wav","null","","","","","","",""
"","","","","","html-keyboard-response","178","2.0.0","380527","pztax6wgqwg","ono","badger","21","female","no","no","0","3","446","<div style=""font-size:30px;"">Press space to start the trial</div>"," ","","","","","","",""
"","","","","","html-keyboard-response","179","2.0.0","380779","pztax6wgqwg","ono","badger","21","female","no","no","0","3","null","<div style=""font-size:60px;"">+</div>","null","","","","","","",""
"","","","","","audio-keyboard-response","180","2.0.0","381382","pztax6wgqwg","ono","badger","21","female","no","no","0","3","null","stimuli/sounds/dog_sound_B.wav","null","","","","","","",""
"","","","","","html-keyboard-response","181","2.0.0","382384","pztax6wgqwg","ono","badger","21","female","no","no","0","3","null","","null","","","","","","",""
"","","","","","image-keyboard-response","182","2.0.0","383092","pztax6wgqwg","ono","badger","21","female","no","no","0","3","706","stimuli/pictures/motor_dirt_1.jpg","0","0","","true","no","sound","stimuli/sounds/dog_sound_B.wav",""
"","","","","","audio-keyboard-response","183","2.0.0","384095","pztax6wgqwg","ono","badger","21","female","no","no","0","3","null","stimuli/sounds/bleep.wav","null","","","","","","",""
"","","","","","html-keyboard-response","184","2.0.0","384539","pztax6wgqwg","ono","badger","21","female","no","no","0","3","342","<div style=""font-size:30px;"">Press space to start the trial</div>"," ","","","","","","",""
"","","","","","html-keyboard-response","185","2.0.0","384791","pztax6wgqwg","ono","badger","21","female","no","no","0","3","null","<div style=""font-size:60px;"">+</div>","null","","","","","","",""
"","","","","","audio-keyboard-response","186","2.0.0","385398","pztax6wgqwg","ono","badger","21","female","no","no","0","3","null","stimuli/sounds/hiccup_label_B.wav","null","","","","","","",""
"","","","","","html-keyboard-response","187","2.0.0","386400","pztax6wgqwg","ono","badger","21","female","no","no","0","3","null","","null","","","","","","",""
"","","","","","image-keyboard-response","188","2.0.0","387050","pztax6wgqwg","ono","badger","21","female","no","no","0","3","648","stimuli/pictures/hiccup_wom_2.jpg","1","1","","true","yes","sound","stimuli/sounds/hiccup_label_B.wav",""
"","","","","","audio-keyboard-response","189","2.0.0","388053","pztax6wgqwg","ono","badger","21","female","no","no","0","3","null","stimuli/sounds/bleep.wav","null","","","","","","",""
"","","","","","html-keyboard-response","190","2.0.0","388866","pztax6wgqwg","ono","badger","21","female","no","no","0","3","711","<div style=""font-size:30px;"">Press space to start the trial</div>"," ","","","","","","",""
"","","","","","html-keyboard-response","191","2.0.0","389118","pztax6wgqwg","ono","badger","21","female","no","no","0","3","null","<div style=""font-size:60px;"">+</div>","null","","","","","","",""
"","","","","","audio-keyboard-response","192","2.0.0","389717","pztax6wgqwg","ono","badger","21","female","no","no","0","3","null","stimuli/sounds/motor_sound_A.wav","null","","","","","","",""
"","","","","","html-keyboard-response","193","2.0.0","390720","pztax6wgqwg","ono","badger","21","female","no","no","0","3","null","","null","","","","","","",""
"","","","","","image-keyboard-response","194","2.0.0","391598","pztax6wgqwg","ono","badger","21","female","no","no","0","3","877","stimuli/pictures/motor_harley_2.jpg","1","1","","true","no","sound","stimuli/sounds/motor_sound_A.wav",""
"","","","","","audio-keyboard-response","195","2.0.0","392601","pztax6wgqwg","ono","badger","21","female","no","no","0","3","null","stimuli/sounds/bleep.wav","null","","","","","","",""
"","","","","","html-keyboard-response","196","2.0.0","393054","pztax6wgqwg","ono","badger","21","female","no","no","0","3","350","<div style=""font-size:30px;"">Press space to start the trial</div>"," ","","","","","","",""
"","","","","","html-keyboard-response","197","2.0.0","393306","pztax6wgqwg","ono","badger","21","female","no","no","0","3","null","<div style=""font-size:60px;"">+</div>","null","","","","","","",""
"","","","","","audio-keyboard-response","198","2.0.0","393909","pztax6wgqwg","ono","badger","21","female","no","no","0","3","null","stimuli/sounds/motor_sound_B.wav","null","","","","","","",""
"","","","","","html-keyboard-response","199","2.0.0","394910","pztax6wgqwg","ono","badger","21","female","no","no","0","3","null","","null","","","","","","",""
"","","","","","image-keyboard-response","200","2.0.0","395388","pztax6wgqwg","ono","badger","21","female","no","no","0","3","477","stimuli/pictures/motor_harley_1.jpg","1","1","","true","yes","sound","stimuli/sounds/motor_sound_B.wav",""
"","","","","","audio-keyboard-response","201","2.0.0","396391","pztax6wgqwg","ono","badger","21","female","no","no","0","3","null","stimuli/sounds/bleep.wav","null","","","","","","",""
"","","","","","html-keyboard-response","202","2.0.0","396776","pztax6wgqwg","ono","badger","21","female","no","no","0","3","284","<div style=""font-size:30px;"">Press space to start the trial</div>"," ","","","","","","",""
"","","","","","html-keyboard-response","203","2.0.0","397028","pztax6wgqwg","ono","badger","21","female","no","no","0","3","null","<div style=""font-size:60px;"">+</div>","null","","","","","","",""
"","","","","","audio-keyboard-response","204","2.0.0","397632","pztax6wgqwg","ono","badger","21","female","no","no","0","3","null","stimuli/sounds/drop_sound_B.wav","null","","","","","","",""
"","","","","","html-keyboard-response","205","2.0.0","398634","pztax6wgqwg","ono","badger","21","female","no","no","0","3","null","","null","","","","","","",""
"","","","","","image-keyboard-response","206","2.0.0","399195","pztax6wgqwg","ono","badger","21","female","no","no","0","3","560","stimuli/pictures/drop_single_1.jpg","0","1","","false","no","sound","stimuli/sounds/drop_sound_B.wav",""
"","","","","","audio-keyboard-response","207","2.0.0","400197","pztax6wgqwg","ono","badger","21","female","no","no","0","3","null","stimuli/sounds/buzz.wav","null","","","","","","",""
"","","","","","html-keyboard-response","208","2.0.0","400641","pztax6wgqwg","ono","badger","21","female","no","no","0","3","341","<div style=""font-size:30px;"">Press space to start the trial</div>"," ","","","","","","",""
"","","","","","html-keyboard-response","209","2.0.0","400892","pztax6wgqwg","ono","badger","21","female","no","no","0","3","null","<div style=""font-size:60px;"">+</div>","null","","","","","","",""
"","","","","","audio-keyboard-response","210","2.0.0","401499","pztax6wgqwg","ono","badger","21","female","no","no","0","3","null","stimuli/sounds/drop_sound_B.wav","null","","","","","","",""
"","","","","","html-keyboard-response","211","2.0.0","402500","pztax6wgqwg","ono","badger","21","female","no","no","0","3","null","","null","","","","","","",""
"","","","","","image-keyboard-response","212","2.0.0","402906","pztax6wgqwg","ono","badger","21","female","no","no","0","3","405","stimuli/pictures/dog_york_1.jpg","0","0","","true","no","sound","stimuli/sounds/drop_sound_B.wav",""
"","","","","","audio-keyboard-response","213","2.0.0","403909","pztax6wgqwg","ono","badger","21","female","no","no","0","3","null","stimuli/sounds/bleep.wav","null","","","","","","",""
"","","","","","html-keyboard-response","214","2.0.0","404945","pztax6wgqwg","ono","badger","21","female","no","no","0","3","934","<div style=""font-size:30px;"">Press space to start the trial</div>"," ","","","","","","",""
"","","","","","html-keyboard-response","215","2.0.0","405197","pztax6wgqwg","ono","badger","21","female","no","no","0","3","null","<div style=""font-size:60px;"">+</div>","null","","","","","","",""
"","","","","","audio-keyboard-response","216","2.0.0","405797","pztax6wgqwg","ono","badger","21","female","no","no","0","3","null","stimuli/sounds/motor_label_A.wav","null","","","","","","",""
"","","","","","html-keyboard-response","217","2.0.0","406799","pztax6wgqwg","ono","badger","21","female","no","no","0","3","null","","null","","","","","","",""
"","","","","","image-keyboard-response","218","2.0.0","407351","pztax6wgqwg","ono","badger","21","female","no","no","0","3","551","stimuli/pictures/motor_harley_1.jpg","1","1","","true","yes","sound","stimuli/sounds/motor_label_A.wav",""
"","","","","","audio-keyboard-response","219","2.0.0","408354","pztax6wgqwg","ono","badger","21","female","no","no","0","3","null","stimuli/sounds/bleep.wav","null","","","","","","",""
"","","","","","html-keyboard-response","220","2.0.0","409141","pztax6wgqwg","ono","badger","21","female","no","no","0","3","685","<div style=""font-size:30px;"">Press space to start the trial</div>"," ","","","","","","",""
"","","","","","html-keyboard-response","221","2.0.0","409393","pztax6wgqwg","ono","badger","21","female","no","no","0","3","null","<div style=""font-size:60px;"">+</div>","null","","","","","","",""
"","","","","","audio-keyboard-response","222","2.0.0","410058","pztax6wgqwg","ono","badger","21","female","no","no","0","3","null","stimuli/sounds/cough_sound_A.wav","null","","","","","","",""
"","","","","","html-keyboard-response","223","2.0.0","411060","pztax6wgqwg","ono","badger","21","female","no","no","0","3","null","","null","","","","","","",""
"","","","","","image-keyboard-response","224","2.0.0","411507","pztax6wgqwg","ono","badger","21","female","no","no","0","3","445","stimuli/pictures/dog_york_2.jpg","0","0","","true","no","sound","stimuli/sounds/cough_sound_A.wav",""
"","","","","","audio-keyboard-response","225","2.0.0","412509","pztax6wgqwg","ono","badger","21","female","no","no","0","3","null","stimuli/sounds/bleep.wav","null","","","","","","",""
"","","","","","html-keyboard-response","226","2.0.0","412999","pztax6wgqwg","ono","badger","21","female","no","no","0","3","388","<div style=""font-size:30px;"">Press space to start the trial</div>"," ","","","","","","",""
"","","","","","html-keyboard-response","227","2.0.0","413252","pztax6wgqwg","ono","badger","21","female","no","no","0","3","null","<div style=""font-size:60px;"">+</div>","null","","","","","","",""
"","","","","","audio-keyboard-response","228","2.0.0","413856","pztax6wgqwg","ono","badger","21","female","no","no","0","3","null","stimuli/sounds/hiccup_sound_A.wav","null","","","","","","",""
"","","","","","html-keyboard-response","229","2.0.0","414858","pztax6wgqwg","ono","badger","21","female","no","no","0","3","null","","null","","","","","","",""
"","","","","","image-keyboard-response","230","2.0.0","415390","pztax6wgqwg","ono","badger","21","female","no","no","0","3","531","stimuli/pictures/hiccup_man_2.jpg","1","1","","true","no","sound","stimuli/sounds/hiccup_sound_A.wav",""
"","","","","","audio-keyboard-response","231","2.0.0","416393","pztax6wgqwg","ono","badger","21","female","no","no","0","3","null","stimuli/sounds/bleep.wav","null","","","","","","",""
"","","","","","html-keyboard-response","232","2.0.0","416856","pztax6wgqwg","ono","badger","21","female","no","no","0","3","360","<div style=""font-size:30px;"">Press space to start the trial</div>"," ","","","","","","",""
"","","","","","html-keyboard-response","233","2.0.0","417108","pztax6wgqwg","ono","badger","21","female","no","no","0","3","null","<div style=""font-size:60px;"">+</div>","null","","","","","","",""
"","","","","","audio-keyboard-response","234","2.0.0","417706","pztax6wgqwg","ono","badger","21","female","no","no","0","3","null","stimuli/sounds/dog_label_A.wav","null","","","","","","",""
"","","","","","html-keyboard-response","235","2.0.0","418708","pztax6wgqwg","ono","badger","21","female","no","no","0","3","null","","null","","","","","","",""
"","","","","","image-keyboard-response","236","2.0.0","419907","pztax6wgqwg","ono","badger","21","female","no","no","0","3","1197","stimuli/pictures/drop_single_2.jpg","0","0","","true","no","sound","stimuli/sounds/dog_label_A.wav",""
"","","","","","audio-keyboard-response","237","2.0.0","420909","pztax6wgqwg","ono","badger","21","female","no","no","0","3","null","stimuli/sounds/bleep.wav","null","","","","","","",""
"","","","","","html-keyboard-response","238","2.0.0","421365","pztax6wgqwg","ono","badger","21","female","no","no","0","3","354","<div style=""font-size:30px;"">Press space to start the trial</div>"," ","","","","","","",""
"","","","","","html-keyboard-response","239","2.0.0","421617","pztax6wgqwg","ono","badger","21","female","no","no","0","3","null","<div style=""font-size:60px;"">+</div>","null","","","","","","",""
"","","","","","audio-keyboard-response","240","2.0.0","422282","pztax6wgqwg","ono","badger","21","female","no","no","0","3","null","stimuli/sounds/cough_sound_A.wav","null","","","","","","",""
"","","","","","html-keyboard-response","241","2.0.0","423284","pztax6wgqwg","ono","badger","21","female","no","no","0","3","null","","null","","","","","","",""
"","","","","","image-keyboard-response","242","2.0.0","423766","pztax6wgqwg","ono","badger","21","female","no","no","0","3","480","stimuli/pictures/dog_york_1.jpg","0","0","","true","no","sound","stimuli/sounds/cough_sound_A.wav",""
"","","","","","audio-keyboard-response","243","2.0.0","424768","pztax6wgqwg","ono","badger","21","female","no","no","0","3","null","stimuli/sounds/bleep.wav","null","","","","","","",""
"","","","","","html-keyboard-response","244","2.0.0","425323","pztax6wgqwg","ono","badger","21","female","no","no","0","3","452","<div style=""font-size:30px;"">Press space to start the trial</div>"," ","","","","","","",""
"","","","","","html-keyboard-response","245","2.0.0","425575","pztax6wgqwg","ono","badger","21","female","no","no","0","3","null","<div style=""font-size:60px;"">+</div>","null","","","","","","",""
"","","","","","audio-keyboard-response","246","2.0.0","426176","pztax6wgqwg","ono","badger","21","female","no","no","0","3","null","stimuli/sounds/motor_sound_A.wav","null","","","","","","",""
"","","","","","html-keyboard-response","247","2.0.0","427177","pztax6wgqwg","ono","badger","21","female","no","no","0","3","null","","null","","","","","","",""
"","","","","","image-keyboard-response","248","2.0.0","427632","pztax6wgqwg","ono","badger","21","female","no","no","0","3","454","stimuli/pictures/drop_multi_1.jpg","0","0","","true","no","sound","stimuli/sounds/motor_sound_A.wav",""
"","","","","","audio-keyboard-response","249","2.0.0","428634","pztax6wgqwg","ono","badger","21","female","no","no","0","3","null","stimuli/sounds/bleep.wav","null","","","","","","",""
"","","","","","html-keyboard-response","250","2.0.0","429055","pztax6wgqwg","ono","badger","21","female","no","no","0","3","319","<div style=""font-size:30px;"">Press space to start the trial</div>"," ","","","","","","",""
"","","","","","html-keyboard-response","251","2.0.0","429307","pztax6wgqwg","ono","badger","21","female","no","no","0","3","null","<div style=""font-size:60px;"">+</div>","null","","","","","","",""
"","","","","","audio-keyboard-response","252","2.0.0","429914","pztax6wgqwg","ono","badger","21","female","no","no","0","3","null","stimuli/sounds/drop_sound_B.wav","null","","","","","","",""
"","","","","","html-keyboard-response","253","2.0.0","430917","pztax6wgqwg","ono","badger","21","female","no","no","0","3","null","","null","","","","","","",""
"","","","","","image-keyboard-response","254","2.0.0","431543","pztax6wgqwg","ono","badger","21","female","no","no","0","3","626","stimuli/pictures/dog_rott_1.jpg","0","0","","true","no","sound","stimuli/sounds/drop_sound_B.wav",""
"","","","","","audio-keyboard-response","255","2.0.0","432546","pztax6wgqwg","ono","badger","21","female","no","no","0","3","null","stimuli/sounds/bleep.wav","null","","","","","","",""
"","","","","","html-keyboard-response","256","2.0.0","433031","pztax6wgqwg","ono","badger","21","female","no","no","0","3","382","<div style=""font-size:30px;"">Press space to start the trial</div>"," ","","","","","","",""
"","","","","","html-keyboard-response","257","2.0.0","433283","pztax6wgqwg","ono","badger","21","female","no","no","0","3","null","<div style=""font-size:60px;"">+</div>","null","","","","","","",""
"","","","","","audio-keyboard-response","258","2.0.0","433818","pztax6wgqwg","ono","badger","21","female","no","no","0","3","null","stimuli/sounds/hiccup_label_A.wav","null","","","","","","",""
"","","","","","html-keyboard-response","259","2.0.0","434820","pztax6wgqwg","ono","badger","21","female","no","no","0","3","null","","null","","","","","","",""
"","","","","","image-keyboard-response","260","2.0.0","435538","pztax6wgqwg","ono","badger","21","female","no","no","0","3","717","stimuli/pictures/cough_wom_2.jpg","1","0","","false","no","sound","stimuli/sounds/hiccup_label_A.wav",""
"","","","","","audio-keyboard-response","261","2.0.0","436541","pztax6wgqwg","ono","badger","21","female","no","no","0","3","null","stimuli/sounds/buzz.wav","null","","","","","","",""
"","","","","","html-keyboard-response","262","2.0.0","437611","pztax6wgqwg","ono","badger","21","female","no","no","0","3","969","<div style=""font-size:30px;"">Press space to start the trial</div>"," ","","","","","","",""
"","","","","","html-keyboard-response","263","2.0.0","437864","pztax6wgqwg","ono","badger","21","female","no","no","0","3","null","<div style=""font-size:60px;"">+</div>","null","","","","","","",""
"","","","","","audio-keyboard-response","264","2.0.0","438463","pztax6wgqwg","ono","badger","21","female","no","no","0","3","null","stimuli/sounds/dog_label_B.wav","null","","","","","","",""
"","","","","","html-keyboard-response","265","2.0.0","439465","pztax6wgqwg","ono","badger","21","female","no","no","0","3","null","","null","","","","","","",""
"","","","","","image-keyboard-response","266","2.0.0","440448","pztax6wgqwg","ono","badger","21","female","no","no","0","3","982","stimuli/pictures/cough_wom_2.jpg","0","0","","true","no","sound","stimuli/sounds/dog_label_B.wav",""
"","","","","","audio-keyboard-response","267","2.0.0","441451","pztax6wgqwg","ono","badger","21","female","no","no","0","3","null","stimuli/sounds/bleep.wav","null","","","","","","",""
"","","","","","html-keyboard-response","268","2.0.0","442874","pztax6wgqwg","ono","badger","21","female","no","no","0","3","1321","<p>You have completed a block. Press R when you are ready to continue</p>","r","","","","","","",""
"","","","","","html-keyboard-response","269","2.0.0","443530","pztax6wgqwg","ono","badger","21","female","no","no","0","3","655","<div style=""font-size:30px;"">Press space to start the trial</div>"," ","","","","","","",""
"","","","","","html-keyboard-response","270","2.0.0","443781","pztax6wgqwg","ono","badger","21","female","no","no","0","3","null","<div style=""font-size:60px;"">+</div>","null","","","","","","",""
"","","","","","audio-keyboard-response","271","2.0.0","444383","pztax6wgqwg","ono","badger","21","female","no","no","0","3","null","stimuli/sounds/dog_label_A.wav","null","","","","","","",""
"","","","","","html-keyboard-response","272","2.0.0","445385","pztax6wgqwg","ono","badger","21","female","no","no","0","3","null","","null","","","","","","",""
"","","","","","image-keyboard-response","273","2.0.0","446157","pztax6wgqwg","ono","badger","21","female","no","no","0","3","771","stimuli/pictures/dog_rott_2.jpg","1","1","","true","yes","sound","stimuli/sounds/dog_label_A.wav",""
"","","","","","audio-keyboard-response","274","2.0.0","447160","pztax6wgqwg","ono","badger","21","female","no","no","0","3","null","stimuli/sounds/bleep.wav","null","","","","","","",""
"","","","","","html-keyboard-response","275","2.0.0","447858","pztax6wgqwg","ono","badger","21","female","no","no","0","3","596","<div style=""font-size:30px;"">Press space to start the trial</div>"," ","","","","","","",""
"","","","","","html-keyboard-response","276","2.0.0","448110","pztax6wgqwg","ono","badger","21","female","no","no","0","3","null","<div style=""font-size:60px;"">+</div>","null","","","","","","",""
"","","","","","audio-keyboard-response","277","2.0.0","448660","pztax6wgqwg","ono","badger","21","female","no","no","0","3","null","stimuli/sounds/drop_label_A.wav","null","","","","","","",""
"","","","","","html-keyboard-response","278","2.0.0","449663","pztax6wgqwg","ono","badger","21","female","no","no","0","3","null","","null","","","","","","",""
"","","","","","image-keyboard-response","279","2.0.0","450262","pztax6wgqwg","ono","badger","21","female","no","no","0","3","598","stimuli/pictures/drop_multi_1.jpg","0","1","","false","yes","sound","stimuli/sounds/drop_label_A.wav",""
"","","","","","audio-keyboard-response","280","2.0.0","451264","pztax6wgqwg","ono","badger","21","female","no","no","0","3","null","stimuli/sounds/buzz.wav","null","","","","","","",""
"","","","","","html-keyboard-response","281","2.0.0","451831","pztax6wgqwg","ono","badger","21","female","no","no","0","3","465","<div style=""font-size:30px;"">Press space to start the trial</div>"," ","","","","","","",""
"","","","","","html-keyboard-response","282","2.0.0","452082","pztax6wgqwg","ono","badger","21","female","no","no","0","3","null","<div style=""font-size:60px;"">+</div>","null","","","","","","",""
"","","","","","audio-keyboard-response","283","2.0.0","452692","pztax6wgqwg","ono","badger","21","female","no","no","0","3","null","stimuli/sounds/drop_label_B.wav","null","","","","","","",""
"","","","","","html-keyboard-response","284","2.0.0","453694","pztax6wgqwg","ono","badger","21","female","no","no","0","3","null","","null","","","","","","",""
"","","","","","image-keyboard-response","285","2.0.0","454300","pztax6wgqwg","ono","badger","21","female","no","no","0","3","604","stimuli/pictures/drop_single_1.jpg","1","1","","true","yes","sound","stimuli/sounds/drop_label_B.wav",""
"","","","","","audio-keyboard-response","286","2.0.0","455303","pztax6wgqwg","ono","badger","21","female","no","no","0","3","null","stimuli/sounds/bleep.wav","null","","","","","","",""
"","","","","","html-keyboard-response","287","2.0.0","455778","pztax6wgqwg","ono","badger","21","female","no","no","0","3","373","<div style=""font-size:30px;"">Press space to start the trial</div>"," ","","","","","","",""
"","","","","","html-keyboard-response","288","2.0.0","456030","pztax6wgqwg","ono","badger","21","female","no","no","0","3","null","<div style=""font-size:60px;"">+</div>","null","","","","","","",""
"","","","","","audio-keyboard-response","289","2.0.0","456570","pztax6wgqwg","ono","badger","21","female","no","no","0","3","null","stimuli/sounds/hiccup_label_A.wav","null","","","","","","",""
"","","","","","html-keyboard-response","290","2.0.0","457571","pztax6wgqwg","ono","badger","21","female","no","no","0","3","null","","null","","","","","","",""
"","","","","","image-keyboard-response","291","2.0.0","459633","pztax6wgqwg","ono","badger","21","female","no","no","0","3","2061","stimuli/pictures/cough_man_1.jpg","1","0","","false","no","sound","stimuli/sounds/hiccup_label_A.wav",""
"","","","","","audio-keyboard-response","292","2.0.0","460636","pztax6wgqwg","ono","badger","21","female","no","no","0","3","null","stimuli/sounds/buzz.wav","null","","","","","","",""
"","","","","","html-keyboard-response","293","2.0.0","461205","pztax6wgqwg","ono","badger","21","female","no","no","0","3","468","<div style=""font-size:30px;"">Press space to start the trial</div>"," ","","","","","","",""
"","","","","","html-keyboard-response","294","2.0.0","461457","pztax6wgqwg","ono","badger","21","female","no","no","0","3","null","<div style=""font-size:60px;"">+</div>","null","","","","","","",""
"","","","","","audio-keyboard-response","295","2.0.0","462138","pztax6wgqwg","ono","badger","21","female","no","no","0","3","null","stimuli/sounds/cough_sound_B.wav","null","","","","","","",""
"","","","","","html-keyboard-response","296","2.0.0","463139","pztax6wgqwg","ono","badger","21","female","no","no","0","3","null","","null","","","","","","",""
"","","","","","image-keyboard-response","297","2.0.0","464130","pztax6wgqwg","ono","badger","21","female","no","no","0","3","990","stimuli/pictures/hiccup_man_2.jpg","1","0","","false","no","sound","stimuli/sounds/cough_sound_B.wav",""
"","","","","","audio-keyboard-response","298","2.0.0","465132","pztax6wgqwg","ono","badger","21","female","no","no","0","3","null","stimuli/sounds/buzz.wav","null","","","","","","",""
"","","","","","html-keyboard-response","299","2.0.0","466217","pztax6wgqwg","ono","badger","21","female","no","no","0","3","982","<div style=""font-size:30px;"">Press space to start the trial</div>"," ","","","","","","",""
"","","","","","html-keyboard-response","300","2.0.0","466468","pztax6wgqwg","ono","badger","21","female","no","no","0","3","null","<div style=""font-size:60px;"">+</div>","null","","","","","","",""
"","","","","","audio-keyboard-response","301","2.0.0","467076","pztax6wgqwg","ono","badger","21","female","no","no","0","3","null","stimuli/sounds/hiccup_sound_A.wav","null","","","","","","",""
"","","","","","html-keyboard-response","302","2.0.0","468079","pztax6wgqwg","ono","badger","21","female","no","no","0","3","null","","null","","","","","","",""
"","","","","","image-keyboard-response","303","2.0.0","468920","pztax6wgqwg","ono","badger","21","female","no","no","0","3","840","stimuli/pictures/hiccup_wom_2.jpg","1","1","","true","yes","sound","stimuli/sounds/hiccup_sound_A.wav",""
"","","","","","audio-keyboard-response","304","2.0.0","469922","pztax6wgqwg","ono","badger","21","female","no","no","0","3","null","stimuli/sounds/bleep.wav","null","","","","","","",""
"","","","","","html-keyboard-response","305","2.0.0","470417","pztax6wgqwg","ono","badger","21","female","no","no","0","3","394","<div style=""font-size:30px;"">Press space to start the trial</div>"," ","","","","","","",""
"","","","","","html-keyboard-response","306","2.0.0","470670","pztax6wgqwg","ono","badger","21","female","no","no","0","3","null","<div style=""font-size:60px;"">+</div>","null","","","","","","",""
"","","","","","audio-keyboard-response","307","2.0.0","471300","pztax6wgqwg","ono","badger","21","female","no","no","0","3","null","stimuli/sounds/cough_label_A.wav","null","","","","","","",""
"","","","","","html-keyboard-response","308","2.0.0","472302","pztax6wgqwg","ono","badger","21","female","no","no","0","3","null","","null","","","","","","",""
"","","","","","image-keyboard-response","309","2.0.0","473637","pztax6wgqwg","ono","badger","21","female","no","no","0","3","1334","stimuli/pictures/cough_wom_1.jpg","1","1","","true","yes","sound","stimuli/sounds/cough_label_A.wav",""
"","","","","","audio-keyboard-response","310","2.0.0","474640","pztax6wgqwg","ono","badger","21","female","no","no","0","3","null","stimuli/sounds/bleep.wav","null","","","","","","",""
"","","","","","html-keyboard-response","311","2.0.0","475135","pztax6wgqwg","ono","badger","21","female","no","no","0","3","393","<div style=""font-size:30px;"">Press space to start the trial</div>"," ","","","","","","",""
"","","","","","html-keyboard-response","312","2.0.0","475386","pztax6wgqwg","ono","badger","21","female","no","no","0","3","null","<div style=""font-size:60px;"">+</div>","null","","","","","","",""
"","","","","","audio-keyboard-response","313","2.0.0","475988","pztax6wgqwg","ono","badger","21","female","no","no","0","3","null","stimuli/sounds/motor_sound_B.wav","null","","","","","","",""
"","","","","","html-keyboard-response","314","2.0.0","476990","pztax6wgqwg","ono","badger","21","female","no","no","0","3","null","","null","","","","","","",""
"","","","","","image-keyboard-response","315","2.0.0","477606","pztax6wgqwg","ono","badger","21","female","no","no","0","3","614","stimuli/pictures/motor_harley_2.jpg","1","1","","true","yes","sound","stimuli/sounds/motor_sound_B.wav",""
"","","","","","audio-keyboard-response","316","2.0.0","478609","pztax6wgqwg","ono","badger","21","female","no","no","0","3","null","stimuli/sounds/bleep.wav","null","","","","","","",""
"","","","","","html-keyboard-response","317","2.0.0","479040","pztax6wgqwg","ono","badger","21","female","no","no","0","3","329","<div style=""font-size:30px;"">Press space to start the trial</div>"," ","","","","","","",""
"","","","","","html-keyboard-response","318","2.0.0","479292","pztax6wgqwg","ono","badger","21","female","no","no","0","3","null","<div style=""font-size:60px;"">+</div>","null","","","","","","",""
"","","","","","audio-keyboard-response","319","2.0.0","479897","pztax6wgqwg","ono","badger","21","female","no","no","0","3","null","stimuli/sounds/hiccup_label_B.wav","null","","","","","","",""
"","","","","","html-keyboard-response","320","2.0.0","480900","pztax6wgqwg","ono","badger","21","female","no","no","0","3","null","","null","","","","","","",""
"","","","","","image-keyboard-response","321","2.0.0","482380","pztax6wgqwg","ono","badger","21","female","no","no","0","3","1479","stimuli/pictures/hiccup_man_1.jpg","1","1","","true","yes","sound","stimuli/sounds/hiccup_label_B.wav",""
"","","","","","audio-keyboard-response","322","2.0.0","483383","pztax6wgqwg","ono","badger","21","female","no","no","0","3","null","stimuli/sounds/bleep.wav","null","","","","","","",""
"","","","","","html-keyboard-response","323","2.0.0","483840","pztax6wgqwg","ono","badger","21","female","no","no","0","3","356","<div style=""font-size:30px;"">Press space to start the trial</div>"," ","","","","","","",""
"","","","","","html-keyboard-response","324","2.0.0","484092","pztax6wgqwg","ono","badger","21","female","no","no","0","3","null","<div style=""font-size:60px;"">+</div>","null","","","","","","",""
"","","","","","audio-keyboard-response","325","2.0.0","484692","pztax6wgqwg","ono","badger","21","female","no","no","0","3","null","stimuli/sounds/dog_sound_B.wav","null","","","","","","",""
"","","","","","html-keyboard-response","326","2.0.0","485694","pztax6wgqwg","ono","badger","21","female","no","no","0","3","null","","null","","","","","","",""
"","","","","","image-keyboard-response","327","2.0.0","486315","pztax6wgqwg","ono","badger","21","female","no","no","0","3","620","stimuli/pictures/motor_harley_2.jpg","0","0","","true","no","sound","stimuli/sounds/dog_sound_B.wav",""
"","","","","","audio-keyboard-response","328","2.0.0","487317","pztax6wgqwg","ono","badger","21","female","no","no","0","3","null","stimuli/sounds/bleep.wav","null","","","","","","",""
"","","","","","html-keyboard-response","329","2.0.0","488013","pztax6wgqwg","ono","badger","21","female","no","no","0","3","595","<div style=""font-size:30px;"">Press space to start the trial</div>"," ","","","","","","",""
"","","","","","html-keyboard-response","330","2.0.0","488266","pztax6wgqwg","ono","badger","21","female","no","no","0","3","null","<div style=""font-size:60px;"">+</div>","null","","","","","","",""
"","","","","","audio-keyboard-response","331","2.0.0","488868","pztax6wgqwg","ono","badger","21","female","no","no","0","3","null","stimuli/sounds/hiccup_sound_B.wav","null","","","","","","",""
"","","","","","html-keyboard-response","332","2.0.0","489870","pztax6wgqwg","ono","badger","21","female","no","no","0","3","null","","null","","","","","","",""
"","","","","","image-keyboard-response","333","2.0.0","490837","pztax6wgqwg","ono","badger","21","female","no","no","0","3","966","stimuli/pictures/drop_multi_2.jpg","1","0","","false","no","sound","stimuli/sounds/hiccup_sound_B.wav",""
"","","","","","audio-keyboard-response","334","2.0.0","491841","pztax6wgqwg","ono","badger","21","female","no","no","0","3","null","stimuli/sounds/buzz.wav","null","","","","","","",""
"","","","","","html-keyboard-response","335","2.0.0","492433","pztax6wgqwg","ono","badger","21","female","no","no","0","3","489","<div style=""font-size:30px;"">Press space to start the trial</div>"," ","","","","","","",""
"","","","","","html-keyboard-response","336","2.0.0","492685","pztax6wgqwg","ono","badger","21","female","no","no","0","3","null","<div style=""font-size:60px;"">+</div>","null","","","","","","",""
"","","","","","audio-keyboard-response","337","2.0.0","493284","pztax6wgqwg","ono","badger","21","female","no","no","0","3","null","stimuli/sounds/motor_label_A.wav","null","","","","","","",""
"","","","","","html-keyboard-response","338","2.0.0","494286","pztax6wgqwg","ono","badger","21","female","no","no","0","3","null","","null","","","","","","",""
"","","","","","image-keyboard-response","339","2.0.0","495400","pztax6wgqwg","ono","badger","21","female","no","no","0","3","1112","stimuli/pictures/motor_harley_2.jpg","1","1","","true","yes","sound","stimuli/sounds/motor_label_A.wav",""
"","","","","","audio-keyboard-response","340","2.0.0","496402","pztax6wgqwg","ono","badger","21","female","no","no","0","3","null","stimuli/sounds/bleep.wav","null","","","","","","",""
"","","","","","html-keyboard-response","341","2.0.0","496887","pztax6wgqwg","ono","badger","21","female","no","no","0","3","382","<div style=""font-size:30px;"">Press space to start the trial</div>"," ","","","","","","",""
"","","","","","html-keyboard-response","342","2.0.0","497139","pztax6wgqwg","ono","badger","21","female","no","no","0","3","null","<div style=""font-size:60px;"">+</div>","null","","","","","","",""
"","","","","","audio-keyboard-response","343","2.0.0","497726","pztax6wgqwg","ono","badger","21","female","no","no","0","3","null","stimuli/sounds/drop_sound_A.wav","null","","","","","","",""
"","","","","","html-keyboard-response","344","2.0.0","498728","pztax6wgqwg","ono","badger","21","female","no","no","0","3","null","","null","","","","","","",""
"","","","","","image-keyboard-response","345","2.0.0","499758","pztax6wgqwg","ono","badger","21","female","no","no","0","3","1029","stimuli/pictures/cough_man_2.jpg","0","0","","true","no","sound","stimuli/sounds/drop_sound_A.wav",""
"","","","","","audio-keyboard-response","346","2.0.0","500760","pztax6wgqwg","ono","badger","21","female","no","no","0","3","null","stimuli/sounds/bleep.wav","null","","","","","","",""
"","","","","","html-keyboard-response","347","2.0.0","501256","pztax6wgqwg","ono","badger","21","female","no","no","0","3","393","<div style=""font-size:30px;"">Press space to start the trial</div>"," ","","","","","","",""
"","","","","","html-keyboard-response","348","2.0.0","501507","pztax6wgqwg","ono","badger","21","female","no","no","0","3","null","<div style=""font-size:60px;"">+</div>","null","","","","","","",""
"","","","","","audio-keyboard-response","349","2.0.0","502174","pztax6wgqwg","ono","badger","21","female","no","no","0","3","null","stimuli/sounds/cough_sound_A.wav","null","","","","","","",""
"","","","","","html-keyboard-response","350","2.0.0","503176","pztax6wgqwg","ono","badger","21","female","no","no","0","3","null","","null","","","","","","",""
"","","","","","image-keyboard-response","351","2.0.0","503798","pztax6wgqwg","ono","badger","21","female","no","no","0","3","620","stimuli/pictures/dog_rott_1.jpg","0","0","","true","no","sound","stimuli/sounds/cough_sound_A.wav",""
"","","","","","audio-keyboard-response","352","2.0.0","504801","pztax6wgqwg","ono","badger","21","female","no","no","0","3","null","stimuli/sounds/bleep.wav","null","","","","","","",""
"","","","","","html-keyboard-response","353","2.0.0","505297","pztax6wgqwg","ono","badger","21","female","no","no","0","3","395","<div style=""font-size:30px;"">Press space to start the trial</div>"," ","","","","","","",""
"","","","","","html-keyboard-response","354","2.0.0","505549","pztax6wgqwg","ono","badger","21","female","no","no","0","3","null","<div style=""font-size:60px;"">+</div>","null","","","","","","",""
"","","","","","audio-keyboard-response","355","2.0.0","506148","pztax6wgqwg","ono","badger","21","female","no","no","0","3","null","stimuli/sounds/dog_label_A.wav","null","","","","","","",""
"","","","","","html-keyboard-response","356","2.0.0","507149","pztax6wgqwg","ono","badger","21","female","no","no","0","3","null","","null","","","","","","",""
"","","","","","image-keyboard-response","357","2.0.0","507767","pztax6wgqwg","ono","badger","21","female","no","no","0","3","616","stimuli/pictures/drop_multi_2.jpg","0","0","","true","no","sound","stimuli/sounds/dog_label_A.wav",""
"","","","","","audio-keyboard-response","358","2.0.0","508769","pztax6wgqwg","ono","badger","21","female","no","no","0","3","null","stimuli/sounds/bleep.wav","null","","","","","","",""
"","","","","","html-keyboard-response","359","2.0.0","509294","pztax6wgqwg","ono","badger","21","female","no","no","0","3","424","<div style=""font-size:30px;"">Press space to start the trial</div>"," ","","","","","","",""
"","","","","","html-keyboard-response","360","2.0.0","509546","pztax6wgqwg","ono","badger","21","female","no","no","0","3","null","<div style=""font-size:60px;"">+</div>","null","","","","","","",""
"","","","","","audio-keyboard-response","361","2.0.0","510153","pztax6wgqwg","ono","badger","21","female","no","no","0","3","null","stimuli/sounds/hiccup_sound_A.wav","null","","","","","","",""
"","","","","","html-keyboard-response","362","2.0.0","511155","pztax6wgqwg","ono","badger","21","female","no","no","0","3","null","","null","","","","","","",""
"","","","","","image-keyboard-response","363","2.0.0","511944","pztax6wgqwg","ono","badger","21","female","no","no","0","3","788","stimuli/pictures/motor_harley_2.jpg","0","0","","true","no","sound","stimuli/sounds/hiccup_sound_A.wav",""
"","","","","","audio-keyboard-response","364","2.0.0","512947","pztax6wgqwg","ono","badger","21","female","no","no","0","3","null","stimuli/sounds/bleep.wav","null","","","","","","",""
"","","","","","html-keyboard-response","365","2.0.0","513491","pztax6wgqwg","ono","badger","21","female","no","no","0","3","443","<div style=""font-size:30px;"">Press space to start the trial</div>"," ","","","","","","",""
"","","","","","html-keyboard-response","366","2.0.0","513744","pztax6wgqwg","ono","badger","21","female","no","no","0","3","null","<div style=""font-size:60px;"">+</div>","null","","","","","","",""
"","","","","","audio-keyboard-response","367","2.0.0","514350","pztax6wgqwg","ono","badger","21","female","no","no","0","3","null","stimuli/sounds/cough_label_B.wav","null","","","","","","",""
"","","","","","html-keyboard-response","368","2.0.0","515353","pztax6wgqwg","ono","badger","21","female","no","no","0","3","null","","null","","","","","","",""
"","","","","","image-keyboard-response","369","2.0.0","516352","pztax6wgqwg","ono","badger","21","female","no","no","0","3","998","stimuli/pictures/drop_multi_2.jpg","0","0","","true","no","sound","stimuli/sounds/cough_label_B.wav",""
"","","","","","audio-keyboard-response","370","2.0.0","517354","pztax6wgqwg","ono","badger","21","female","no","no","0","3","null","stimuli/sounds/bleep.wav","null","","","","","","",""
"","","","","","html-keyboard-response","371","2.0.0","518143","pztax6wgqwg","ono","badger","21","female","no","no","0","3","687","<div style=""font-size:30px;"">Press space to start the trial</div>"," ","","","","","","",""
"","","","","","html-keyboard-response","372","2.0.0","518396","pztax6wgqwg","ono","badger","21","female","no","no","0","3","null","<div style=""font-size:60px;"">+</div>","null","","","","","","",""
"","","","","","audio-keyboard-response","373","2.0.0","518995","pztax6wgqwg","ono","badger","21","female","no","no","0","3","null","stimuli/sounds/dog_sound_A.wav","null","","","","","","",""
"","","","","","html-keyboard-response","374","2.0.0","519998","pztax6wgqwg","ono","badger","21","female","no","no","0","3","null","","null","","","","","","",""
"","","","","","image-keyboard-response","375","2.0.0","520721","pztax6wgqwg","ono","badger","21","female","no","no","0","3","722","stimuli/pictures/dog_rott_2.jpg","1","1","","true","yes","sound","stimuli/sounds/dog_sound_A.wav",""
"","","","","","audio-keyboard-response","376","2.0.0","521724","pztax6wgqwg","ono","badger","21","female","no","no","0","3","null","stimuli/sounds/bleep.wav","null","","","","","","",""
"","","","","","html-keyboard-response","377","2.0.0","522236","pztax6wgqwg","ono","badger","21","female","no","no","0","3","410","<div style=""font-size:30px;"">Press space to start the trial</div>"," ","","","","","","",""
"","","","","","html-keyboard-response","378","2.0.0","522489","pztax6wgqwg","ono","badger","21","female","no","no","0","3","null","<div style=""font-size:60px;"">+</div>","null","","","","","","",""
"","","","","","audio-keyboard-response","379","2.0.0","523171","pztax6wgqwg","ono","badger","21","female","no","no","0","3","null","stimuli/sounds/cough_sound_B.wav","null","","","","","","",""
"","","","","","html-keyboard-response","380","2.0.0","524173","pztax6wgqwg","ono","badger","21","female","no","no","0","3","null","","null","","","","","","",""
"","","","","","image-keyboard-response","381","2.0.0","524749","pztax6wgqwg","ono","badger","21","female","no","no","0","3","574","stimuli/pictures/cough_man_2.jpg","1","1","","true","yes","sound","stimuli/sounds/cough_sound_B.wav",""
"","","","","","audio-keyboard-response","382","2.0.0","525751","pztax6wgqwg","ono","badger","21","female","no","no","0","3","null","stimuli/sounds/bleep.wav","null","","","","","","",""
"","","","","","html-keyboard-response","383","2.0.0","526315","pztax6wgqwg","ono","badger","21","female","no","no","0","3","461","<div style=""font-size:30px;"">Press space to start the trial</div>"," ","","","","","","",""
"","","","","","html-keyboard-response","384","2.0.0","526565","pztax6wgqwg","ono","badger","21","female","no","no","0","3","null","<div style=""font-size:60px;"">+</div>","null","","","","","","",""
"","","","","","audio-keyboard-response","385","2.0.0","527166","pztax6wgqwg","ono","badger","21","female","no","no","0","3","null","stimuli/sounds/dog_sound_B.wav","null","","","","","","",""
"","","","","","html-keyboard-response","386","2.0.0","528169","pztax6wgqwg","ono","badger","21","female","no","no","0","3","null","","null","","","","","","",""
"","","","","","image-keyboard-response","387","2.0.0","528805","pztax6wgqwg","ono","badger","21","female","no","no","0","3","635","stimuli/pictures/dog_york_1.jpg","1","1","","true","yes","sound","stimuli/sounds/dog_sound_B.wav",""
"","","","","","audio-keyboard-response","388","2.0.0","529808","pztax6wgqwg","ono","badger","21","female","no","no","0","3","null","stimuli/sounds/bleep.wav","null","","","","","","",""
"","","","","","html-keyboard-response","389","2.0.0","531170","pztax6wgqwg","ono","badger","21","female","no","no","0","3","1260","<p>You have completed a block. Press R when you are ready to continue</p>","r","","","","","","",""
"","","","","","html-keyboard-response","390","2.0.0","532145","pztax6wgqwg","ono","badger","21","female","no","no","0","3","975","<div style=""font-size:30px;"">Press space to start the trial</div>"," ","","","","","","",""
"","","","","","html-keyboard-response","391","2.0.0","532397","pztax6wgqwg","ono","badger","21","female","no","no","0","3","null","<div style=""font-size:60px;"">+</div>","null","","","","","","",""
"","","","","","audio-keyboard-response","392","2.0.0","532995","pztax6wgqwg","ono","badger","21","female","no","no","0","3","null","stimuli/sounds/motor_label_B.wav","null","","","","","","",""
"","","","","","html-keyboard-response","393","2.0.0","533997","pztax6wgqwg","ono","badger","21","female","no","no","0","3","null","","null","","","","","","",""
"","","","","","image-keyboard-response","394","2.0.0","534582","pztax6wgqwg","ono","badger","21","female","no","no","0","3","584","stimuli/pictures/hiccup_wom_1.jpg","0","0","","true","no","sound","stimuli/sounds/motor_label_B.wav",""
"","","","","","audio-keyboard-response","395","2.0.0","535584","pztax6wgqwg","ono","badger","21","female","no","no","0","3","null","stimuli/sounds/bleep.wav","null","","","","","","",""
"","","","","","html-keyboard-response","396","2.0.0","536115","pztax6wgqwg","ono","badger","21","female","no","no","0","3","430","<div style=""font-size:30px;"">Press space to start the trial</div>"," ","","","","","","",""
"","","","","","html-keyboard-response","397","2.0.0","536367","pztax6wgqwg","ono","badger","21","female","no","no","0","3","null","<div style=""font-size:60px;"">+</div>","null","","","","","","",""
"","","","","","audio-keyboard-response","398","2.0.0","536974","pztax6wgqwg","ono","badger","21","female","no","no","0","3","null","stimuli/sounds/hiccup_label_B.wav","null","","","","","","",""
"","","","","","html-keyboard-response","399","2.0.0","537976","pztax6wgqwg","ono","badger","21","female","no","no","0","3","null","","null","","","","","","",""
"","","","","","image-keyboard-response","400","2.0.0","539238","pztax6wgqwg","ono","badger","21","female","no","no","0","3","1261","stimuli/pictures/hiccup_man_2.jpg","1","1","","true","yes","sound","stimuli/sounds/hiccup_label_B.wav",""
"","","","","","audio-keyboard-response","401","2.0.0","540241","pztax6wgqwg","ono","badger","21","female","no","no","0","3","null","stimuli/sounds/bleep.wav","null","","","","","","",""
"","","","","","html-keyboard-response","402","2.0.0","540938","pztax6wgqwg","ono","badger","21","female","no","no","0","3","595","<div style=""font-size:30px;"">Press space to start the trial</div>"," ","","","","","","",""
"","","","","","html-keyboard-response","403","2.0.0","541190","pztax6wgqwg","ono","badger","21","female","no","no","0","3","null","<div style=""font-size:60px;"">+</div>","null","","","","","","",""
"","","","","","audio-keyboard-response","404","2.0.0","541790","pztax6wgqwg","ono","badger","21","female","no","no","0","3","null","stimuli/sounds/dog_sound_B.wav","null","","","","","","",""
"","","","","","html-keyboard-response","405","2.0.0","542792","pztax6wgqwg","ono","badger","21","female","no","no","0","3","null","","null","","","","","","",""
"","","","","","image-keyboard-response","406","2.0.0","543367","pztax6wgqwg","ono","badger","21","female","no","no","0","3","574","stimuli/pictures/motor_dirt_2.jpg","0","0","","true","no","sound","stimuli/sounds/dog_sound_B.wav",""
"","","","","","audio-keyboard-response","407","2.0.0","544369","pztax6wgqwg","ono","badger","21","female","no","no","0","3","null","stimuli/sounds/bleep.wav","null","","","","","","",""
"","","","","","html-keyboard-response","408","2.0.0","545082","pztax6wgqwg","ono","badger","21","female","no","no","0","3","611","<div style=""font-size:30px;"">Press space to start the trial</div>"," ","","","","","","",""
"","","","","","html-keyboard-response","409","2.0.0","545334","pztax6wgqwg","ono","badger","21","female","no","no","0","3","null","<div style=""font-size:60px;"">+</div>","null","","","","","","",""
"","","","","","audio-keyboard-response","410","2.0.0","545934","pztax6wgqwg","ono","badger","21","female","no","no","0","3","null","stimuli/sounds/motor_sound_B.wav","null","","","","","","",""
"","","","","","html-keyboard-response","411","2.0.0","546936","pztax6wgqwg","ono","badger","21","female","no","no","0","3","null","","null","","","","","","",""
"","","","","","image-keyboard-response","412","2.0.0","547578","pztax6wgqwg","ono","badger","21","female","no","no","0","3","641","stimuli/pictures/cough_man_2.jpg","0","0","","true","no","sound","stimuli/sounds/motor_sound_B.wav",""
"","","","","","audio-keyboard-response","413","2.0.0","548581","pztax6wgqwg","ono","badger","21","female","no","no","0","3","null","stimuli/sounds/bleep.wav","null","","","","","","",""
"","","","","","html-keyboard-response","414","2.0.0","549157","pztax6wgqwg","ono","badger","21","female","no","no","0","3","474","<div style=""font-size:30px;"">Press space to start the trial</div>"," ","","","","","","",""
"","","","","","html-keyboard-response","415","2.0.0","549409","pztax6wgqwg","ono","badger","21","female","no","no","0","3","null","<div style=""font-size:60px;"">+</div>","null","","","","","","",""
"","","","","","audio-keyboard-response","416","2.0.0","550019","pztax6wgqwg","ono","badger","21","female","no","no","0","3","null","stimuli/sounds/drop_label_B.wav","null","","","","","","",""
"","","","","","html-keyboard-response","417","2.0.0","551021","pztax6wgqwg","ono","badger","21","female","no","no","0","3","null","","null","","","","","","",""
"","","","","","image-keyboard-response","418","2.0.0","551619","pztax6wgqwg","ono","badger","21","female","no","no","0","3","597","stimuli/pictures/motor_dirt_1.jpg","0","0","","true","no","sound","stimuli/sounds/drop_label_B.wav",""
"","","","","","audio-keyboard-response","419","2.0.0","552621","pztax6wgqwg","ono","badger","21","female","no","no","0","3","null","stimuli/sounds/bleep.wav","null","","","","","","",""
"","","","","","html-keyboard-response","420","2.0.0","553135","pztax6wgqwg","ono","badger","21","female","no","no","0","3","411","<div style=""font-size:30px;"">Press space to start the trial</div>"," ","","","","","","",""
"","","","","","html-keyboard-response","421","2.0.0","553387","pztax6wgqwg","ono","badger","21","female","no","no","0","3","null","<div style=""font-size:60px;"">+</div>","null","","","","","","",""
"","","","","","audio-keyboard-response","422","2.0.0","554051","pztax6wgqwg","ono","badger","21","female","no","no","0","3","null","stimuli/sounds/cough_sound_A.wav","null","","","","","","",""
"","","","","","html-keyboard-response","423","2.0.0","555053","pztax6wgqwg","ono","badger","21","female","no","no","0","3","null","","null","","","","","","",""
"","","","","","image-keyboard-response","424","2.0.0","555710","pztax6wgqwg","ono","badger","21","female","no","no","0","3","656","stimuli/pictures/cough_wom_1.jpg","1","1","","true","yes","sound","stimuli/sounds/cough_sound_A.wav",""
"","","","","","audio-keyboard-response","425","2.0.0","556713","pztax6wgqwg","ono","badger","21","female","no","no","0","3","null","stimuli/sounds/bleep.wav","null","","","","","","",""
"","","","","","html-keyboard-response","426","2.0.0","557211","pztax6wgqwg","ono","badger","21","female","no","no","0","3","396","<div style=""font-size:30px;"">Press space to start the trial</div>"," ","","","","","","",""
"","","","","","html-keyboard-response","427","2.0.0","557463","pztax6wgqwg","ono","badger","21","female","no","no","0","3","null","<div style=""font-size:60px;"">+</div>","null","","","","","","",""
"","","","","","audio-keyboard-response","428","2.0.0","558062","pztax6wgqwg","ono","badger","21","female","no","no","0","3","null","stimuli/sounds/dog_sound_B.wav","null","","","","","","",""
"","","","","","html-keyboard-response","429","2.0.0","559064","pztax6wgqwg","ono","badger","21","female","no","no","0","3","null","","null","","","","","","",""
"","","","","","image-keyboard-response","430","2.0.0","559823","pztax6wgqwg","ono","badger","21","female","no","no","0","3","758","stimuli/pictures/dog_rott_1.jpg","1","1","","true","no","sound","stimuli/sounds/dog_sound_B.wav",""
"","","","","","audio-keyboard-response","431","2.0.0","560825","pztax6wgqwg","ono","badger","21","female","no","no","0","3","null","stimuli/sounds/bleep.wav","null","","","","","","",""
"","","","","","html-keyboard-response","432","2.0.0","561315","pztax6wgqwg","ono","badger","21","female","no","no","0","3","388","<div style=""font-size:30px;"">Press space to start the trial</div>"," ","","","","","","",""
"","","","","","html-keyboard-response","433","2.0.0","561568","pztax6wgqwg","ono","badger","21","female","no","no","0","3","null","<div style=""font-size:60px;"">+</div>","null","","","","","","",""
"","","","","","audio-keyboard-response","434","2.0.0","562168","pztax6wgqwg","ono","badger","21","female","no","no","0","3","null","stimuli/sounds/dog_sound_B.wav","null","","","","","","",""
"","","","","","html-keyboard-response","435","2.0.0","563171","pztax6wgqwg","ono","badger","21","female","no","no","0","3","null","","null","","","","","","",""
"","","","","","image-keyboard-response","436","2.0.0","563604","pztax6wgqwg","ono","badger","21","female","no","no","0","3","432","stimuli/pictures/dog_rott_2.jpg","1","1","","true","no","sound","stimuli/sounds/dog_sound_B.wav",""
"","","","","","audio-keyboard-response","437","2.0.0","564607","pztax6wgqwg","ono","badger","21","female","no","no","0","3","null","stimuli/sounds/bleep.wav","null","","","","","","",""
"","","","","","html-keyboard-response","438","2.0.0","565085","pztax6wgqwg","ono","badger","21","female","no","no","0","3","376","<div style=""font-size:30px;"">Press space to start the trial</div>"," ","","","","","","",""
"","","","","","html-keyboard-response","439","2.0.0","565337","pztax6wgqwg","ono","badger","21","female","no","no","0","3","null","<div style=""font-size:60px;"">+</div>","null","","","","","","",""
"","","","","","audio-keyboard-response","440","2.0.0","565944","pztax6wgqwg","ono","badger","21","female","no","no","0","3","null","stimuli/sounds/hiccup_sound_A.wav","null","","","","","","",""
"","","","","","html-keyboard-response","441","2.0.0","566946","pztax6wgqwg","ono","badger","21","female","no","no","0","3","null","","null","","","","","","",""
"","","","","","image-keyboard-response","442","2.0.0","567686","pztax6wgqwg","ono","badger","21","female","no","no","0","3","738","stimuli/pictures/hiccup_man_1.jpg","1","1","","true","no","sound","stimuli/sounds/hiccup_sound_A.wav",""
"","","","","","audio-keyboard-response","443","2.0.0","568688","pztax6wgqwg","ono","badger","21","female","no","no","0","3","null","stimuli/sounds/bleep.wav","null","","","","","","",""
"","","","","","html-keyboard-response","444","2.0.0","569146","pztax6wgqwg","ono","badger","21","female","no","no","0","3","356","<div style=""font-size:30px;"">Press space to start the trial</div>"," ","","","","","","",""
"","","","","","html-keyboard-response","445","2.0.0","569399","pztax6wgqwg","ono","badger","21","female","no","no","0","3","null","<div style=""font-size:60px;"">+</div>","null","","","","","","",""
"","","","","","audio-keyboard-response","446","2.0.0","569997","pztax6wgqwg","ono","badger","21","female","no","no","0","3","null","stimuli/sounds/dog_sound_A.wav","null","","","","","","",""
"","","","","","html-keyboard-response","447","2.0.0","570999","pztax6wgqwg","ono","badger","21","female","no","no","0","3","null","","null","","","","","","",""
"","","","","","image-keyboard-response","448","2.0.0","571829","pztax6wgqwg","ono","badger","21","female","no","no","0","3","828","stimuli/pictures/hiccup_wom_2.jpg","0","0","","true","no","sound","stimuli/sounds/dog_sound_A.wav",""
"","","","","","audio-keyboard-response","449","2.0.0","572832","pztax6wgqwg","ono","badger","21","female","no","no","0","3","null","stimuli/sounds/bleep.wav","null","","","","","","",""
"","","","","","html-keyboard-response","450","2.0.0","573311","pztax6wgqwg","ono","badger","21","female","no","no","0","3","378","<div style=""font-size:30px;"">Press space to start the trial</div>"," ","","","","","","",""
"","","","","","html-keyboard-response","451","2.0.0","573564","pztax6wgqwg","ono","badger","21","female","no","no","0","3","null","<div style=""font-size:60px;"">+</div>","null","","","","","","",""
"","","","","","audio-keyboard-response","452","2.0.0","574163","pztax6wgqwg","ono","badger","21","female","no","no","0","3","null","stimuli/sounds/motor_label_B.wav","null","","","","","","",""
"","","","","","html-keyboard-response","453","2.0.0","575164","pztax6wgqwg","ono","badger","21","female","no","no","0","3","null","","null","","","","","","",""
"","","","","","image-keyboard-response","454","2.0.0","575599","pztax6wgqwg","ono","badger","21","female","no","no","0","3","433","stimuli/pictures/motor_harley_2.jpg","1","1","","true","yes","sound","stimuli/sounds/motor_label_B.wav",""
"","","","","","audio-keyboard-response","455","2.0.0","576601","pztax6wgqwg","ono","badger","21","female","no","no","0","3","null","stimuli/sounds/bleep.wav","null","","","","","","",""
"","","","","","html-keyboard-response","456","2.0.0","577089","pztax6wgqwg","ono","badger","21","female","no","no","0","3","386","<div style=""font-size:30px;"">Press space to start the trial</div>"," ","","","","","","",""
"","","","","","html-keyboard-response","457","2.0.0","577341","pztax6wgqwg","ono","badger","21","female","no","no","0","3","null","<div style=""font-size:60px;"">+</div>","null","","","","","","",""
"","","","","","audio-keyboard-response","458","2.0.0","577944","pztax6wgqwg","ono","badger","21","female","no","no","0","3","null","stimuli/sounds/dog_label_B.wav","null","","","","","","",""
"","","","","","html-keyboard-response","459","2.0.0","578946","pztax6wgqwg","ono","badger","21","female","no","no","0","3","null","","null","","","","","","",""
"","","","","","image-keyboard-response","460","2.0.0","579360","pztax6wgqwg","ono","badger","21","female","no","no","0","3","413","stimuli/pictures/dog_york_2.jpg","1","1","","true","yes","sound","stimuli/sounds/dog_label_B.wav",""
"","","","","","audio-keyboard-response","461","2.0.0","580362","pztax6wgqwg","ono","badger","21","female","no","no","0","3","null","stimuli/sounds/bleep.wav","null","","","","","","",""
"","","","","","html-keyboard-response","462","2.0.0","581034","pztax6wgqwg","ono","badger","21","female","no","no","0","3","570","<div style=""font-size:30px;"">Press space to start the trial</div>"," ","","","","","","",""
"","","","","","html-keyboard-response","463","2.0.0","581286","pztax6wgqwg","ono","badger","21","female","no","no","0","3","null","<div style=""font-size:60px;"">+</div>","null","","","","","","",""
"","","","","","audio-keyboard-response","464","2.0.0","581885","pztax6wgqwg","ono","badger","21","female","no","no","0","3","null","stimuli/sounds/motor_sound_B.wav","null","","","","","","",""
"","","","","","html-keyboard-response","465","2.0.0","582887","pztax6wgqwg","ono","badger","21","female","no","no","0","3","null","","null","","","","","","",""
"","","","","","image-keyboard-response","466","2.0.0","583722","pztax6wgqwg","ono","badger","21","female","no","no","0","3","834","stimuli/pictures/cough_man_1.jpg","0","0","","true","no","sound","stimuli/sounds/motor_sound_B.wav",""
"","","","","","audio-keyboard-response","467","2.0.0","584725","pztax6wgqwg","ono","badger","21","female","no","no","0","3","null","stimuli/sounds/bleep.wav","null","","","","","","",""
"","","","","","html-keyboard-response","468","2.0.0","585220","pztax6wgqwg","ono","badger","21","female","no","no","0","3","394","<div style=""font-size:30px;"">Press space to start the trial</div>"," ","","","","","","",""
"","","","","","html-keyboard-response","469","2.0.0","585472","pztax6wgqwg","ono","badger","21","female","no","no","0","3","null","<div style=""font-size:60px;"">+</div>","null","","","","","","",""
"","","","","","audio-keyboard-response","470","2.0.0","586136","pztax6wgqwg","ono","badger","21","female","no","no","0","3","null","stimuli/sounds/cough_sound_A.wav","null","","","","","","",""
"","","","","","html-keyboard-response","471","2.0.0","587138","pztax6wgqwg","ono","badger","21","female","no","no","0","3","null","","null","","","","","","",""
"","","","","","image-keyboard-response","472","2.0.0","588738","pztax6wgqwg","ono","badger","21","female","no","no","0","3","1599","stimuli/pictures/cough_man_2.jpg","1","1","","true","no","sound","stimuli/sounds/cough_sound_A.wav",""
"","","","","","audio-keyboard-response","473","2.0.0","589740","pztax6wgqwg","ono","badger","21","female","no","no","0","3","null","stimuli/sounds/bleep.wav","null","","","","","","",""
"","","","","","html-keyboard-response","474","2.0.0","590112","pztax6wgqwg","ono","badger","21","female","no","no","0","3","270","<div style=""font-size:30px;"">Press space to start the trial</div>"," ","","","","","","",""
"","","","","","html-keyboard-response","475","2.0.0","590364","pztax6wgqwg","ono","badger","21","female","no","no","0","3","null","<div style=""font-size:60px;"">+</div>","null","","","","","","",""
"","","","","","audio-keyboard-response","476","2.0.0","590968","pztax6wgqwg","ono","badger","21","female","no","no","0","3","null","stimuli/sounds/motor_sound_A.wav","null","","","","","","",""
"","","","","","html-keyboard-response","477","2.0.0","591970","pztax6wgqwg","ono","badger","21","female","no","no","0","3","null","","null","","","","","","",""
"","","","","","image-keyboard-response","478","2.0.0","592589","pztax6wgqwg","ono","badger","21","female","no","no","0","3","619","stimuli/pictures/drop_single_1.jpg","0","0","","true","no","sound","stimuli/sounds/motor_sound_A.wav",""
"","","","","","audio-keyboard-response","479","2.0.0","593591","pztax6wgqwg","ono","badger","21","female","no","no","0","3","null","stimuli/sounds/bleep.wav","null","","","","","","",""
"","","","","","html-keyboard-response","480","2.0.0","594251","pztax6wgqwg","ono","badger","21","female","no","no","0","3","557","<div style=""font-size:30px;"">Press space to start the trial</div>"," ","","","","","","",""
"","","","","","html-keyboard-response","481","2.0.0","594503","pztax6wgqwg","ono","badger","21","female","no","no","0","3","null","<div style=""font-size:60px;"">+</div>","null","","","","","","",""
"","","","","","audio-keyboard-response","482","2.0.0","595090","pztax6wgqwg","ono","badger","21","female","no","no","0","3","null","stimuli/sounds/drop_sound_A.wav","null","","","","","","",""
"","","","","","html-keyboard-response","483","2.0.0","596093","pztax6wgqwg","ono","badger","21","female","no","no","0","3","null","","null","","","","","","",""
"","","","","","image-keyboard-response","484","2.0.0","596628","pztax6wgqwg","ono","badger","21","female","no","no","0","3","534","stimuli/pictures/cough_wom_1.jpg","0","0","","true","no","sound","stimuli/sounds/drop_sound_A.wav",""
"","","","","","audio-keyboard-response","485","2.0.0","597630","pztax6wgqwg","ono","badger","21","female","no","no","0","3","null","stimuli/sounds/bleep.wav","null","","","","","","",""
"","","","","","html-keyboard-response","486","2.0.0","597969","pztax6wgqwg","ono","badger","21","female","no","no","0","3","236","<div style=""font-size:30px;"">Press space to start the trial</div>"," ","","","","","","",""
"","","","","","html-keyboard-response","487","2.0.0","598221","pztax6wgqwg","ono","badger","21","female","no","no","0","3","null","<div style=""font-size:60px;"">+</div>","null","","","","","","",""
"","","","","","audio-keyboard-response","488","2.0.0","598904","pztax6wgqwg","ono","badger","21","female","no","no","0","3","null","stimuli/sounds/cough_sound_B.wav","null","","","","","","",""
"","","","","","html-keyboard-response","489","2.0.0","599906","pztax6wgqwg","ono","badger","21","female","no","no","0","3","null","","null","","","","","","",""
"","","","","","image-keyboard-response","490","2.0.0","600834","pztax6wgqwg","ono","badger","21","female","no","no","0","3","927","stimuli/pictures/hiccup_man_1.jpg","1","0","","false","no","sound","stimuli/sounds/cough_sound_B.wav",""
